,condition,trial,sub_task,x,y,xt,yt,cat,resp,rt,acc,correct_resp
0,4F4K,1,2,53.84068580646594,40.65851180827701,1.531792175480917,44.07844418643092,1,b,1.4009088000000247,incorrect,v
1,4F4K,2,2,64.34517998401526,49.86492373311663,1.9057454075483944,52.155872999262094,1,v,1.3584253999999873,correct,v
2,4F4K,3,1,50.32496498346489,65.10807542859112,1.423802411142443,64.48329986405598,1,n,1.4063129999999546,incorrect,c
3,4F4K,4,1,52.46520341251073,69.23521297199437,1.4885999600801494,67.37531515743173,1,n,1.0732914999998684,incorrect,c
4,4F4K,5,2,65.73906230138357,50.867698821295534,1.96179170336472,53.02180399162872,1,b,1.2856037999999899,incorrect,v
5,4F4K,6,1,45.06477631366934,49.78753971004824,1.2762785988812042,52.088855864114095,1,n,1.3219833000000563,incorrect,c
6,4F4K,7,2,48.93333512480928,34.5490330511486,1.3831906805385443,38.75281444670537,1,b,2.3369204999999056,incorrect,v
7,4F4K,8,2,46.94717246971116,40.32839094788522,1.327227030727519,43.78804614897186,1,v,1.0032493000001068,correct,v
8,4F4K,9,1,40.28597711706696,54.179750168229205,1.1555497018412544,55.842349962975256,1,c,1.0185655000000224,correct,c
9,4F4K,10,1,44.41874627535863,64.54578021922369,1.2592479551554567,64.07115474826644,1,c,1.4062871999999516,correct,c
10,4F4K,11,2,45.39749987469722,58.7165676328572,1.2851395230712577,59.575576358143216,2,b,3.300994899999978,correct,b
11,4F4K,12,2,50.23927241366336,57.402226890146736,1.4212675584652668,58.51228473039722,2,b,2.361216000000013,correct,b
12,4F4K,13,1,63.1923811776086,46.04010384121472,1.8606045184197384,48.81751895446854,2,c,1.4737327000000278,incorrect,n
13,4F4K,14,1,51.01716453674858,62.910204208179664,1.4444446641141864,62.84949256876156,1,n,2.628263099999913,incorrect,c
14,4F4K,15,2,49.60386905415002,31.784132942047464,1.4026120928651655,36.398392026676014,1,v,1.348208300000124,correct,v
15,4F4K,16,1,52.55844579988764,42.55895041865704,1.4914890376518075,45.75246796881652,2,n,2.9984589000000597,correct,n
16,4F4K,17,1,65.92261131629495,52.87946105216199,1.9692937668902304,54.74306507298619,2,n,2.0745656999999937,correct,n
17,4F4K,18,1,54.120443851932926,39.867124849356856,1.540729200906625,43.38258223893363,2,c,2.974940300000071,incorrect,n
18,4F4K,19,2,52.52565978354824,36.25057939658974,1.490472537618476,40.22249243537185,1,v,2.690331600000036,correct,v
19,4F4K,20,1,59.530524564606665,42.95444365557129,1.7241863830510198,46.10107420418727,2,c,1.7033997000000909,incorrect,n
20,4F4K,21,2,53.34358144163058,46.118599740506426,1.5160396053153593,48.88645000455839,1,v,2.160885300000018,correct,v
21,4F4K,22,2,60.83324412789607,71.7927822676784,1.7715317520547034,69.04035809977839,2,v,2.1972829999999703,incorrect,b
22,4F4K,23,2,63.77048550643048,52.41812519902189,1.883106461646964,54.35041743605323,1,v,1.2315977999999177,correct,v
23,4F4K,24,1,44.15114435550964,52.52752014568812,1.2522601721181104,54.44364258191745,1,n,1.9111484000000019,incorrect,c
24,4F4K,25,2,59.091698885966814,43.8860442368272,1.7085245362624657,46.92212181225682,1,v,0.7576321999999891,correct,v
25,4F4K,26,1,39.22285230351187,51.97936232582872,1.13028419835421,53.97579362202965,1,n,1.6011583999998038,incorrect,c
26,4F4K,27,1,48.5531366436817,61.39334294454089,1.372298282298512,61.68766520318118,1,c,5.0,incorrect,c
27,4F4K,28,2,56.53822286177608,69.20789045401814,1.620171669659099,67.35698074097887,2,b,2.5554376999998567,correct,b
28,4F4K,29,1,50.66972820075271,33.012042958278336,1.4340465405445602,37.43822828839669,2,c,1.7056046000000151,incorrect,n
29,4F4K,30,1,38.94274281973989,49.52175248710478,1.1237197538886965,51.85847706341696,1,c,1.431288400000085,correct,c
30,4F4K,31,2,57.46133655123729,48.50512640426704,1.6515722650150624,50.9746381564654,1,b,1.4737448999999287,incorrect,v
31,4F4K,32,1,63.44755804892815,53.952618481622565,1.870503598630039,55.65115501581245,2,n,1.4312913000001117,correct,n
32,4F4K,33,2,38.91088553579275,53.41011688609443,1.1229755882111625,55.19305108833765,2,v,1.4434112999999797,incorrect,b
33,4F4K,34,1,57.045247858066986,45.63776579469114,1.6373439740340734,48.46401715426016,2,n,1.5101435999999921,correct,n
34,4F4K,35,1,44.63204070873086,65.03882817005832,1.2648455436419006,64.4327667953171,1,c,1.589095499999985,correct,c
35,4F4K,36,2,49.0071220435652,61.91345082452174,1.3853146162582568,62.08904359130206,2,b,2.3612298000000465,correct,b
36,4F4K,37,1,57.1522502638186,73.82551409538787,1.640991206434224,70.28853153285728,1,n,0.9546370000000479,incorrect,c
37,4F4K,38,2,39.6424493817977,49.09261349626035,1.140189389814752,51.485884214460725,2,b,1.2309933000001365,correct,b
38,4F4K,39,1,69.71061495882046,54.02466717815298,2.130686665322245,55.71184332215438,2,n,0.8188864000001104,correct,n
39,4F4K,40,2,63.70657551219617,47.49102235391933,1.880605530028005,50.08930259005507,1,v,1.637574000000086,correct,v
40,4F4K,41,1,31.19791254251733,44.766557700648896,0.9565666350645836,47.69763050793784,1,c,3.3623640000000705,correct,c
41,4F4K,42,2,42.77133487412776,54.46449231537578,1.2168404748247243,56.08152321855415,2,v,2.477189400000043,incorrect,b
42,4F4K,43,2,38.83279015648087,52.0449364993946,1.121153414478594,54.03185360255894,2,b,1.4073733000000175,correct,b
43,4F4K,44,2,60.21009318461668,77.82489752766895,1.7487242278251305,72.5371068030393,2,v,3.4960994999999,incorrect,b
44,4F4K,45,2,44.39537293346118,30.72217610680357,1.2586360653113593,35.507478448758256,1,v,1.7832623000001604,correct,v
45,4F4K,46,2,56.39278304203549,70.84288365093127,1.6152791281779582,68.43394821321692,2,b,3.518919300000107,correct,b
46,4F4K,47,1,61.68552046925748,49.03002033783129,1.803207741110648,51.43147675018513,2,c,3.0530625999999756,incorrect,n
47,4F4K,48,2,38.92556995925501,43.69962164166998,1.123318545659806,46.75785101555171,2,b,2.7874583000000257,correct,b
48,4F4K,49,2,59.23415225649777,38.047886746317126,1.713593090114208,41.787971021986735,1,v,2.2412606999998843,correct,v
49,4F4K,50,1,73.31856034805165,57.73899514163961,2.296691068240199,58.7862595233153,2,c,1.5475604999999177,incorrect,n
50,4F4K,51,1,48.44851775345328,66.59763589240012,1.3693161079613343,65.55474014485259,1,c,1.279518199999984,correct,c
51,4F4K,52,2,54.021713232767816,69.74878836224701,1.5375692586022986,67.71783327183279,2,b,3.3626151999999365,correct,b
52,4F4K,53,1,28.510734196785727,46.83168238008944,0.9045812678315296,49.51201889085306,1,c,1.1703282999999374,correct,c
53,4F4K,54,2,49.66550569947479,38.99243943538825,1.404410970552996,42.61487573070817,1,b,1.8985801999999694,incorrect,v
54,4F4K,55,1,32.15351343142159,47.09037970447826,0.9757648390886096,49.73866176175922,1,c,1.0428488999998535,correct,c
55,4F4K,56,2,52.617625585606575,73.51691708412554,1.4933256073751906,70.10347731372882,2,b,1.9046215999999276,correct,b
56,4F4K,57,2,58.09047725408012,68.8399789731578,1.6733211016225198,67.10900389675083,2,b,0.9354129000000739,correct,b
57,4F4K,58,1,48.10103156357504,61.23379284690919,1.3594574029905062,61.56392447242881,1,c,2.949914700000136,correct,c
58,4F4K,59,1,45.20204652197535,32.428181521159914,1.2799268815456712,36.94256205168582,2,n,2.581523500000003,correct,n
59,4F4K,60,1,29.53679381588181,46.722118541121766,0.9240890663130552,49.41597918374296,1,n,2.2398011000000224,incorrect,c
60,4F4K,61,1,36.19046840020253,56.71601603269952,1.0612128514230463,57.95089286690936,1,c,2.239842700000054,correct,c
61,4F4K,62,1,34.93331693632241,52.45292924391213,1.0338303837466285,54.38008489593134,1,c,1.4814919000000373,correct,c
62,4F4K,63,2,35.77404893365012,56.509389331597205,1.0520632689633715,57.78104983948041,2,v,3.93161780000014,incorrect,b
63,4F4K,64,2,43.9946017207548,29.897713059930048,1.2481904265926231,34.821656750318134,1,b,0.9699986000000536,incorrect,v
64,4F4K,65,2,37.21396695330801,51.068179166330815,1.0840407641059084,53.19433568719079,2,v,1.9167924999997012,incorrect,b
65,4F4K,66,1,32.86578927564642,50.2570046447802,0.9903248034571877,52.49501397393809,1,c,1.5760993999997481,correct,c
66,4F4K,67,1,51.84863071317491,36.994627074013,1.4696360502639276,40.86913667282512,2,n,5.0,correct,n
67,4F4K,68,2,59.51723199185033,40.96426935741496,1.7237098643467814,44.34754710637583,1,b,3.384714400000121,incorrect,v
68,4F4K,69,2,37.179091967524606,45.0318287442984,1.083254897378071,47.93110194028306,2,v,3.609279599999809,incorrect,b
69,4F4K,70,2,42.27293447679085,55.50339258836394,1.204294333243804,56.94907100710435,2,v,0.7819022999997287,incorrect,b
70,4F4K,71,2,47.353968334180266,42.7298614881874,1.338501773027322,45.90311564086458,1,b,0.854716400000143,incorrect,v
71,4F4K,72,1,52.07642958091809,42.172590287125125,1.4766141487402844,45.41194048532477,2,c,1.59508360000018,incorrect,n
72,4F4K,73,1,46.79657571833343,26.4442075654591,1.3230772256022914,32.01221581042584,2,c,1.5033723999999893,incorrect,n
73,4F4K,74,1,55.07618540998845,44.39061772062402,1.5716560909739905,47.36661293787771,2,c,1.2910406000000876,incorrect,n
74,4F4K,75,2,40.764036955680034,28.32090210410569,1.1670942795037311,33.52553980260095,1,b,3.561453700000129,incorrect,v
75,4F4K,76,1,43.33768685382204,52.17345482380945,1.231255872556166,54.14165282937955,1,c,0.8850785999998152,correct,c
76,4F4K,77,1,64.4235864603984,51.93490939379026,1.9088551013157309,53.937776332942086,2,n,3.2047496000000137,correct,n
77,4F4K,78,1,41.82804731726011,27.05344337016665,1.1932045792361934,32.499788816655894,2,n,3.435418000000027,correct,n
78,4F4K,79,1,32.0375564589039,45.01044771814485,0.973414853193179,47.91228743657192,1,c,2.0199649999999565,correct,c
79,4F4K,80,1,68.38027325839211,54.36252020890679,2.072551854312552,55.99593716309586,2,n,2.3177064000001337,correct,n
80,4F4K,81,2,41.682666857066295,30.119280862712387,1.189602847408669,35.00544126954159,1,v,5.0,correct,v
81,4F4K,82,1,44.86276898667994,32.31038336166993,1.2709286763913823,36.842824373658935,2,c,2.287667699999929,incorrect,n
82,4F4K,83,1,69.15890125904019,56.707988034762415,2.106381911978336,57.94430082644855,2,n,1.2019545000002836,correct,n
83,4F4K,84,2,45.85291181847569,53.73063024900016,1.297367635549486,55.46394340863353,2,v,3.7738651999998183,incorrect,b
84,4F4K,85,2,67.48812802455996,50.66962072382357,2.0344570741817574,52.85113998418345,1,b,3.344224100000247,incorrect,v
85,4F4K,86,1,37.623421217514114,60.86247409580438,1.0933100848424258,61.27484975943481,1,c,1.2870458000002145,correct,c
86,4F4K,87,1,49.91616957346165,43.90755426778533,1.4117504461062345,46.94107451069123,2,c,3.301913499999955,incorrect,n
87,4F4K,88,1,60.80243090807351,75.28139844231464,1.7703970192490974,71.1396083435585,1,n,3.084134400000039,incorrect,c
88,4F4K,89,1,58.1562935050978,65.66556215779264,1.6756127942527796,64.88780964288318,1,n,3.194102600000406,incorrect,c
89,4F4K,90,1,35.87372956392195,51.5850819960986,1.054246247822968,53.6382050303013,1,n,1.3402470999999423,incorrect,c
90,4F4K,91,1,53.74051874600511,38.10783875873837,1.5286049024299555,41.84038037386106,2,n,1.371430899999723,correct,n
91,4F4K,92,2,49.38604331567863,31.01385884080769,1.39627324571329,35.75136146494809,1,v,1.9774085999997624,correct,v
92,4F4K,93,1,42.35673802328298,56.7287118400211,1.20639482132817,57.961316661744526,1,c,2.878354699999818,correct,c
93,4F4K,94,1,64.50561416958008,57.76620033732769,1.912113848780952,58.80834689482976,2,n,3.5924282999999377,correct,n
94,4F4K,95,2,44.45697787249126,57.01483870517695,1.2602494600024583,58.1958691297114,2,v,3.5082487999998193,incorrect,b
95,4F4K,96,2,72.78821190569796,57.14412937402098,2.271501656005345,58.30162061572315,1,b,0.9632141000001866,incorrect,v
96,4F4K,97,2,71.37940526361064,59.00291529260205,2.205922579283165,59.80504140745983,1,v,1.242163100000198,correct,v
97,4F4K,98,1,43.22214400296963,27.386203361330235,1.2283011515066995,32.76762775413558,2,c,1.9289286000002903,incorrect,n
98,4F4K,99,2,47.70768143473838,59.58643529346646,1.3483830930422684,60.270117749217086,2,v,3.234329699999762,incorrect,b
99,4F4K,100,2,35.41139704476789,50.56157608488635,1.0441593585260611,52.75796684771412,2,b,2.7024955000001682,correct,b
100,4F4K,101,2,68.5465545175721,52.89236659023194,2.0797305654235383,54.75403012310967,1,v,0.8789575000000696,correct,v
101,4F4K,102,1,37.36184727886295,49.56175977015477,1.087379412196273,51.89317388564387,1,c,2.543288500000017,correct,c
102,4F4K,103,1,43.15287631753604,33.13661064027215,1.2265332033991376,37.54425650476293,2,c,1.9566399999998794,incorrect,n
103,4F4K,104,1,62.71885709884509,45.5220353505862,1.8423736886817093,48.36227932501153,2,n,2.0031662999999753,correct,n
104,4F4K,105,2,62.64697590973336,50.18957271852811,1.8396218995190017,52.436737074763066,1,b,2.2397925000000214,incorrect,v
105,4F4K,106,1,54.13278451672354,66.09175036393835,1.5411246288081517,65.19423543063013,1,n,4.442833199999768,incorrect,c
106,4F4K,107,2,43.63449947784488,49.32908349883734,1.238878739353713,51.69128857065216,2,v,1.2127823999999237,incorrect,b
107,4F4K,108,1,69.04460534448674,58.98057826745281,2.1013815833893954,59.78717064041832,2,n,1.0368063000000802,correct,n
108,4F4K,109,2,71.9732774972806,58.67487055135624,2.2333329154726917,59.54209539812567,1,b,3.010547299999871,incorrect,v
109,4F4K,110,1,62.737293083117336,52.65901915772888,1.8430801266240733,54.555608192989865,2,n,1.5237232999998014,correct,n
110,4F4K,111,1,47.33318795273399,65.71487062245794,1.337923510097312,64.92338770507989,1,n,4.131887099999858,incorrect,c
111,4F4K,112,2,56.64256670726304,43.3013020158095,1.6236908849207097,46.40680473232103,1,b,3.399003999999877,incorrect,v
112,4F4K,113,2,52.895832269516966,38.73229367145057,1.501989750578829,42.386890826804745,1,v,1.4312355000001844,correct,v
113,4F4K,114,1,35.71326197959522,23.448848307969392,1.0507342704213585,29.671700353583088,2,c,0.9690741000003982,incorrect,n
114,4F4K,115,1,38.931552672106925,24.72227131268942,1.123458303061716,30.654745809205075,2,c,4.277099600000383,incorrect,n
115,4F4K,116,2,37.19048068067003,46.25457230471544,1.083511465950261,49.00582366308116,2,v,2.191253599999982,incorrect,b
116,4F4K,117,2,58.43909089755403,48.18849397045705,1.6854954431757607,50.698575719020354,1,v,0.8075571999997919,correct,v
117,4F4K,118,2,49.96188797786648,27.348497487877427,1.4130932177761142,32.73722489043785,1,b,3.663952800000061,incorrect,v
118,4F4K,119,1,47.9683233563816,38.31743780270892,1.355711030097018,42.02369374634069,2,c,3.3494746999999734,incorrect,n
119,4F4K,120,2,31.018513659030432,39.736835954566914,0.9530048159076124,43.268125820807285,2,b,2.682679999999891,correct,b
120,4F4K,121,1,45.71147667550461,26.213622041656038,1.293557603556324,31.82864442063767,2,n,2.828295700000126,correct,n
121,4F4K,122,2,60.20124906127996,76.68215314647956,1.748402652365777,71.92353605250608,2,v,3.0842491999997037,incorrect,b
122,4F4K,123,2,37.55920417191855,47.17378204232901,1.0918511010931042,49.81169209506029,2,b,1.1156796999998733,correct,b
123,4F4K,124,2,38.39338916497777,48.81688853003665,1.1109559967588616,51.24610348106263,2,b,2.3794905999998264,correct,b
124,4F4K,125,1,49.1975365238624,34.64402123112608,1.3908107234553575,38.83448702827474,2,c,2.90884079999978,incorrect,n
125,4F4K,126,1,46.30138003298917,35.738432109355905,1.3095230018987964,39.77872066233251,2,n,1.5110437000003003,correct,n
126,4F4K,127,1,18.82748944481149,36.82033610233391,0.7396038723190786,40.71746805949867,1,n,2.9079821000000265,incorrect,c
127,4F4K,128,1,40.275918927570274,56.75304548771713,1.1553080390748915,57.98129174170927,1,n,3.39192950000006,incorrect,c
128,4F4K,129,2,72.38137499828272,62.9370037893198,2.25236595567069,62.86977584236665,1,b,1.3961169999997765,incorrect,v
129,4F4K,130,1,56.26657134562832,38.40135575784415,1.6110453887683394,42.097123456483615,2,n,2.9565090000000964,correct,n
130,4F4K,131,2,42.173380540012445,57.1267102399092,1.2018038229344077,58.28738146418904,2,b,2.3126633000001675,correct,b
131,4F4K,132,2,44.01093373015711,56.97953517061887,1.2486144022603098,58.16696758491368,2,b,1.4312458000003971,correct,b
132,4F4K,133,1,35.18778881612599,51.753514818305085,1.039315494071512,53.78252651069882,1,c,4.010439799999858,correct,c
133,4F4K,134,1,58.71707968948056,40.34891403839008,1.695266857620238,43.80609485599827,2,c,1.8016357000001335,incorrect,n
134,4F4K,135,2,64.12570227691378,45.56508385709431,1.897067573343695,48.40012567444102,1,v,2.154828099999577,correct,v
135,4F4K,136,2,46.61322600215107,62.36380859011497,1.3180423991149888,62.43408136642212,2,b,1.256666999999652,correct,b
136,4F4K,137,2,46.76521680290437,29.963584188010696,1.3222147409976943,34.87625403342946,1,b,1.2117934000002606,incorrect,v
137,4F4K,138,1,63.477845105633385,44.9883226906332,1.871682015907603,47.89281757960714,2,c,1.9471310999997513,incorrect,n
138,4F4K,139,2,72.15048602759694,54.53855289837316,2.241577812352223,56.143635643497184,1,v,2.3733557000000474,correct,v
139,4F4K,140,1,45.98702381666342,59.60072371019031,1.3009907589460168,60.28146263089683,1,c,3.1441429999999855,correct,c
140,4F4K,141,1,48.50498412082007,69.09405330625042,1.370924882847547,67.28047054609834,1,c,0.9034676999999647,correct,c
141,4F4K,142,1,50.07375158748541,28.654735104570783,1.4163840941611872,33.79815909091161,2,n,1.3707916999996996,correct,n
142,4F4K,143,2,55.80941856802578,40.008562892398736,1.5958029928004664,43.50686950108133,1,v,2.5614783999999418,correct,v
143,4F4K,144,1,61.88275916021585,50.29046241222259,1.8106187189777367,52.52392139784656,2,n,1.8512825000002522,correct,n
144,4F4K,145,1,54.24805280242076,68.2336683727854,1.5448230375174878,66.69594061297036,1,n,4.587104199999885,incorrect,c
145,4F4K,146,2,45.69623022536897,56.65269864469889,1.2931475577412774,57.898885966988935,2,b,2.116247200000089,correct,b
146,4F4K,147,1,41.9187809524862,52.552963519619865,1.1954579865830868,54.46531473946871,1,c,1.9924060999996982,correct,c
147,4F4K,148,1,40.92191982822319,23.48946587312272,1.1709322424967794,29.70276889358449,2,c,1.7800179999999273,incorrect,n
148,4F4K,149,1,31.67524664016548,46.17164171266605,0.9661086823448138,48.93302150843557,1,c,1.3766366999998354,correct,c
149,4F4K,150,1,45.86599588808173,28.46115336252673,1.2977206656230071,33.63995300345856,2,c,2.3236848999999893,incorrect,n
150,4F4K,151,2,60.14944694685305,73.39082979817168,1.7465202963321285,70.02740500325307,2,v,1.5054227000000537,incorrect,b
151,4F4K,152,2,31.8647856399727,47.66088885121678,0.9699239711686336,50.2378287763004,2,v,1.710464100000081,incorrect,b
152,4F4K,153,1,53.97886248858632,34.879185723939074,1.536199808238483,39.03688586995688,2,n,1.0542531999999483,correct,n
153,4F4K,154,1,42.13236861715076,57.71011438507342,1.2007793387586312,58.762804358999695,1,c,3.5628845000001093,correct,c
154,4F4K,155,2,75.45059030588803,53.48236707596605,2.400804135524,55.254175756796926,1,b,4.313932999999906,incorrect,v
155,4F4K,156,2,46.728406580029656,51.8327925394703,1.321203042853606,53.85040068408015,2,b,1.6679211999999097,correct,b
156,4F4K,157,2,53.46720678474527,66.90733139020304,1.519941927441756,65.77368400728504,2,v,1.4980288000001565,incorrect,b
157,4F4K,158,2,56.18282484692449,44.83832140558429,1.608242259973346,47.76080041244828,1,v,1.3760379000000285,correct,v
158,4F4K,159,2,50.031926430933375,61.94184671841746,1.4151527584181491,62.11086834713316,2,b,3.6524254000000838,correct,b
159,4F4K,160,1,46.03056544261037,57.806421065087925,1.3021692388875492,58.84098884782417,1,c,5.0,correct,c
160,4F4K,161,2,40.54003928031632,47.884366689914685,1.1616707112530693,50.43309652529843,2,b,4.009872300000097,correct,b
161,4F4K,162,2,47.106884026276376,32.01386095058654,1.3316422232481466,36.59217244889665,1,b,2.439993500000128,incorrect,v
162,4F4K,163,2,55.76137942307115,33.5984377206909,1.594209667840671,37.93816775445036,1,v,2.0747912000001634,correct,v
163,4F4K,164,1,45.823982434377086,63.753356779049575,1.296587413282628,63.483436057525736,1,c,2.9681546000001617,correct,c
164,4F4K,165,1,61.25837582374065,52.28594919414192,1.7872621683765768,54.23768260350344,2,n,3.265476900000067,correct,n
165,4F4K,166,1,32.1221656973509,50.27409133546758,0.9751289864280304,52.5097774860062,1,c,1.643668599999728,correct,c
166,4F4K,167,1,61.9014530930799,49.13628140486468,1.8113226965359264,51.52383224242506,2,n,3.76818430000003,correct,n
167,4F4K,168,1,63.30806669906313,42.28600038754886,1.865085800401473,45.51189200547786,2,n,1.4615746000004037,correct,n
168,4F4K,169,1,33.93510422220513,52.78327345305958,1.012592094961641,54.66130738588049,1,c,1.6982554000001073,correct,c
169,4F4K,170,1,44.06815152278442,32.703148340024626,1.2501009009984847,37.17572330199588,2,c,1.0609316000000035,incorrect,n
170,4F4K,171,1,49.22028279249187,55.6073865607,1.391468726076713,57.0354556473652,1,n,2.6525244999997994,incorrect,c
171,4F4K,172,2,45.9820766973993,55.608878519256606,1.3008569297189791,57.03669434918598,2,b,3.9378921000002265,correct,b
172,4F4K,173,1,47.27839689704346,35.75134854074305,1.3364000177166315,39.78989848543171,2,n,2.452231099999608,correct,n
173,4F4K,174,1,45.906112083665626,63.84021276959157,1.2988036665582938,63.548241859287,1,c,2.706362800000079,correct,c
174,4F4K,175,2,77.23786350281583,61.37931880392921,2.491709544669477,61.676800064473895,1,v,3.272264200000336,correct,v
175,4F4K,176,1,49.69458946571855,34.4814604183959,1.4052605869930068,38.69474301605329,2,c,2.8761108000003333,incorrect,n
176,4F4K,177,1,62.99873095366835,44.25504895986865,1.8531272208193064,47.24720813508118,2,c,3.6721474000000853,incorrect,n
177,4F4K,178,1,48.02403942719765,26.64026885362913,1.3572826442617398,32.168722993852214,2,n,2.495433700000376,correct,n
178,4F4K,179,2,50.17577277873352,66.85955720218261,1.4193921015594364,65.7399968781824,2,b,1.7132707000000664,correct,b
179,4F4K,180,1,40.73927163574776,53.974635033402045,1.1664934036154044,55.66970390975733,1,c,3.7677800999999818,correct,c
180,4F4K,181,1,44.692664489697705,52.12116234728774,1.266441059047725,54.0969885279101,1,c,3.1076702000000296,correct,c
181,4F4K,182,1,47.64606488678289,39.24707558391607,1.3466565429584063,42.838193290134,2,n,2.324877099999867,correct,n
182,4F4K,183,2,32.77153903739237,53.44788913381623,0.988385787798848,55.22501126053937,2,v,1.6646892999997362,incorrect,b
183,4F4K,184,2,54.83708190819106,65.07456852222514,1.563861183582831,64.45885613275041,2,v,1.5586781000001793,incorrect,b
184,4F4K,185,1,76.51153893246918,61.2525229976582,2.454358795853044,61.57846557500319,2,n,2.433955800000149,correct,n
185,4F4K,186,2,26.651624795034543,44.11692547215656,0.8702783090413209,47.1255363851352,2,b,4.242644699999801,correct,b
186,4F4K,187,1,47.90940207652999,64.08216118217894,1.354050984610956,63.72826730977502,1,n,3.7738642999997865,incorrect,c
187,4F4K,188,1,48.0975815754362,44.752709898752,1.3593598783532566,47.685440270857846,2,c,0.933590500000264,incorrect,n
188,4F4K,189,1,65.24712885783721,77.06914063789236,1.9418259109877605,72.13395893600834,1,n,1.4496472999999241,incorrect,c
189,4F4K,190,2,66.48721374296741,53.61835978218997,1.99255067038662,55.369132972943405,1,v,4.046894099999918,correct,v
190,4F4K,191,1,38.22760731563899,44.35046662616897,1.107132751235203,47.33125088618505,1,c,3.0773638999999093,correct,c
191,4F4K,192,2,56.77475241172648,61.87119780504669,1.6281601032675384,62.05655122974319,2,b,2.7145878999999695,correct,b
192,4F4K,193,2,55.1134794491754,33.12637721378252,1.5728753951713543,37.53554253290811,1,v,2.998498599999948,correct,v
193,4F4K,194,2,36.94335649315217,55.776182272398586,1.0779577957924025,57.17548611446458,2,b,3.2890244999998686,correct,b
194,4F4K,195,1,52.80346765631976,72.12161208095189,1.4991076953451516,69.24689438928198,1,n,2.5008066999998846,incorrect,c
195,4F4K,196,2,58.9956633861358,46.00106242195609,1.7051160137588472,48.78323012771087,1,v,1.5372380999997404,correct,v
196,4F4K,197,1,66.82877595430469,57.64310642463472,2.0067533119438608,58.708355211865175,2,c,2.773127999999815,incorrect,n
197,4F4K,198,2,53.77015746782546,37.58670232912535,1.5295473024214217,41.38518615808768,1,v,2.336811099999977,correct,v
198,4F4K,199,1,54.76860207576167,40.60477788986298,1.561635833078472,44.03116496912613,2,n,3.361172599999918,correct,n
199,4F4K,200,1,35.40170358891925,45.912665094796985,1.0439489087984235,48.7055823800517,1,c,1.7459647999999106,correct,c
200,4F4K,201,2,51.751174152804765,31.89639796432312,1.466660771887705,36.49304468529937,1,v,4.532240300000012,correct,v
201,4F4K,202,1,47.844091191478896,31.983697097529895,1.352213293868629,36.56670799665071,2,n,2.4218729000003805,correct,n
202,4F4K,203,1,69.10428022284623,52.36678907405834,2.1039908152127644,54.306644509600055,2,n,2.4233382000002166,correct,n
203,4F4K,204,1,34.524633743780115,50.677443811843176,1.0250817808687471,52.857884057868944,1,c,2.440129699999943,correct,c
204,4F4K,205,2,48.46886157905576,60.0014974673875,1.3698955031997109,60.5988157173698,2,v,2.2762423999997736,incorrect,b
205,4F4K,206,1,59.323372842803074,40.50088245545647,1.716775253132337,43.93976163885288,2,n,2.0685034000002815,correct,n
206,4F4K,207,1,23.71865678841689,44.67183639253887,0.8187867740483206,47.61424265398307,1,c,2.021349099999952,correct,c
207,4F4K,208,2,69.9159857740515,52.44051101511142,2.139805360587192,54.369500259569314,1,v,1.8681572000000415,correct,v
208,4F4K,209,2,43.20498707328569,22.034024171619365,1.2278630107266078,28.60179403515025,1,b,3.090858600000047,incorrect,v
209,4F4K,210,2,28.78732141731117,48.3159315903284,0.9097989296889398,50.80972671552843,2,v,2.549302799999623,incorrect,b
210,4F4K,211,2,37.21931660704858,49.9817478403486,1.084161362676055,52.25699616202594,2,v,2.1925019999998767,incorrect,b
211,4F4K,212,2,70.32773843993895,59.60725698497373,2.1582053673132178,60.286649299114,1,b,1.1703606999999465,incorrect,v
212,4F4K,213,2,46.75494814834783,55.82467684099854,1.321932437741264,57.21567428700942,2,b,3.211043199999949,correct,b
213,4F4K,214,1,43.3550260711567,59.71338115319824,1.2316998928476584,60.370838314508006,1,n,2.9666464000001724,incorrect,c
214,4F4K,215,2,60.88700917337871,48.59812915726499,1.773513454613309,51.055657149631735,1,v,1.8196686000001137,correct,v
215,4F4K,216,2,58.56609015644278,45.90586007869416,1.6899525092266,48.69960425421756,1,v,1.9896064999998089,correct,v
216,4F4K,217,1,49.70388257798096,58.10970800994381,1.405532172586353,59.08664453527192,1,c,1.2977179999998043,correct,c
217,4F4K,218,1,44.62743410039428,58.28093713715453,1.2647243877053247,59.22495561339089,1,c,1.1937874999998712,correct,c
218,4F4K,219,1,49.19591747726246,38.98912769925016,1.3907638996415097,42.61197234353359,2,c,1.6865305999999691,incorrect,n
219,4F4K,220,1,51.12909974421172,37.69519802673936,1.4478107087374867,41.479881387253705,2,n,1.0792908999997053,correct,n
220,4F4K,221,1,58.82524099496367,73.87468235974582,1.699084060092205,70.3178670099765,1,c,1.498031699999956,correct,c
221,4F4K,222,1,35.54105717642356,52.61877062215291,1.0469784266096795,54.52134958795506,1,c,2.0442477000001418,correct,c
222,4F4K,223,1,60.674650568685095,46.70662247061591,1.7656991106308322,49.402393487019744,2,n,2.562293299999965,correct,n
223,4F4K,224,1,57.982498524198895,42.6286243020127,1.6695681174146029,45.81388075283335,2,c,2.543341000000055,incorrect,n
224,4F4K,225,2,72.75952068052818,61.25615580317465,2.2701468431151777,61.58128544087666,1,v,2.6403691000000435,correct,v
225,4F4K,226,1,67.40928375043836,50.94041399876074,2.0311242727653744,53.08440581750001,2,n,2.512924000000112,correct,n
226,4F4K,227,2,43.7027741710644,57.79958984307024,1.2406388647147577,58.83544588081295,2,b,3.0288620999999694,correct,b
227,4F4K,228,2,39.0908311943933,54.76625182042799,1.127185482526098,56.33434819916148,2,b,1.315102499999739,correct,b
228,4F4K,229,1,49.59913329845847,67.20452653179737,1.4024739742546442,65.98252368133485,1,c,1.4191422999997485,correct,c
229,4F4K,230,2,51.86402869838908,29.69552967938897,1.4701066914625267,34.6542962065556,1,v,2.4401245000003655,correct,v
230,4F4K,231,2,75.02549141781581,60.01698748066431,2.3796753119622145,60.61104798833795,1,b,1.94994829999996,incorrect,v
231,4F4K,232,2,34.7600344785059,47.66280395307911,1.0301118785438803,50.23950278806596,2,v,2.8354653000001235,incorrect,b
232,4F4K,233,2,48.14332321645409,34.38395317360666,1.3606534767390477,38.610988571937646,1,b,1.4211291000001438,incorrect,v
233,4F4K,234,2,50.14571204516329,35.193344779576634,1.4185051233639507,39.30770617332201,1,v,1.9289304999997512,correct,v
234,4F4K,235,1,46.310378546365165,58.078901231625046,1.3097680612314735,59.06173089894399,1,c,2.1791329000002406,correct,c
235,4F4K,236,1,29.229263361697488,51.21049977324337,0.9181984494160452,53.31668948668238,1,c,1.3280964000000495,correct,c
236,4F4K,237,1,48.52350496230558,62.17295399328971,1.371452968930387,62.2881479670626,1,c,2.3855014999999185,correct,c
237,4F4K,238,1,49.22055406976993,57.05497548444045,1.3914765754468672,58.2287141829245,1,c,1.3583935000001475,correct,c
238,4F4K,239,2,36.19013154202933,50.78526660084143,1.0612054178984198,52.95080425598955,2,b,3.07729130000007,correct,b
239,4F4K,240,2,46.673409043589984,58.80766198227688,1.3196929237479431,59.64866221030313,2,b,3.6235695999998825,correct,b
240,4F4K,241,2,46.886923434363965,37.8140079908052,1.325565264193603,41.58362314338561,1,v,2.367097299999841,correct,v
241,4F4K,242,2,49.74896656625116,59.19704252614725,1.4068504700767408,59.96014435660711,2,b,5.0,correct,b
242,4F4K,243,2,48.11951209961532,67.45861201600539,1.359979931913467,66.16007669644438,2,b,2.4698130000001584,correct,b
243,4F4K,244,1,47.94968802358293,36.49486581659716,1.3551857791379558,40.43455647721793,2,c,2.373226799999884,incorrect,n
244,4F4K,245,2,53.47792578351941,38.41484137324624,1.520280753133891,42.10892548016552,1,b,5.0,incorrect,v
245,4F4K,246,2,57.10179345070373,71.68200375547157,1.6392703486883384,68.97038366732255,2,v,2.8961607999999615,incorrect,b
246,4F4K,247,1,73.56867024284776,64.95130994958434,2.3086670194751995,64.36881042769024,2,n,3.473249300000134,correct,n
247,4F4K,248,2,52.40850271902045,66.08218648161113,1.486845849025913,65.18738614498201,2,v,2.5797162999997454,incorrect,b
248,4F4K,249,2,46.16318042788147,66.50225247379076,1.3057651231323049,65.48703817711993,2,b,1.2795372000000498,correct,b
249,4F4K,250,2,42.62335845912976,53.68949511388034,1.2131019105170235,55.42921543143488,2,v,3.6463976000000002,incorrect,b
250,4F4K,251,2,51.07145890690513,47.72637471210538,1.4460763915308117,50.29506431308468,1,v,3.773798100000022,correct,v
251,4F4K,252,2,41.56763790050887,62.48874293816917,1.186760765519722,62.52937846056658,2,b,1.0003589000002648,correct,b
252,4F4K,253,1,55.58896945208799,47.683980367223725,1.5885043971187225,50.25801257915432,2,c,3.131937800000287,incorrect,n
253,4F4K,254,1,54.26429143619438,35.042339276597815,1.545344770469712,39.17747128442709,2,n,2.7132047000000057,correct,n
254,4F4K,255,1,46.76231552763095,26.539712424695708,1.3221349737611483,32.08840515248344,2,n,2.015153299999838,correct,n
255,4F4K,256,1,34.39987576379157,46.19494513188858,1.0224258892517069,48.95348032684628,1,n,2.0492935999996007,incorrect,c
256,4F4K,257,2,40.22521265743874,46.504222359284704,1.154090515903306,49.22489239303702,2,v,4.599225299999944,incorrect,b
257,4F4K,258,2,60.85785131830919,50.09516412019144,1.7724384628860612,52.35511066533102,1,v,2.725393499999882,correct,v
258,4F4K,259,1,30.595735779904054,45.33443351510786,0.9446632721355294,48.19731202081213,1,c,3.7644131000001835,correct,c
259,4F4K,260,2,47.18422729687906,64.52432733351053,1.3337856373933838,64.05534917098686,2,b,1.2431279000002178,correct,b
260,4F4K,261,1,54.07485793261692,44.33979555327856,1.5392693855690434,47.321852351441336,2,n,3.4968284999999923,correct,n
261,4F4K,262,2,18.679250949745786,34.71979258716337,0.7373275293422548,38.89967018972696,2,b,2.525079900000037,correct,b
262,4F4K,263,1,42.37917572642137,25.227059850957158,1.206957831055091,31.049433149663933,2,c,3.0702424999999494,incorrect,n
263,4F4K,264,1,64.982857664869,52.2673864988853,1.9311841359000363,54.22184187949053,2,n,2.464366499999869,correct,n
264,4F4K,265,2,62.72511647595443,46.61055453162544,1.842613507810004,49.31815589027479,1,b,2.7800051999997777,incorrect,v
265,4F4K,266,1,65.12108569596792,52.703789490192406,1.9367430611505396,54.59370391888553,2,n,1.529620100000102,correct,n
266,4F4K,267,1,49.7358336145535,63.69679660970746,1.4064663228494172,63.44118420857807,1,c,2.007818700000371,correct,c
267,4F4K,268,1,59.19341946707649,46.82041067205868,1.7121422663649977,49.50213990409098,2,c,1.6402993000001516,incorrect,n
268,4F4K,269,1,34.790258521216515,40.00143325217844,1.0307594983876638,43.50060351809929,1,c,2.8951857000001837,correct,c
269,4F4K,270,1,62.928913673842416,48.911275411384274,1.850438785098902,51.32821883813094,2,n,2.829319299999952,correct,n
270,4F4K,271,2,41.911214746502594,66.82958282091826,1.1952699141991312,65.71884462161731,2,b,2.270197299999836,correct,b
271,4F4K,272,1,38.45795888064554,56.686061335588654,1.1124486675730638,57.92629330892817,1,c,3.33225369999991,correct,c
272,4F4K,273,2,58.76506532872749,73.91507757796259,1.696959295616283,70.34193747052683,2,v,3.435357599999861,incorrect,b
273,4F4K,274,2,61.64677559603616,53.921509048429854,1.8017555232150104,55.62493965174751,1,v,2.9620217000001503,correct,v
274,4F4K,275,2,54.5576898781848,66.96084392438132,1.5548018143779558,65.8113793514397,2,b,1.9585363999999572,correct,b
275,4F4K,276,2,51.63630249530823,42.80234625436992,1.4631615564181382,45.96700743624147,1,v,1.9675569000000905,correct,v
276,4F4K,277,2,62.152810400837176,72.13638524930386,1.8208149548138264,69.25613201644435,2,v,5.0,correct,b
277,4F4K,278,1,67.79068622979753,46.8599720747844,2.0472972533767155,49.5368117223526,2,n,1.5578159000001506,correct,n
278,4F4K,279,1,29.56214777543693,39.48356755151131,0.9245763937130634,43.04573185204454,1,c,4.12594480000007,correct,c
279,4F4K,280,1,42.03477334066698,64.8356320352151,1.1983449041746426,64.28412176234009,1,c,2.074605199999951,correct,c
280,4F4K,281,1,52.25422634175744,32.81634650699792,1.4820835610725704,37.27185176362837,2,n,2.5018912000000455,correct,n
281,4F4K,282,1,61.34181134966094,44.40161868120373,1.7903657472690295,47.37630148003726,2,n,1.953175999999985,correct,n
282,4F4K,283,2,38.02797705762533,55.55455334438022,1.1025463539309008,56.99157938031265,2,b,2.1259273999999095,correct,b
283,4F4K,284,1,43.34627154532043,65.4426657513578,1.231475688144734,64.72657371636113,1,c,1.7846709000000374,correct,c
284,4F4K,285,2,58.61301323674734,68.88772363079713,1.691602264883206,67.1412990676429,2,v,4.350676099999873,incorrect,b
285,4F4K,286,1,25.03714544164085,38.457107339747466,0.8415461894822576,42.14591813318162,1,n,1.200616699999955,incorrect,c
286,4F4K,287,2,40.27968793534946,58.297337067650346,1.1553985890976513,59.2381881665663,2,b,4.5992614000001595,correct,b
287,4F4K,288,1,44.29048320048357,55.54179200302907,1.2558938198313951,56.98097818966121,1,c,2.500811899999917,correct,c
288,4F4K,289,2,31.527363642503744,50.67648784773719,0.96314232574067,52.857059963143726,2,v,2.4692770999999993,incorrect,b
289,4F4K,290,2,25.714167081613983,41.74030726075614,0.8534774922895888,45.03101669437309,2,b,3.837377700000161,correct,b
290,4F4K,291,1,46.22630563956589,35.82344078394374,1.307480263614457,39.85230053386245,2,n,1.924114500000087,correct,n
291,4F4K,292,2,68.6309619022567,47.89961827314126,2.083384118556154,50.44641713707161,1,v,3.7071037000000615,correct,v
292,4F4K,293,1,58.80192161467936,72.3803212679863,1.6982603520751989,69.40814841790336,1,c,4.725884599999972,correct,c
293,4F4K,294,1,35.6118350291057,49.261957339154655,1.0485204872924383,51.633003879718544,1,c,2.713212900000144,correct,c
294,4F4K,295,2,40.31697484534088,52.28974387379051,1.1562947857577364,54.24092059257214,2,v,3.194050899999638,incorrect,b
295,4F4K,296,2,73.4053921750515,63.94382583745518,2.300841759016562,63.62542696606509,1,v,1.2156231000003572,correct,v
296,4F4K,297,1,62.58430612266034,46.54735014949695,1.8372260995537275,49.262722799311845,2,n,1.564105799999652,correct,n
297,4F4K,298,2,59.713373436499744,47.401360603606456,1.7307546246412169,50.0108705897606,1,v,3.1194476999999097,correct,v
298,4F4K,299,2,50.53646057134282,59.26954564817316,1.430077980002356,60.01797600913908,2,b,1.522301100000277,correct,b
299,4F4K,300,1,58.929987531494746,38.358358491515375,1.7027889415501165,42.05949756589547,2,c,2.019090000000233,incorrect,n
300,4F4K,301,2,55.79634099518462,62.06024522578107,1.5953690883657092,62.20176775508302,2,v,1.6950596000001497,incorrect,b
301,4F4K,302,2,34.861751422716345,45.76277391424704,1.032293019808966,48.57388426190328,2,b,0.8234089000002314,correct,b
302,4F4K,303,2,24.99307022384317,43.28595025844784,0.8407752502687984,46.39327379425436,2,b,0.8355102999998962,correct,b
303,4F4K,304,1,48.09426895401381,64.86172854857979,1.3592662433970992,64.30324247861701,1,c,2.7860602999999173,correct,c
304,4F4K,305,2,74.20638009505345,62.27341627466184,2.339485687893544,62.36501771127334,1,v,4.036244200000056,correct,v
305,4F4K,306,1,50.2250190083584,37.44820673535685,1.4208463696454308,41.26436429013868,2,c,4.1139908000000105,incorrect,n
306,4F4K,307,1,63.40680728792168,50.26966603397803,1.8689192272371768,52.505953998438,2,n,1.6982472999998208,correct,n
307,4F4K,308,2,65.24182848971705,72.33628578600579,1.9416118985039248,69.38077844512554,2,b,2.5311563000000206,correct,b
308,4F4K,309,2,36.63050954914411,50.81388501274839,1.0709679352416015,52.9754574671983,2,b,2.787487399999918,correct,b
309,4F4K,310,2,67.06740398882762,44.34617849854975,2.016735830515592,47.327474135864776,1,v,2.736589399999957,correct,v
310,4F4K,311,2,58.94531164198663,46.01909092760246,1.7033316317870706,48.79906436739596,1,v,2.549988900000244,correct,v
311,4F4K,312,1,45.43713597961798,32.11360785747553,1.2861991840750573,36.6764231358742,2,c,2.4172591999999895,incorrect,n
312,4F4K,313,2,52.34519965503915,63.59813158218906,1.4848899268026756,63.367383680310354,2,v,3.738890800000263,incorrect,b
313,4F4K,314,1,36.89461498107656,49.49217418040442,1.0768657838194096,51.83282055779394,1,c,2.385467200000221,correct,c
314,4F4K,315,2,64.11535319070161,43.166550606339975,1.896659362261057,46.288033705118266,1,v,1.6282952000001387,correct,v
315,4F4K,316,1,47.12441836796107,57.597874075260926,1.3321278503501883,58.67157725013877,1,c,3.664641400000164,correct,c
316,4F4K,317,1,61.925113094837016,49.8626215367749,1.812214079146115,52.153879602542176,2,n,2.013871300000119,correct,n
317,4F4K,318,1,35.94344595832927,50.90664120513163,1.0557757092791675,53.05533354310672,1,c,2.5917254999999386,correct,c
318,4F4K,319,2,42.91009485679157,65.6081678452592,1.2203566565624973,64.84635613739376,2,b,2.312639599999784,correct,b
319,4F4K,320,1,45.94575928366923,39.22294500953616,1.2998748942247986,42.81702406983235,2,c,3.2169064999998227,incorrect,n
320,4F4K,321,2,33.34869159856802,44.64182393588044,1.0003194171501688,47.58781901437322,2,v,4.016403900000114,incorrect,b
321,4F4K,322,1,43.385552121654754,63.85814293103781,1.2324819888821663,63.56160832144828,1,c,2.6707186999997248,correct,c
322,4F4K,323,2,47.00718407790304,67.97763696387372,1.328884319570258,66.51988793440468,2,b,1.8210768999997526,correct,b
323,4F4K,324,2,50.71659307750728,36.87673647825628,1.435444739825232,40.76653530202511,1,v,3.5082611000002544,correct,v
324,4F4K,325,2,69.54801437604442,63.2274420870221,2.1234945872431923,63.08903660280178,1,v,1.7771539999998822,correct,v
325,4F4K,326,1,41.36181694403196,53.620148288657205,1.1816923706208171,55.37064400380128,1,c,4.320042399999693,correct,c
326,4F4K,327,1,73.44934271954108,57.36883008520719,2.3029455190396395,58.48505913647393,2,n,1.4912772999996378,correct,n
327,4F4K,328,1,52.96344928785071,38.55790114239501,1.504103118241872,42.23415646659998,2,c,2.962041499999941,incorrect,n
328,4F4K,329,1,56.4817228120366,47.69491923999568,1.6182692712172435,50.26757344500746,2,n,3.649211099999775,correct,n
329,4F4K,330,1,52.52182001213149,42.23338965554507,1.4903535343944496,45.465524045082056,2,n,4.168333999999959,correct,n
330,4F4K,331,2,33.98219509605648,47.89359449153999,1.0135841383152948,50.44115610287413,2,b,3.8582047999998395,correct,b
331,4F4K,332,1,40.99619696054901,55.7868548902662,1.1727422027866463,57.18433229646517,1,c,4.629582600000049,correct,c
332,4F4K,333,1,46.972078284005335,27.78060378574701,1.327914582087105,33.086444821596324,2,n,2.154030799999873,correct,n
333,4F4K,334,2,34.90464985396185,47.05982437801583,1.0332142853716593,49.71190162483424,2,b,3.4739567999999963,correct,b
334,4F4K,335,2,48.452858638139176,27.73728561238973,1.3694397164462,33.05135687113359,1,v,2.7551367999999457,correct,v
335,4F4K,336,2,36.87521547076879,27.76778997001818,1.0764314621814086,33.07606374400561,1,b,3.4657609000000775,incorrect,v
336,4F4K,337,1,61.50788154812244,45.83026953220251,1.796559163649038,48.63319286025195,2,n,1.8439558000000034,correct,n
337,4F4K,338,1,41.92228734374972,58.98521404630152,1.1955451546153184,59.79087990763642,1,c,1.9471149000000878,correct,c
338,4F4K,339,1,31.01229386404538,48.4457576415279,0.952881565093662,50.92290304910828,1,c,1.516230799999903,correct,c
339,4F4K,340,1,52.27923187678731,38.33102276555325,1.4828544085818136,42.03557946343716,2,n,1.6128558999998859,correct,n
340,4F4K,341,2,43.66981819049864,54.57717863954897,1.2397889457242617,56.17601404347433,2,b,2.6291707999998835,correct,b
341,4F4K,342,2,48.24838696818702,59.42920539492604,1.3636293994856965,60.14514090826097,2,b,1.7650679000003038,correct,b
342,4F4K,343,2,38.78801396685272,26.855640737197955,1.1201100003241111,32.341085470783064,1,v,2.1184794000000693,correct,v
343,4F4K,344,2,51.59669281704723,34.74075298383246,1.4619569047978376,38.91770682532648,1,v,3.4171676999999363,correct,v
344,4F4K,345,2,64.31445192600228,53.83597001030512,1.9045280785485972,55.55282292489224,1,v,3.7872818000000734,correct,v
345,4F4K,346,1,42.85498181050733,58.84320853796239,1.2189588757636076,59.6771595230252,1,c,1.6800917999999,correct,c
346,4F4K,347,2,44.644491894533886,64.3054403656748,1.2651730736897002,63.89374469319354,2,b,2.2102161999996497,correct,b
347,4F4K,348,2,58.58022513084579,74.15757162128493,1.690449307490817,70.48584960750327,2,v,2.962031599999591,incorrect,b
348,4F4K,349,2,28.643454034784067,42.9313869056902,0.9070812077790712,46.0807507910285,2,b,3.0051158999999643,correct,b
349,4F4K,350,1,48.29300623668766,55.73713174709481,1.3648952050761762,57.14311062140834,1,c,2.2641404000000875,correct,c
350,4F4K,351,1,55.552755882969,38.72961682312429,1.5873086400504974,42.3845458106034,2,n,2.3369754000000285,correct,n
351,4F4K,352,1,59.02291795941196,50.02976641997051,1.7060826500764985,52.29854335171503,2,n,1.9534043999997266,correct,n
352,4F4K,353,1,45.90128361887416,30.92064285656588,1.2986732665892875,35.673352193494594,2,c,1.2793892999998207,incorrect,n
353,4F4K,354,1,27.189019866771265,42.13084848828818,0.8800580509695852,45.37515362384647,1,c,2.7010496999996576,correct,c
354,4F4K,355,1,53.56169175509924,39.27514235638562,1.522931183747476,42.86281733145972,2,n,1.9046102000002065,correct,n
355,4F4K,356,1,49.84614538725825,45.54587947426541,1.4096962752308575,48.3832424191923,2,c,1.7104122000000643,incorrect,n
356,4F4K,357,1,46.94453332487125,52.276326145110005,1.327154195204606,54.22947090095154,1,c,1.1581913999998505,correct,c
357,4F4K,358,2,61.12359044236619,49.84768125866416,1.7822598734236963,52.140942732418665,1,v,2.810285600000043,correct,v
358,4F4K,359,2,63.091377616766096,39.0698561769325,1.8567007731112772,42.68275434012463,1,b,3.053094400000191,incorrect,v
359,4F4K,360,1,29.8961210324152,49.40546156260034,0.9310197199470552,51.757584081788295,1,c,4.7949642999997195,correct,c
360,4F4K,361,1,66.02648156543444,55.63180380406956,1.973551883011248,57.05572589379472,2,n,4.040658599999915,correct,n
361,4F4K,362,2,47.70542518540625,53.58461782368339,1.3483198319163912,55.34062182980957,2,v,2.9195581999997557,incorrect,b
362,4F4K,363,1,39.806217595829445,60.071438061120496,1.144078883054299,60.654026975800114,1,c,3.2972100000001774,correct,c
363,4F4K,364,2,56.76084096344559,41.84117740299514,1.627689176523494,45.11989252634146,1,v,2.0392924000002495,correct,v
364,4F4K,365,2,44.16762389391629,58.60876876924484,1.252689373134234,59.48898390268124,2,b,3.0894686000001457,correct,b
365,4F4K,366,1,60.49270066098066,48.55507176057435,1.7590311361817084,51.01815174738172,2,n,3.0287743999997474,correct,n
366,4F4K,367,2,37.67624525459559,62.026717124108735,1.0945116856322883,62.17604330405335,2,v,4.192611500000112,incorrect,b
367,4F4K,368,2,51.78543822874767,39.12735935091775,1.4677061421532558,42.73318219258033,1,v,2.7738580999998703,correct,v
368,4F4K,369,1,55.92778221536782,40.55349356526797,1.5997355849243962,43.9860449528714,2,n,4.332212000000254,correct,n
369,4F4K,370,1,58.95312246659525,43.802953138393455,1.7036083119884318,46.84890664166467,2,n,3.8541769999997086,correct,n
370,4F4K,371,1,21.88681727009048,41.885636643246606,0.7881840817737271,45.15906731797989,1,c,5.0,correct,c
371,4F4K,372,2,42.20931431141206,32.48313042660642,1.202702172505524,36.98911745825677,1,b,1.2344834000000446,incorrect,v
372,4F4K,373,2,47.24796546434424,29.662014866271903,1.335554606153961,34.62658595713393,1,b,1.5708252000003995,incorrect,v
373,4F4K,374,2,58.68043466149328,39.42638982975739,1.6939755361055322,42.99554300429358,1,v,2.4218955000001188,correct,v
374,4F4K,375,2,45.50473039211228,32.216183202665306,1.2880083191684868,36.76313271206327,1,v,3.5156793000001016,correct,v
375,4F4K,376,2,60.56038558000859,48.19794590730695,1.7615086598954028,50.7068215938902,1,v,1.2977175999999417,correct,v
376,4F4K,377,1,50.31259008973802,40.40115659675082,1.4234360730827946,43.85204176927392,2,c,3.077351500000077,incorrect,n
377,4F4K,378,1,54.303345402770965,43.05925095429559,1.5466002614904328,46.19345625211572,2,n,4.095502999999553,correct,n
378,4F4K,379,1,29.88938287126445,43.4908207060231,0.930889278212993,46.57383904816146,1,c,1.3765980000002855,correct,c
379,4F4K,380,1,57.50027517120073,41.80429353431709,1.652910094273021,45.087393662248914,2,c,4.2718745000001945,incorrect,n
380,4F4K,381,2,58.4956238517921,69.55828107053811,1.6874780257112083,67.59124752983313,2,v,2.2263121000000865,incorrect,b
381,4F4K,382,1,41.44497924254614,50.65851205509461,1.1837376526427683,52.84156298091534,1,c,1.8803452000001926,correct,c
382,4F4K,383,2,35.55620470573665,46.61083505534389,1.0473082600236834,49.31840190107933,2,b,1.6922116000000642,correct,b
383,4F4K,384,2,46.052725189242274,67.13217218838355,1.3027694154104468,65.93179508218945,2,b,1.400033799999619,correct,b
384,4F4K,385,1,49.93598414312486,29.19846277469915,1.412332252874082,34.24427268302689,2,n,3.74413579999964,correct,n
385,4F4K,386,2,57.096046618938544,66.32643737067175,1.6390744642960855,65.36191677527614,2,v,3.1198537999998734,incorrect,b
386,4F4K,387,1,47.33332571267815,39.40201728851022,1.33792734276867,42.97415169830669,2,n,2.769265500000074,correct,n
387,4F4K,388,1,40.70830498084712,53.791102003400695,1.1657425012430718,55.51497521729305,1,c,3.5264486000000943,correct,c
388,4F4K,389,1,54.45958147943776,65.42672312580055,1.5516330859958771,64.71501588656716,1,n,2.7549902999999176,incorrect,c
389,4F4K,390,2,25.36393868001181,44.25789848119698,0.8472843697774985,47.24971807993906,2,v,1.9121503000001212,incorrect,b
390,4F4K,391,1,70.97261265148362,58.19469248400164,2.187341348305453,59.15532573209032,2,n,1.3646610999999211,correct,n
391,4F4K,392,2,59.02198142105021,73.96031895479317,1.7060494248366571,70.36886270763627,2,v,5.0,correct,b
392,4F4K,393,1,66.53024049566879,56.190770392985314,1.994334235463654,57.51844467178048,2,n,3.8404906000000665,correct,n
393,4F4K,394,2,71.55034527167587,53.5167400140452,2.213777698878339,55.28324354853857,1,v,1.5647956000002523,correct,v
394,4F4K,395,1,61.563892648608885,41.47159039358406,1.7986528676601132,44.794289630396975,2,n,2.8770807999999306,correct,n
395,4F4K,396,2,43.06067947638331,62.255569710295575,1.2241839718584502,62.35137084310925,2,v,5.0,correct,b
396,4F4K,397,1,57.47614950158458,42.91512951124749,1.6520810716346177,46.06642066622423,2,n,4.368614500000149,correct,n
397,4F4K,398,2,58.30694339404543,40.77379227963837,1.680870177404565,44.17989028746717,1,v,3.064609300000029,correct,v
398,4F4K,399,2,60.95407653708077,45.5937516584599,1.7759885692202997,48.42532737294621,1,b,4.1941844000002675,incorrect,v
399,4F4K,400,1,51.60536657711713,69.22521965402002,1.4622206155623347,67.36861058143955,1,c,1.6439202999999907,correct,c
