,condition,trial,sub_task,x,y,xt,yt,cat,resp,rt,acc,correct_resp
0,4F4K,1,2,44.69316100823061,49.88000402320233,1.266454134881876,52.2324109189836,2,b,2.639731199999005,correct,b
1,4F4K,2,1,65.13922568897952,44.67825138093912,1.9374737588712856,47.67140589419504,2,n,2.2762108000006265,correct,n
2,4F4K,3,1,39.398476773796496,55.61158324652602,1.1344195520830924,57.11523069639368,1,n,1.4994370000003983,incorrect,c
3,4F4K,4,2,56.73738690979335,62.93518174524504,1.626895524360212,62.96002145516332,2,b,2.798210700000709,correct,b
4,4F4K,5,2,57.45976276169107,46.65331420979274,1.6515182164900222,49.411733767535935,1,b,1.256447299998399,incorrect,v
5,4F4K,6,2,25.971295819134912,38.36077352041866,0.8580531230927674,42.09850610175742,2,v,2.629093499999726,incorrect,b
6,4F4K,7,2,60.29920104608402,67.41327158398914,1.7519675230901195,66.22865980159325,2,b,3.2768551999997726,correct,b
7,4F4K,8,1,49.32983133612926,34.78973613687484,1.3946421020466455,38.98860280311694,2,c,2.998471900000368,incorrect,n
8,4F4K,9,1,53.65135268849514,42.92481585474983,1.5257732563839563,46.12241050940052,2,n,2.038075399999798,correct,n
9,4F4K,10,2,70.2960863582235,59.37979049398254,2.1567853329735405,60.19016843702008,1,b,1.6738708999982919,incorrect,v
10,4F4K,11,2,42.51148094584435,26.186050802681944,1.2102829971579507,31.816653288319547,1,b,2.221644799999922,incorrect,v
11,4F4K,12,2,48.49009539092814,35.100076540024176,1.3705005068637448,39.25669371069901,1,v,3.320018099999288,correct,v
12,4F4K,13,1,41.486441865242455,55.582703109085934,1.1847587006999398,57.09118730620571,1,n,2.488572899999781,incorrect,c
13,4F4K,14,2,63.296125993818265,72.39384368693513,1.8646227571139773,69.52539383241484,2,v,2.8785351000005903,incorrect,b
14,4F4K,15,1,54.14964776323319,69.24840513990674,1.541665136417962,67.48766569221905,1,n,3.999836700000742,incorrect,c
15,4F4K,16,1,51.531111925870576,62.54441829345154,1.459964569143926,62.66263113831764,1,c,3.1077234000003955,correct,c
16,4F4K,17,1,56.556854365792965,40.22109831437407,1.6207994963809491,43.73488878779759,2,c,1.7846652000007452,incorrect,n
17,4F4K,18,2,45.23789565059013,35.86802797144899,1.2808813737042395,39.92209183698123,1,b,1.8374858999995922,incorrect,v
18,4F4K,19,1,61.032973699807,43.38356054156973,1.77890468372051,46.52782101875911,2,c,2.2762886000000435,incorrect,n
19,4F4K,20,2,67.12617691605048,54.41998386037245,2.0192020882762,56.11785030073002,1,v,1.3538339999995515,correct,v
20,4F4K,21,2,26.43851349067242,46.2816613982085,0.8664301817976257,49.08482460776352,2,v,3.8648198999999295,incorrect,b
21,4F4K,22,2,54.0635014088616,39.67984622632827,1.538905926522936,43.25800911706564,1,v,3.174451000000772,correct,v
22,4F4K,23,2,42.43869991320917,63.3715085330756,1.2084526930124628,63.28990523798054,2,v,0.8182342000000062,incorrect,b
23,4F4K,24,2,43.53982209482693,53.90281558707915,1.2364420827988123,55.68171377432992,2,b,1.9591483999993216,correct,b
24,4F4K,25,1,49.06373700331565,35.105859333558215,1.3869464728953584,39.261693788188325,2,c,2.2695418000002974,incorrect,n
25,4F4K,26,2,47.676047983852754,30.0507685816364,1.3474964194903962,34.966755890511486,1,b,1.3036889000013616,incorrect,v
26,4F4K,27,2,41.52224699881424,60.60768185393192,1.185641137491834,61.162526220399165,2,v,0.8661959000000934,incorrect,b
27,4F4K,28,1,58.496249348306506,72.49330605309304,1.6874999746011214,69.58723689204919,1,c,0.7150655999994342,correct,c
28,4F4K,29,2,61.479701518435725,47.81751466258552,1.7955067112884189,50.43346131029632,1,b,2.1548540000003413,incorrect,v
29,4F4K,30,2,47.68733679729604,31.443699412134297,1.347812773691926,36.13314976703462,1,v,3.701759599998695,correct,v
30,4F4K,31,1,58.46435757566682,45.64846113355654,1.6863812449412776,48.527178709461616,2,n,1.3098085000001447,correct,n
31,4F4K,32,1,46.522279739944565,34.03537902169621,1.3155521066592757,38.33903077349132,2,n,0.8546180999983335,correct,n
32,4F4K,33,2,64.32909662905826,46.00338465433268,1.905108149068968,48.839850568323705,1,v,1.1095657000005303,correct,v
33,4F4K,34,2,47.687404324193096,64.88066969224982,1.3478146662681616,64.41254994985971,2,v,4.198665799998707,incorrect,b
34,4F4K,35,1,38.98386738453704,59.58794163141535,1.1246811265222831,60.35610689708224,1,n,1.5342334999986633,incorrect,c
35,4F4K,36,2,47.91141198785613,40.62358172804605,1.3541075782611742,44.08982900444936,1,b,1.5951535000003787,incorrect,v
36,4F4K,37,1,63.04854765886438,50.063961458268544,1.8550478871182705,52.39202330655179,2,c,0.9153095000001485,incorrect,n
37,4F4K,38,2,57.33054874407416,46.780382831931824,1.6470866590230837,49.52342942092206,1,v,1.115586699999767,correct,v
38,4F4K,39,2,49.14505097829085,35.529091932751484,1.3892936119989605,39.62807864242103,1,b,1.2490972000014153,incorrect,v
39,4F4K,40,2,58.770085818364606,64.67352273094372,1.697136464270345,64.26018229684438,2,v,2.549351999999999,incorrect,b
40,4F4K,41,1,57.40048471823922,67.48881827473626,1.649483722996098,66.28146098904693,1,n,3.709218599999076,incorrect,c
41,4F4K,42,1,35.79670522514195,50.24985149201816,1.052559038348875,52.5531554102736,1,n,0.9999035999990156,incorrect,c
42,4F4K,43,2,54.47575938795189,43.31625586748444,1.552155158925813,46.468344216943045,1,v,5.0,incorrect,v
43,4F4K,44,1,48.4075252612268,62.998655634200645,1.3681493798300932,63.00815480303355,1,c,1.473551500001122,correct,c
44,4F4K,45,1,68.84129728932807,55.411113132774666,2.092516383761953,56.94819851516418,2,n,1.2916060000006837,correct,n
45,4F4K,46,1,40.672575535310926,26.15458810677749,1.1648767077880726,31.791590464810024,2,c,1.3401902000005066,incorrect,n
46,4F4K,47,1,56.115467868376,41.32271342934181,1.6059912538738794,44.70690088647925,2,c,1.352470899999389,incorrect,n
47,4F4K,48,2,63.55544289888271,44.977369062044765,1.8747046013762232,47.93538623304614,1,b,0.9578404000003502,incorrect,v
48,4F4K,49,2,54.80425829843202,46.96699037322552,1.5627941378050274,49.68738731118537,1,v,1.5403988999987632,correct,v
49,4F4K,50,2,33.190721654649906,52.0197359139944,0.9970388663404264,54.07863674193322,2,v,1.17019529999925,incorrect,b
50,4F4K,51,1,42.817919255193566,57.58507728225194,1.218019793181852,58.74172673129358,1,n,0.788190699999177,incorrect,c
51,4F4K,52,1,44.75047338411655,59.600498360905554,1.267964365988919,60.36610297551158,1,c,0.8546377000002394,correct,c
52,4F4K,53,1,63.15635393072788,76.79337094969603,1.8592111396356157,72.09988591260095,1,n,2.9733794999992824,incorrect,c
53,4F4K,54,1,61.793228205181705,42.379529789193846,1.8072509466113305,45.64051322990587,2,n,0.8670352999997704,correct,n
54,4F4K,55,1,58.03907473728518,46.37911022930431,1.6715334688727654,49.17057198728482,2,c,1.7831631999997626,incorrect,n
55,4F4K,56,2,28.887294054419907,48.18372351748559,0.9116922530136448,50.75401635931173,2,v,0.8247769000008702,incorrect,b
56,4F4K,57,1,40.95775279710502,55.00295671333429,1.1718050592727025,56.60715289110638,1,n,2.258027600000787,incorrect,c
57,4F4K,58,1,52.62746586728832,56.389212741181154,1.4936312072645466,57.76008297842305,1,c,1.3644270000004326,correct,c
58,4F4K,59,2,37.84481069652851,48.924440652295154,1.0983549214490544,51.40096946015555,2,v,1.686074400000507,incorrect,b
59,4F4K,60,2,36.673056033470544,52.20819433727572,1.0719158711922296,54.24006376966091,2,v,0.9577874999995402,incorrect,b
60,4F4K,61,2,51.495019799915546,44.68527026679136,1.4588692554070632,47.67760153067173,1,b,0.5569682999994257,incorrect,v
61,4F4K,62,1,58.59468793416427,40.53533589187936,1.6909577790375834,44.01198595628409,2,n,1.764978200000769,correct,n
62,4F4K,63,1,68.76612758382349,50.14209891621889,2.089248105308564,52.4597734288426,2,c,1.7406743000010465,incorrect,n
63,4F4K,64,1,59.01421372051965,46.75715303613432,1.7057738778131757,49.50301298172685,2,c,1.1945396999999502,incorrect,n
64,4F4K,65,2,54.75089389673265,39.05423773180348,1.561060895854694,42.70755212694467,1,v,0.9942252000000735,correct,v
65,4F4K,66,1,39.89740558698615,50.95424896479692,1.1462503446542711,53.1622338447842,1,n,2.130004000000554,incorrect,c
66,4F4K,67,2,47.38644947702647,58.63177116226585,1.3394061378127653,59.59025455212224,2,v,0.7893735999987257,incorrect,b
67,4F4K,68,1,61.13986603627036,46.6057779146177,1.782863166142656,49.36993837624566,2,c,0.7757481999997253,incorrect,n
68,4F4K,69,2,46.8351356764826,64.19116877877052,1.3241385364195462,63.90323334986768,2,b,0.9449013000012201,correct,b
69,4F4K,70,1,25.457707424550165,38.78700106354273,0.8489380726806034,42.47269759181158,1,c,1.0670358000006672,correct,c
70,4F4K,71,1,44.475974380903175,60.19341421509138,1.2607473837053322,60.83624479242978,1,n,2.342463500001031,incorrect,c
71,4F4K,72,2,41.51979103075002,56.35336352872692,1.1855805878469234,57.73046470253824,2,v,1.3820150000010472,incorrect,b
72,4F4K,73,2,43.63023762934936,63.51702074480077,1.2387689515041238,63.39940014652951,2,b,0.6243928000003507,correct,b
73,4F4K,74,2,46.83225529534685,61.12811644045334,1.3240592284022548,61.56978691658996,2,v,2.246804099999281,incorrect,b
74,4F4K,75,1,50.3273465323905,40.16240688416247,1.423872923738044,43.68315204177318,2,c,0.9714364999999816,incorrect,n
75,4F4K,76,2,36.1206219727491,50.30848129801493,1.0596726480716334,52.603943150571226,2,b,1.570764500000223,correct,b
76,4F4K,77,1,37.237948384411126,51.99012725256118,1.0845814881943037,54.05325619937408,1,n,1.4736380000013014,incorrect,c
77,4F4K,78,1,50.28022090732975,64.22049677715614,1.4224782831671137,63.92502171602404,1,n,0.8121526999984781,incorrect,c
78,4F4K,79,1,50.76373578868572,34.08648708878303,1.436852603608621,38.38294241993104,2,c,1.988719900000433,incorrect,n
79,4F4K,80,2,46.9461885834893,55.30053814397998,1.3271998768177826,56.85593202958746,2,b,1.2979097000006732,correct,b
80,4F4K,81,1,56.52319628799422,68.96694585060965,1.6196654956192358,67.29781491357417,1,n,3.1317460000009305,incorrect,c
81,4F4K,82,2,61.01817906901029,40.62769687372702,1.7783574955204855,44.09345931395041,1,v,3.9998441000007006,correct,v
82,4F4K,83,2,45.40085483785233,56.8844844669234,1.2852291833118878,58.16815247746633,2,v,1.6011471999991045,incorrect,b
83,4F4K,84,2,49.52076172955103,52.724949582632526,1.4001902364949843,54.68161132164455,2,b,2.2823234999996203,correct,b
84,4F4K,85,2,67.24583718324186,56.73477627811697,2.0242326548725784,58.04502538376829,1,b,2.296578199999203,incorrect,v
85,4F4K,86,1,50.7993948926814,65.33035026392349,1.4379184396168383,64.74137461512572,1,n,1.1595654000011564,incorrect,c
86,4F4K,87,1,38.70106112017709,47.61945812802596,1.1180865216906843,50.25991725380166,1,c,1.8686462999994546,correct,c
87,4F4K,88,2,69.68450699045036,59.221653631784456,2.1295302296023784,60.06380736268849,1,v,1.6739297999993141,correct,v
88,4F4K,89,2,50.64236949631885,42.426547661016514,1.433230931640194,45.68206323935731,1,b,0.8624897000008787,incorrect,v
89,4F4K,90,1,77.85492062009826,57.89744123333011,2.523887523922423,58.99602792493609,2,n,1.5768262999990839,correct,n
90,4F4K,91,2,64.09644715930301,45.67451777649359,1.8959138563980955,48.55014143351208,1,v,3.822329999999056,correct,v
91,4F4K,92,1,58.44372891882282,48.66723318177494,1.6856580085234685,51.17654747296879,2,n,2.416648399999758,correct,n
92,4F4K,93,2,31.065154778800714,54.79864018451389,0.9539295596522548,56.43595308268397,2,b,0.7857894000007946,correct,b
93,4F4K,94,2,62.0195226834318,48.040683746439,1.8157752982343,50.62886117641879,1,v,1.5540758999995887,correct,v
94,4F4K,95,2,36.08444823538005,47.87010093515035,1.058875849602384,50.479518629866405,2,b,1.3887418000012985,correct,b
95,4F4K,96,2,47.32730075710037,64.43319702118433,1.3377597304672657,64.08271190350085,2,b,0.8606789999994362,correct,b
96,4F4K,97,2,54.44590085294564,46.79746277566154,1.551191739217644,49.538439955063,1,v,2.5984134999998787,correct,v
97,4F4K,98,2,48.5324952840751,31.805162932674925,1.371709383953461,36.43816196823438,1,b,3.734234600000491,incorrect,v
98,4F4K,99,2,49.57993953419111,34.10626582324058,1.4019143261753984,38.39994004162221,1,v,0.7283998999992036,correct,v
99,4F4K,100,1,60.991935233275136,46.8243760203284,1.777387265744233,49.562090897058994,2,n,1.1340428999992582,correct,n
100,4F4K,101,2,69.22917513935882,58.55789010908736,2.109462226930656,59.53070270516497,1,v,0.9645192999996652,correct,v
101,4F4K,102,2,53.49263212967477,38.08872602005174,1.5207457410905518,41.859940535873456,1,v,1.1217057000012574,correct,v
102,4F4K,103,2,48.80127504582639,63.81737508340069,1.3793974944564604,63.624578934348975,2,v,1.1276049999996758,incorrect,b
103,4F4K,104,1,22.292937796194984,39.117473265298784,0.7948685124391835,42.763150944318895,1,c,0.9703376999987086,correct,c
104,4F4K,105,2,62.74180460101756,50.43592441102842,1.8432530421494635,52.71428386248167,1,v,3.8469096000007994,correct,v
105,4F4K,106,2,49.54816104390724,67.49770731673307,1.4009882260043092,66.28766834350883,2,b,1.3219665000015084,correct,b
106,4F4K,107,2,50.43059749484722,42.98927093934445,1.426933324940697,46.179373937994775,1,b,1.5707824000000983,incorrect,v
107,4F4K,108,1,37.28608123778783,57.24609601952452,1.0856675833357194,58.46474982146332,1,c,2.0324720999997226,correct,c
108,4F4K,109,2,35.13195287570024,48.15296913776845,1.0381094703426563,50.727113058747946,2,b,3.7313051000000996,correct,b
109,4F4K,110,1,64.16203725300082,71.97078647967082,1.898501472054423,69.26053216636838,1,n,1.9349145000014687,incorrect,c
110,4F4K,111,2,35.29232468400559,22.073580902241105,1.0415771761605106,28.632944960514877,1,b,3.439977699999872,incorrect,v
111,4F4K,112,2,58.901795039372814,48.88121012981616,1.7017909802295963,51.36326694927662,1,v,1.2369464000003063,correct,v
112,4F4K,113,1,55.2492551362829,44.56219732099365,1.5773224888325958,47.56895574565053,2,n,1.7771157000006497,correct,n
113,4F4K,114,2,47.5145049395366,64.52420194488973,1.3429775129092312,64.15000298983381,2,b,1.5333575999993627,correct,b
114,4F4K,115,1,41.87483935702806,60.373741873982496,1.194366147957597,60.97849861853076,1,c,4.03480540000055,correct,c
115,4F4K,116,2,58.69865126789724,45.57163156719309,1.6946173418257249,48.459464749504455,1,v,3.082835299999715,correct,v
116,4F4K,117,1,61.05822572012933,42.02863426098938,1.7798390336426448,45.33045031205115,2,n,1.3782048000011855,correct,n
117,4F4K,118,1,39.6195017862637,58.04573058460731,1.1396454419415565,59.11643646571728,1,c,1.4857911999988573,correct,c
118,4F4K,119,1,44.663664637218616,36.04644240481321,1.265677581014791,40.07706527402012,2,c,2.5190259000009974,incorrect,n
119,4F4K,120,1,62.58693639687437,52.12052047815683,1.83732658941031,54.16499116231693,2,n,2.8711788000000524,correct,n
120,4F4K,121,1,51.58228304218091,36.40558697500637,1.4615189054971085,40.38943721935678,2,n,1.7647673999999824,correct,n
121,4F4K,122,2,63.52164120315803,50.713640063012086,1.8733873598052757,52.95445914874391,1,v,1.7588111000004574,correct,v
122,4F4K,123,2,63.64608417414532,48.03732895961629,1.8782414373456355,50.62592502888558,1,v,1.6253837000003841,correct,v
123,4F4K,124,1,58.69898702931227,41.88935848240022,1.6946291736214991,45.207398146887286,2,n,2.767825699998866,correct,n
124,4F4K,125,1,63.84282585102152,48.25872690201075,1.8859413036091592,50.81961430217815,2,n,1.3765558000013698,correct,n
125,4F4K,126,1,49.294125445949774,30.884983909658065,1.3936069881617354,35.66354111882942,2,c,3.3261564999993425,incorrect,n
126,4F4K,127,1,34.918324416632146,51.5065453614198,1.0335081263167238,53.638025981211214,1,c,1.2430426999999327,correct,c
127,4F4K,128,1,28.097477656819883,46.16736225862762,0.8968411185270291,48.9842238804751,1,c,1.3826441000001068,correct,c
128,4F4K,129,1,34.397681537903935,54.49143442723575,1.0223792394308446,56.17795523854856,1,c,1.1095353999990039,correct,c
129,4F4K,130,2,48.89476281255249,55.21592283899206,1.3820816837613046,56.785262696360014,2,b,1.5040568999993411,correct,b
130,4F4K,131,1,45.3485183769917,25.30181639650897,1.283831221383996,31.11620334181552,2,c,2.829461600000286,incorrect,n
131,4F4K,132,2,61.38285255597015,41.45943376351551,1.7918943475190463,44.82763665261576,1,b,1.4493918000007397,incorrect,v
132,4F4K,133,1,31.8500851043878,47.53176658507206,0.969627521350366,50.18304057062753,1,c,1.3347649999996065,correct,c
133,4F4K,134,2,56.50171108871397,44.85478373927274,1.6189420357915525,47.82721468087436,1,v,1.722550599999522,correct,v
134,4F4K,135,1,32.284808487489144,43.364013374841406,0.978432516088942,46.510547434226375,1,c,0.9578340999996726,correct,c
135,4F4K,136,2,46.08548191014928,32.43349283531785,1.3036571080322985,36.97050353628902,1,v,3.471108699999604,correct,v
136,4F4K,137,2,44.858759565670695,57.97729713420494,1.2708227189525263,59.06089514582473,2,v,2.208097299999281,incorrect,b
137,4F4K,138,2,45.33699611381663,35.79167569434644,1.2835236539055237,39.85581403102196,1,b,2.266250200000286,incorrect,v
138,4F4K,139,1,63.64668774781899,53.496400494182,1.8782650112299248,55.33767162185971,2,n,2.6722437999997055,correct,n
139,4F4K,140,2,57.27626792579926,44.119414282245145,1.6452285787522714,47.17794982186725,1,v,2.343021700000463,correct,v
140,4F4K,141,2,53.57566172880144,35.235653726901944,1.523373655617719,39.37396314845876,1,v,3.5155437999983405,correct,v
141,4F4K,142,1,38.41302582456503,56.68222768062937,1.111409729225492,58.00176100819122,1,c,2.599440300000424,correct,c
142,4F4K,143,1,56.614603854022384,46.77413802874467,1.6227470298941498,49.517941057091896,2,n,2.585795999999391,correct,n
143,4F4K,144,1,57.45173095767231,62.7676021357284,1.6512424084511064,62.83270928309025,1,n,2.9635169000011956,incorrect,c
144,4F4K,145,1,60.343206031758655,68.52715277765681,1.7535714086168828,66.99878292794719,1,n,1.728595700000369,incorrect,c
145,4F4K,146,1,26.83931071497142,38.2325321675705,0.8736814844188444,41.98602071468158,1,c,1.1823550999997678,correct,c
146,4F4K,147,2,24.93682457443364,42.26599145376212,0.8397924582508607,45.54018154981011,2,b,1.1580591999991157,correct,b
147,4F4K,148,2,78.71784152228747,61.84641389850054,2.5695847674509373,62.12692173984057,1,v,1.0057433000001765,correct,v
148,4F4K,149,1,43.184681030754014,63.18471665476707,1.227344652212778,63.14896621133805,1,c,1.5040188999992097,correct,c
149,4F4K,150,1,52.041764745682976,32.977112214042506,1.4755501371381228,37.43316958660015,2,n,3.5076348000002326,correct,n
150,4F4K,151,2,34.98232907511226,46.62833715247319,1.0348845788455197,49.3897738383733,2,b,2.1230419000003167,correct,b
151,4F4K,152,1,38.594244888548126,51.77485030006987,1.1156058051278073,53.86856983774121,1,n,1.3890934999999445,incorrect,c
152,4F4K,153,1,39.35927161085833,30.062414361674197,1.1334950951899343,34.97644565550683,2,c,1.9532000999988668,incorrect,n
153,4F4K,154,2,47.8117532031081,57.00142826613747,1.351304304287909,58.2641968768962,2,v,1.5457198999993125,incorrect,b
154,4F4K,155,1,58.38929030660862,38.10894149530227,1.683750891083293,41.87766044196071,2,n,1.3821537000003445,correct,n
155,4F4K,156,1,72.23393768075894,57.885235168433816,2.245471062920222,58.98610766469543,2,n,1.5089862999993784,correct,n
156,4F4K,157,1,67.8016581370276,52.07094517922815,2.047764406536244,54.12252134265515,2,n,1.2491177000010794,correct,n
157,4F4K,158,1,49.44395501114891,29.54125477748122,1.397955706441401,34.54389358055756,2,c,1.5040146999999706,incorrect,n
158,4F4K,159,2,54.89948290141631,68.25980351623467,1.5658917547600115,66.81559662418381,2,b,0.8303645000014512,correct,b
159,4F4K,160,2,36.99685129419054,47.60113199886786,1.0791575758129652,50.24385317069508,2,v,1.570756999999503,incorrect,b
160,4F4K,161,2,44.14048911560929,23.3942852816176,1.251982740213229,29.63419200067962,1,v,1.849995200000194,correct,v
161,4F4K,162,1,60.82801027676396,43.20928957735778,1.7713389581100365,46.37381598946405,2,n,2.1184386999993876,correct,n
162,4F4K,163,1,59.76398961223865,72.65897333850687,1.7325772613825228,69.68988160955078,1,c,2.1001577000006364,correct,c
163,4F4K,164,1,39.96835842384381,50.389097878432906,1.1479427967408733,52.67375027606112,1,c,2.2951665000000503,correct,c
164,4F4K,165,2,40.14921367216798,51.190549075096186,1.152268084219914,53.36599901908762,2,b,2.5812058999999863,correct,b
165,4F4K,166,2,39.00730249458348,56.44992415069927,1.1252293390358477,57.81021746908747,2,b,1.115620200000194,correct,b
166,4F4K,167,2,48.48424913698937,30.33440688114719,1.3703339060211417,35.20306051824404,1,v,2.635122499999852,correct,v
167,4F4K,168,2,56.27705447789249,37.4431530893896,1.6113966198119598,41.294743508186606,1,v,1.7194052999984706,correct,v
168,4F4K,169,1,46.10930352392473,63.410323687006006,1.3043030430680835,63.319138403647656,1,c,2.3369715000008,correct,c
169,4F4K,170,1,42.83242713195336,55.9017231787092,1.218387304256297,57.35640820088984,1,c,1.5297905999996146,correct,c
170,4F4K,171,2,46.26380761094773,38.02276986927069,1.3085002756707211,41.80213522681214,1,b,2.840680799999973,incorrect,v
171,4F4K,172,1,41.6669181243941,26.519611523453616,1.1892133332836177,32.08298316729298,2,c,2.0319940999997925,incorrect,n
172,4F4K,173,2,47.86529493311098,33.806814554038176,1.352809642420074,38.14282930576057,1,b,1.6860636999990675,incorrect,v
173,4F4K,174,2,43.50511340266824,33.664398968430085,1.235550006445654,38.0207291859787,1,v,1.1398887000013929,correct,v
174,4F4K,175,2,43.81086600861186,60.12389759293991,1.2434305931636858,60.78131346289916,2,b,1.3765255999987858,correct,b
175,4F4K,176,2,58.8829666139569,45.26243948497879,1.7011248150635645,48.18685697216228,1,v,1.1160651999998663,correct,v
176,4F4K,177,1,51.955099429515,40.64092991139023,1.4728933623691496,44.105133431345536,2,n,3.362603700001273,correct,n
177,4F4K,178,1,64.06448765769265,56.59486962248701,1.8946542901603405,57.92978480073459,2,n,1.1520032000007632,correct,n
178,4F4K,179,2,47.04624896606065,36.27441763241848,1.3299642527520836,40.27528771227174,1,b,0.9763383999998041,incorrect,v
179,4F4K,180,2,48.44261907785516,39.0236533012449,1.3691481586179088,42.680664731108784,1,v,0.6361199000002671,correct,v
180,4F4K,181,1,47.00745669687094,66.84208727120296,1.3288918529731242,65.82681535644585,1,n,3.1987269000001106,incorrect,c
181,4F4K,182,1,40.11177829520759,50.456362983397874,1.1513714538750688,52.73197242890492,1,c,1.419029100001353,correct,c
182,4F4K,183,1,73.50533556285048,59.31961882910233,2.305628488681469,60.14211735700557,2,n,0.8235113999999157,correct,n
183,4F4K,184,2,58.49187325133348,46.1423650005998,1.6873464218265808,48.96221876031071,1,v,2.7798991999989084,correct,v
184,4F4K,185,1,59.18483587509645,77.63531731258965,1.711836692032764,72.55374125073935,1,n,0.6815757000003941,incorrect,c
185,4F4K,186,2,36.57675210209237,49.124228543473535,1.069771417607933,51.57511549138414,2,b,2.220164099999238,correct,b
186,4F4K,187,1,32.827595911034216,45.47799883597124,0.9895385911421,48.37692747451703,1,c,2.3551182999999583,correct,c
187,4F4K,188,2,54.33333757976888,46.3940111633852,1.547565130195704,49.18368178285417,1,v,2.0155374000005395,correct,v
188,4F4K,189,2,53.664039818696615,41.00718688460858,1.526175841208685,44.42833655579005,1,b,1.7103780000015831,incorrect,v
189,4F4K,190,1,54.26545599866992,45.55698650440964,1.5453821936035927,48.446556111889294,2,n,1.2364770000003773,correct,n
190,4F4K,191,2,60.01579839985681,36.40846656674697,1.741673204468433,40.39194396660121,1,v,1.8013037999990047,correct,v
191,4F4K,192,1,39.11753934819463,51.36250095356638,1.127811673172086,53.51409117407593,1,c,2.2709999999988213,correct,c
192,4F4K,193,2,27.112504850984852,40.68720340111983,0.878658917150136,44.145957603087645,2,b,1.6447205999993457,correct,b
193,4F4K,194,2,59.02377432362239,67.52901110963482,1.7061130315727036,66.30951922252966,2,v,2.616158599999835,incorrect,b
194,4F4K,195,2,49.97392129306549,29.20182221217777,1.4134468543361864,34.26337721808987,1,v,3.7956140999995114,correct,v
195,4F4K,196,1,47.59925618477733,61.731677863517525,1.3453463996153892,62.03832193990205,1,c,2.1958706000004895,correct,c
196,4F4K,197,2,58.35183740785742,78.26895791256817,1.6824400776447286,72.88680435614744,2,b,2.0016746999990573,correct,b
197,4F4K,198,1,67.57777180917569,55.94870379168089,2.038253022361688,57.39539660646047,2,n,3.896678900000552,correct,n
198,4F4K,199,2,61.06675873036348,73.12416502920544,1.7801548744493705,69.97566886909385,2,v,1.2847032000008767,incorrect,b
199,4F4K,200,2,42.618253561548045,37.64474306567232,1.2129731425067174,41.47108871712737,1,v,2.2937269000012748,correct,v
200,4F4K,201,2,72.6328712958745,58.00085457431781,2.264176050368775,59.08001956503059,1,v,1.6326757000006182,correct,v
201,4F4K,202,2,59.455582123852565,45.63331713833586,1.7215015307147097,48.51383232851716,1,v,1.78963880000083,correct,v
202,4F4K,203,1,41.245957591560085,58.21177539370964,1.1788488316004315,59.25101715489643,1,c,1.6496867000005295,correct,c
203,4F4K,204,2,46.0666690664275,67.442698560107,1.3031472143924543,66.24923667353416,2,v,2.476472399999693,incorrect,b
204,4F4K,205,2,43.569632134135766,30.623788346732866,1.2372087690146558,35.4447983096758,1,v,1.6814900999997917,correct,v
205,4F4K,206,1,43.98044424632923,30.310447350043724,1.2478230179035072,35.18307484004423,2,n,2.373340399999506,correct,n
206,4F4K,207,1,50.85655825664404,39.36174834101233,1.4396286789525432,42.97801396183271,2,n,2.0106932999988203,correct,n
207,4F4K,208,1,43.69138844811024,29.052665679044367,1.2403451665051506,34.14041825810493,2,n,1.6575904000001174,correct,n
208,4F4K,209,2,44.04546747416839,54.67238388104698,1.2495113655438277,56.3300047763287,2,v,1.4797300999998697,incorrect,b
209,4F4K,210,2,58.9671189665862,45.78924810004732,1.704104217706923,48.651234212066726,1,v,0.7700089999998454,correct,v
210,4F4K,211,2,36.614865328966914,54.48214811708994,1.070619592741231,56.17014560015965,2,b,0.6667746000002808,correct,b
211,4F4K,212,2,56.13533920284031,33.03583880056922,1.606655007116768,37.48326271866375,1,v,0.854619100000491,correct,v
212,4F4K,213,1,59.5574424134851,48.00862270417071,1.725151750896245,50.60079947333528,2,n,2.318749199999729,correct,n
213,4F4K,214,1,40.12767720894549,55.5100237676764,1.15175217012959,57.03065077264557,1,c,1.4327150999997684,correct,c
214,4F4K,215,1,61.78055987100634,50.29706468113565,1.806774924106023,52.59405483924375,2,n,1.1459433999989415,correct,n
215,4F4K,216,1,52.93506584214727,37.30114819738336,1.503215632700058,41.170605372616215,2,n,1.582900299999892,correct,n
216,4F4K,217,1,63.77770692029597,74.94838842371041,1.8833892597117443,71.06104477661505,1,n,2.1724130000002333,incorrect,c
217,4F4K,218,1,49.853459738032605,69.01731670326858,1.4099107030259967,67.33187903431241,1,c,1.3826402000013331,correct,c
218,4F4K,219,1,41.57344291222571,58.42967497982834,1.1869040302244298,59.42722960317538,1,c,1.449391199999809,correct,c
219,4F4K,220,2,48.42267800003501,33.29792721261386,1.3685805411514,37.707079674779855,1,v,2.4712488999994093,correct,v
220,4F4K,221,1,57.79658802282344,34.34879116842962,1.663126193642506,38.60853802506946,2,n,1.2566925999999512,correct,n
221,4F4K,222,1,45.50915896704007,59.246878741201165,1.2881269368354982,60.08398069028844,1,c,1.3219231000002765,correct,c
222,4F4K,223,1,45.17975066030502,50.00273458928329,1.279333607341499,52.338916221342245,1,n,3.7977157999994233,incorrect,c
223,4F4K,224,1,51.95438576455053,56.54677731438135,1.4728715044318923,57.89013265745224,1,c,0.8485228999998071,correct,c
224,4F4K,225,2,43.16266014407367,58.278610242718585,1.226782765681398,59.30511372497364,2,v,2.8277578000015637,incorrect,b
225,4F4K,226,2,40.006103298537056,54.774581590063946,1.1488441507549527,56.41577340207784,2,b,3.6312363000015466,correct,b
226,4F4K,227,2,52.40072680645016,37.55950912764559,1.4866054520954062,41.39651173023826,1,v,1.9288214000007429,correct,v
227,4F4K,228,1,48.12783634696122,31.01429344569768,1.3602153619013362,35.77202350141715,2,c,2.3360742999993818,incorrect,n
228,4F4K,229,1,46.44508442414497,63.79061269944898,1.313442035053626,63.60456062704704,1,n,2.8247723000004044,incorrect,c
229,4F4K,230,2,41.53311622411312,26.616626794885665,1.185909145423091,32.16065515772847,1,v,2.458338799999183,correct,v
230,4F4K,231,2,67.35917177741261,58.75212086844756,2.029008843755377,59.68714875835958,1,v,1.2611980000001495,correct,v
231,4F4K,232,2,59.88371999931041,39.149645419358365,1.7368962738864815,42.7914414587194,1,v,0.9274514000007912,correct,v
232,4F4K,233,2,63.565025321569806,39.00807313008201,1.875078193881136,42.666968763117225,1,v,0.5026471999990463,correct,v
233,4F4K,234,1,34.67888044134812,52.54502168079215,1.028374978424666,54.52805390152146,1,c,1.2422710999999254,correct,c
234,4F4K,235,2,38.16902327606574,57.87837127803096,1.1057848402209949,58.98052855272277,2,v,1.5218437999992602,incorrect,b
235,4F4K,236,1,64.8567136317826,50.58342340872559,1.9261251014062284,52.84189156981085,2,n,3.022752099999707,correct,n
236,4F4K,237,2,57.873077110575046,47.5291835502127,1.6657735769678876,50.18077574816631,1,v,0.8682349999999133,correct,v
237,4F4K,238,1,31.906431954685036,48.65920795563578,0.9707642995867036,51.16954121162554,1,c,1.765021600000182,correct,c
238,4F4K,239,1,36.50400059213814,57.500017848643296,1.068154264078182,58.67232342862821,1,c,3.8215005999991263,correct,c
239,4F4K,240,2,36.88757017242728,49.86277997347468,1.0767080424216002,52.21745853181553,2,b,2.2701741000000766,correct,b
240,4F4K,241,1,48.8836608462975,64.0179063208089,1.3817626547332622,63.774289970626405,1,n,3.76439819999905,incorrect,c
241,4F4K,242,1,61.25023467763203,44.30429528335829,1.78695962770472,47.34123405225375,2,n,1.5527554000000237,correct,n
242,4F4K,243,1,60.24502668082144,47.63270303952488,1.7499950004351756,50.27152667447825,2,n,0.866626199998791,correct,n
243,4F4K,244,1,34.70693568342535,45.38753288073532,1.0289750995646432,48.297167777685736,1,c,0.8121144999986427,correct,c
244,4F4K,245,2,34.35319348426407,49.08038127327694,1.021433870608526,51.53690925511483,2,b,1.2066254000001209,correct,b
245,4F4K,246,1,41.40497031945292,24.93419924492359,1.182753237254865,30.82743892511568,2,n,3.804122499999721,correct,n
246,4F4K,247,2,27.464259686050497,45.848445707499565,0.8851094621890464,48.7033856599687,2,b,1.7103545000009035,correct,b
247,4F4K,248,1,54.81994737129062,42.32882662168689,1.563304074910209,45.59570725775773,2,n,1.2976816999998846,correct,n
248,4F4K,249,2,56.52428956841037,37.850801474087255,1.619702317719096,41.65148206920369,1,v,1.0306734000005235,correct,v
249,4F4K,250,2,67.54242410086657,57.17420603706351,2.0367553856678966,58.4058769844077,1,v,0.9396336000008887,correct,v
250,4F4K,251,2,42.07263094484275,49.56049152371125,1.1992886447566131,51.95482683341453,2,b,0.8549175000007381,correct,b
251,4F4K,252,2,62.92124057709351,56.15645311853449,1.850143557152513,57.56758746619395,1,v,0.5511876000000484,correct,v
252,4F4K,253,1,42.93341986572107,60.61654836483267,1.2209487096305662,61.16948939955708,1,n,2.9256258999994316,incorrect,c
253,4F4K,254,2,73.68416680104593,56.59493425503618,2.3142183703812726,57.92983807704183,1,v,1.1124918000004982,correct,v
254,4F4K,255,1,56.77917900179689,47.05103069519024,1.628309979620975,49.76119762335424,2,n,1.4036825999992288,correct,n
255,4F4K,256,2,49.17114971078438,63.48742015676952,1.3900477972298448,63.37714752799933,2,v,1.1824360999999044,incorrect,b
256,4F4K,257,1,51.8556897347111,45.36457365521916,1.4698517913667322,48.27692355644085,2,c,1.0306146999992052,incorrect,n
257,4F4K,258,2,60.34038571479755,74.51888027500955,1.7534685702062796,70.81062933674154,2,b,0.8783598000009079,correct,b
258,4F4K,259,1,49.6725432469993,65.72256060649521,1.4046165094623917,65.02597764510344,1,n,3.1441295000004175,incorrect,c
259,4F4K,260,2,51.14926036891443,31.793929467715238,1.4484177993577658,36.428669085714375,1,v,2.6706678999998985,correct,v
260,4F4K,261,2,33.84074989845333,24.58225008328221,1.0106072934949866,30.55236480310195,1,b,0.9026047000006656,incorrect,v
261,4F4K,262,2,35.285362265586464,47.55403790239942,1.0414263881358747,50.20256738734317,2,v,1.8005335000016203,incorrect,b
262,4F4K,263,2,34.7768852953126,51.49564560701612,1.0304728959648586,53.62865185220289,2,b,2.2473755000009987,correct,b
263,4F4K,264,1,37.09901199750592,23.14882977863856,1.0814525448839014,29.44651961355508,2,c,1.220321700000568,incorrect,n
264,4F4K,265,1,42.89158918697068,63.42231839660594,1.2198871358661474,63.32816831679552,1,c,1.0974707000004855,correct,c
265,4F4K,266,2,55.46384429763656,48.6784443818038,1.584376632826538,51.1863347859463,1,v,2.6343539000008604,correct,v
266,4F4K,267,2,51.37801989514457,33.75628621328102,1.4553242214799518,38.09949543257018,1,v,1.473515399999087,correct,v
267,4F4K,268,2,52.32016523461536,36.32199292212268,1.4841171297065252,40.31668164861824,1,v,0.4844257999993715,correct,v
268,4F4K,269,1,65.87863628054694,48.25305535046007,1.9674937985294387,50.8146546368473,2,n,3.549296699999104,correct,n
269,4F4K,270,2,68.43335478409668,53.96952871744892,2.074840798626378,55.73808001837744,1,v,1.3037652999992133,correct,v
270,4F4K,271,1,36.83591274741655,27.267012660787337,1.0755520787358883,32.68376595007226,2,c,1.5646833999999217,incorrect,n
271,4F4K,272,1,41.59734109285084,27.41153356525353,1.187494007216088,32.800563153006735,2,n,1.5346355000001495,correct,n
272,4F4K,273,1,36.85071637451728,57.29406114354644,1.0758832198787276,58.504004251958726,1,c,1.3826535000007425,correct,c
273,4F4K,274,2,59.601617989656894,48.82644981521646,1.7267372125024163,51.31549872770825,1,v,3.253367299999809,correct,v
274,4F4K,275,1,76.77554944041391,64.81601837020867,2.4678701429669285,64.36505554219018,2,n,1.8438780999986193,correct,n
275,4F4K,276,2,57.13751119539007,69.92106131523485,1.640488335594226,67.9365031210654,2,b,2.579683699999805,correct,b
276,4F4K,277,1,40.36127418319231,54.40672694482543,1.157360430789676,56.10669437416693,1,n,1.924282600000879,incorrect,c
277,4F4K,278,2,32.63206262579829,49.95375450909904,0.9855232955019044,52.29641954166503,2,b,1.8980471000013495,correct,b
278,4F4K,279,2,59.79617235004544,43.72940152350204,1.733737126909774,46.83341069060877,1,v,1.3234148999999888,correct,v
279,4F4K,280,2,44.4768623051211,56.13696780925784,1.2607706621897872,57.55145238084376,2,v,2.1305069999998523,incorrect,b
280,4F4K,281,1,46.68791549710414,66.19279567343689,1.3200910734171376,65.3644559919963,1,c,2.1116009999987,correct,c
281,4F4K,282,2,32.220824532418334,49.62759172685011,0.9771315685304816,52.01315845100931,2,b,3.247368099999221,correct,b
282,4F4K,283,2,63.12094045802286,49.39582555696621,1.8578425159643308,51.811598434809405,1,v,3.0591451000000234,correct,v
283,4F4K,284,2,47.92991474979036,43.43621741244213,1.354628676969159,46.57435257822871,1,b,1.661887400001433,incorrect,v
284,4F4K,285,2,41.14017128324438,51.65474028915343,1.1762584919729682,53.76541346109711,2,v,2.0077525000015157,incorrect,b
285,4F4K,286,1,59.42714656713369,47.86444844917754,1.7204839064091857,50.47456836118828,2,n,0.8849790999993274,correct,n
286,4F4K,287,1,39.1052229738144,48.95143403826113,1.1275228642737043,51.424507472506754,1,c,1.0488298999989638,correct,c
287,4F4K,288,2,68.04939143084898,54.90490619709567,2.058340619573533,56.52503419158477,1,v,1.0063733000006323,correct,v
288,4F4K,289,2,69.54748260714987,52.79756074485708,2.1234711061450957,54.74352369136463,1,v,0.9825507999994443,correct,v
289,4F4K,290,1,37.83713101395436,25.213480423969685,1.098179534202942,31.046681860759467,2,n,1.0859213000003365,correct,n
290,4F4K,291,2,43.05644012837148,47.36374662454469,1.224076058966329,50.03567865203527,2,b,1.0063960000006773,correct,b
291,4F4K,292,2,42.79945035668988,61.07042443296566,1.2175521025579183,61.52478760135091,2,b,2.5978555000001506,correct,b
292,4F4K,293,1,57.18600413149089,73.95244289282049,1.64214340925961,70.47551878002025,1,n,1.6996877000001405,incorrect,c
293,4F4K,294,1,39.863929666978905,51.99152419215543,1.1454527034759834,54.0544537696376,1,c,0.927426899999773,correct,c
294,4F4K,295,2,45.801838478969024,52.2213120206994,1.2959905103271436,54.251292175014,2,b,1.6012111000000004,correct,b
295,4F4K,296,2,66.47051304139057,48.922169026446014,1.991858814888208,51.39898849260141,1,v,1.4858337000005122,correct,v
296,4F4K,297,1,49.984506953501736,40.35588542842042,1.41375802020787,43.85372593120336,2,c,2.974760299999616,incorrect,n
297,4F4K,298,1,70.00508893936689,53.588613108666166,2.14377377046708,55.4158306180008,2,n,0.8233811999998579,correct,n
298,4F4K,299,2,67.7816627143741,55.50353630025401,2.04691313716244,57.0252451586253,1,b,0.7271980999994412,incorrect,v
299,4F4K,300,2,50.23641774942816,63.97753206332864,1.4211831930006176,63.74418844536232,2,b,0.9998629000001529,correct,b
300,4F4K,301,2,38.31253709111,52.04909441482433,1.1090897472558503,54.103797840351056,2,b,0.9215175999997882,correct,b
301,4F4K,302,1,42.17097030506922,57.338611143320215,1.201743590725257,58.54044531947218,1,c,2.6585713000004034,correct,c
302,4F4K,303,1,59.01059204555294,36.869365564074805,1.7056454197726856,40.79359404944981,2,n,1.5614735999988625,correct,n
303,4F4K,304,1,47.43019240839553,35.24940416874948,1.3406250275426883,39.3858617746775,2,n,1.5904537000005803,correct,n
304,4F4K,305,1,41.15947770008037,54.29158098453844,1.1767308141594717,56.00974367138922,1,c,0.9935284000002866,correct,c
305,4F4K,306,2,60.89128331419399,38.33184085948061,1.7736710884076483,42.073123997338335,1,v,2.410440900001049,correct,v
306,4F4K,307,2,49.67047630020859,36.91497223876269,1.404556139007533,40.83338291689397,1,v,0.9638868000001821,correct,v
307,4F4K,308,2,31.148014470551527,50.31431469451931,0.9555746150903895,52.60899541159617,2,v,1.565246099999058,incorrect,b
308,4F4K,309,2,54.346237407116,40.78063599383164,1.5479803115095505,44.228396243762575,1,b,1.0306662000002689,incorrect,v
309,4F4K,310,1,43.83516094077487,38.05841050530806,1.244058931650997,41.83336975206448,2,c,2.1973538999991433,incorrect,n
310,4F4K,311,2,50.29474832926945,57.01880337059831,1.4229080634729288,58.278456599514925,2,v,1.6982214999989083,incorrect,b
311,4F4K,312,1,52.93735435773485,61.07328964668128,1.5032871699445725,61.52702331718651,1,n,1.9587487999997393,incorrect,c
312,4F4K,313,2,43.087735160374194,62.27340550557106,1.2248729002721033,62.45530973237088,2,b,2.245926400000826,correct,b
313,4F4K,314,2,40.45865263860684,50.15834966186122,1.1597063767795197,52.473860321299206,2,b,1.5161846999999398,correct,b
314,4F4K,315,1,61.92268403722493,68.13472729553561,1.8121225450150515,66.72953328369383,1,c,1.1948990000000776,correct,c
315,4F4K,316,2,36.096707340414525,53.11470422244173,1.0591458136192922,55.01354802961522,2,v,2.3308761000007507,incorrect,b
316,4F4K,317,1,43.0940550389126,31.23789581902907,1.2250338814167274,35.9599033322885,2,n,2.1379527999997663,correct,n
317,4F4K,318,1,49.33056960010156,53.517502906429705,1.394663512432602,55.35556296634336,1,c,0.959270800000013,correct,c
318,4F4K,319,2,48.86155737951944,66.67680554335358,1.3811277029337534,65.70967551732278,2,b,2.487920600000507,correct,b
319,4F4K,320,1,53.83827947779198,58.89713526124724,1.5317155292782647,59.80371220009755,1,c,1.7300372000008792,correct,c
320,4F4K,321,2,52.80986138234695,68.14951526004478,1.4993070206527022,66.73972066623615,2,b,2.1668330000011338,correct,b
321,4F4K,322,2,77.52066891935061,58.32016315431065,2.50640589426088,59.3387255036975,1,v,2.1316803000008804,correct,v
322,4F4K,323,1,28.50996139153542,38.49988299962781,0.9045667312971342,42.22057756028687,1,c,1.7505266000007396,correct,c
323,4F4K,324,1,63.103595391364,52.838433669885184,1.8571725491859872,54.77835974440222,2,c,2.3059549999998126,incorrect,n
324,4F4K,325,1,67.64587387528191,52.06708485029967,2.041141524187572,54.11921370234886,2,n,1.1104159000005893,correct,n
325,4F4K,326,1,65.67674327304198,52.144594295268,1.959251088033093,54.18560937338108,2,n,0.6181314999994356,correct,n
326,4F4K,327,2,45.24290051278449,31.704020293274304,1.2810146860435805,36.35272264384617,1,v,2.2944451000003028,correct,v
327,4F4K,328,2,38.36088128908525,56.613943483330125,1.1102052639656694,57.94550574576587,2,v,1.7467775999994046,incorrect,b
328,4F4K,329,2,37.72090772134526,49.602599021429015,1.095528663522332,51.9914340177439,2,b,1.237060499999643,correct,b
329,4F4K,330,1,57.59598244104005,75.14798369521776,1.6562029530738167,71.17632389857603,1,n,1.6550556999991386,incorrect,c
330,4F4K,331,2,43.40593491183233,59.19069872194761,1.2330044848841335,60.03904298772459,2,v,0.9278135000004113,incorrect,b
331,4F4K,332,2,45.92843135599386,60.34448570192978,1.2994066023126192,60.95544306698192,2,b,0.8425234999995155,correct,b
332,4F4K,333,2,49.13929685435454,30.494281989911148,1.3891273879012629,35.33653378849679,1,v,1.1458984999990207,correct,v
333,4F4K,334,1,33.9374310950388,47.64267412109111,1.0126410913879331,50.28026616808602,1,c,1.2675700999989203,correct,c
334,4F4K,335,2,40.39534200942211,50.43145643152372,1.1581806191654198,52.71041678135538,2,v,0.9940831999992952,incorrect,b
335,4F4K,336,1,45.05647394343643,35.868394954031736,1.2760582774163112,39.922410459875685,2,n,1.0488461000004463,correct,n
336,4F4K,337,2,28.31584271122437,39.31316664278727,0.9009227308754878,42.93527087440626,2,v,1.2248096999992413,incorrect,b
337,4F4K,338,2,62.805640783952136,44.42826132434963,1.845701467495724,47.45070162353516,1,v,1.15265349999936,correct,v
338,4F4K,339,2,75.51274010100272,61.97981314162348,2.403908865337608,62.22974287934285,1,v,1.6921626000003016,correct,v
339,4F4K,340,1,56.72550886897602,39.35891616402081,1.6264937358068252,42.97552201437257,2,n,1.0792366999994556,correct,n
340,4F4K,341,1,55.13085624085875,68.32838341591372,1.5734438410153353,66.86268788534667,1,c,0.9821087000000261,correct,c
341,4F4K,342,2,45.193077971354505,56.0732736033217,1.2796882028567886,57.49868760745731,2,b,1.2612785000001168,correct,b
342,4F4K,343,1,34.798273473966944,57.26099715490505,1.0309313055319955,58.4769470409257,1,n,2.088124699999753,incorrect,c
343,4F4K,344,1,60.74191747955915,43.13114741544899,1.7681706564929498,46.30475854299287,2,n,1.886331199999404,correct,n
344,4F4K,345,2,70.19201846342514,53.94803568166946,2.1521230290796587,55.71992383006627,1,b,1.7771166000002268,incorrect,v
345,4F4K,346,2,56.28176483489664,40.32403192424867,1.6115544624234797,43.825639121171285,1,v,2.093326900001557,correct,v
346,4F4K,347,2,44.70268467604353,29.10451550962852,1.2667049671614905,34.183139736821666,1,b,1.534463300000425,incorrect,v
347,4F4K,348,1,24.615238085786796,43.34700683667472,0.8341953309944932,46.495518870267134,1,n,1.8014269999985117,incorrect,c
348,4F4K,349,1,42.66670622530986,57.558704737764735,1.2141958831907853,58.72021538547469,1,c,1.5222536000001128,correct,c
349,4F4K,350,2,37.82593266877874,46.49592756105324,1.0979238385486152,49.27333397608548,2,b,1.0309056000005512,correct,b
350,4F4K,351,2,47.0109169580759,69.63277699447374,1.328987475642472,67.744990892873,2,v,1.6738898000003246,incorrect,b
351,4F4K,352,1,55.68671698761686,61.912922450725645,1.5917364793560675,62.17821071260281,1,n,1.9075731000011729,incorrect,c
352,4F4K,353,1,44.142669616864936,64.833714027298,1.252039509213295,64.37806062641046,1,c,1.6314566000000923,correct,c
353,4F4K,354,2,63.14995275928301,46.71552141802699,1.858963679079848,49.46642001018292,1,v,0.9702245999997103,correct,v
354,4F4K,355,2,53.1555353255008,37.34264532482749,1.510122997338832,41.20687412936283,1,v,4.702324200001385,correct,v
355,4F4K,356,1,51.27552446258131,34.34888817517821,1.4522257446339943,38.60862152524701,2,n,1.2369753000002675,correct,n
356,4F4K,357,1,46.903045897806805,59.130852516856905,1.3260097439990035,59.9911379004696,1,c,0.7575228000005154,correct,c
357,4F4K,358,2,51.448508957505325,65.18327251859682,1.4574589690882471,64.63411953467985,2,v,1.1753645000007964,incorrect,b
358,4F4K,359,2,59.40897919753745,48.95742686953325,1.7198340650469996,51.4297327901114,1,b,1.0670669000010093,incorrect,v
359,4F4K,360,1,40.64899015902238,57.334726365443686,1.1643055409393337,58.5372683519472,1,n,1.1397852999998577,incorrect,c
360,4F4K,361,2,36.43459045525132,53.0885777305348,1.06661366293817,54.9913275187294,2,b,3.2046140000002197,correct,b
361,4F4K,362,1,49.0141411022033,58.962900367927496,1.3855168276868215,59.856506273971256,1,c,2.9870778000004066,correct,c
362,4F4K,363,1,49.84338005475816,64.81468706306924,1.409615215130119,64.36407695807635,1,c,0.6678828000003705,correct,c
363,4F4K,364,2,43.64302735657919,63.36530506998153,1.2390984519922803,63.285231453837696,2,v,1.2301830999986123,incorrect,b
364,4F4K,365,1,68.89819760029415,51.827610281715465,2.094993732680972,53.91385707661973,2,n,1.389223000000129,correct,n
365,4F4K,366,2,57.14020570129517,37.68230570279417,1.6405802558383713,41.50396250454818,1,v,2.7617890999990777,correct,v
366,4F4K,367,1,64.85344000970548,52.54068253172248,1.9259939886443356,54.52434824839673,2,n,1.0018280999993294,correct,n
367,4F4K,368,1,57.20922970148826,42.80038456355203,1.64293669392031,46.01244158933791,2,c,0.8793050999993284,incorrect,n
368,4F4K,369,2,54.1002978078805,58.34922141157262,1.5400838857828985,59.36222068121058,2,v,3.126553399999466,incorrect,b
369,4F4K,370,2,70.9654495047071,52.06366744401589,2.187015560530024,54.11628549855095,1,v,1.1210949999986042,correct,v
370,4F4K,371,2,63.44433486958525,71.17385544900313,1.8703782339545447,68.75369854840935,2,v,1.0548808000003191,incorrect,b
371,4F4K,372,1,66.2297240859675,47.828762047678346,1.9819103742340145,50.44331299128104,2,c,1.6193234999991546,incorrect,n
372,4F4K,373,1,26.19706283830713,47.96057187188865,0.8620908898633198,50.55873626465476,1,n,0.9572509999998147,incorrect,c
373,4F4K,374,2,41.4823279930958,59.83001745946472,1.1846573541807883,60.54853061636644,2,v,0.7211085999988427,incorrect,b
374,4F4K,375,2,31.443795553008705,50.780578548103264,0.96147007897353,53.012292299577325,2,b,0.6361637999998493,correct,b
375,4F4K,376,2,34.177822469775464,54.806708009744085,1.0177157527973508,56.4427191821196,2,b,0.5993436999997357,correct,b
376,4F4K,377,2,43.13422722516223,61.87647258343941,1.2260576497494815,62.15010821567255,2,v,1.0913151999993715,incorrect,b
377,4F4K,378,1,45.07536357899849,53.70339835627621,1.2765596101960008,55.5130419048059,1,n,1.4791195999987394,incorrect,c
378,4F4K,379,2,72.68047314314698,56.95225084679618,2.2664183604843315,58.2238226853917,1,v,0.8303980000000593,correct,v
379,4F4K,380,2,34.0462495439837,48.31702881358498,1.0149351063726637,50.87059179934829,2,b,1.2006915000001754,correct,b
380,4F4K,381,2,55.9700869042613,64.8295032984509,1.6011434935367097,64.37496640280422,2,v,0.5997435000008409,incorrect,b
381,4F4K,382,2,43.67596260184681,54.31265077597865,1.239947362986363,56.02749116650624,2,b,3.477988299999197,correct,b
382,4F4K,383,2,64.99218623511263,50.9117073939674,1.931558787516212,53.12551896748786,1,v,1.15218939999977,correct,v
383,4F4K,384,2,53.92160005373967,59.97027173414472,1.5343716840584452,60.65973910466558,2,v,1.2067932999998447,incorrect,b
384,4F4K,385,2,34.45273778280003,40.76440194258289,1.0235503932859895,44.214071562533306,2,b,1.9106587000005675,correct,b
385,4F4K,386,1,57.12813451420592,52.0423003876947,1.6401685000892838,54.097975603506974,2,n,2.7981920999991416,correct,n
386,4F4K,387,2,67.49867718112023,49.54213572873314,2.034903408848269,51.93886640938174,1,v,0.7261704000011378,correct,v
387,4F4K,388,2,62.49989459345285,56.13437946661385,1.8340040665109756,57.54930883081119,1,v,0.8902649999999994,correct,v
388,4F4K,389,2,56.904560449299176,46.79421967992072,1.632560903776328,49.5355898497498,1,v,2.531968000001143,correct,v
389,4F4K,390,2,65.85212143091086,45.9469691387152,1.9664092985813817,48.79016717171114,1,v,0.8499924999996438,correct,v
390,4F4K,391,2,42.12152561952304,53.65031346774411,1.2005086250022972,55.4680955723123,2,b,0.8478857999998581,correct,b
391,4F4K,392,2,54.22032401013387,73.37915248406873,1.543932543090884,70.13078310294519,2,b,1.2373812000005273,correct,b
392,4F4K,393,1,57.59558669831805,51.79363903673136,1.6561893238406922,53.88469920459656,2,c,1.2126566000006278,incorrect,n
393,4F4K,394,1,39.56799519569587,55.35159980738553,1.1384254787651225,56.898550996924776,1,c,0.6118683999993664,correct,c
394,4F4K,395,1,37.82072908349364,62.26467795138737,1.097805043562502,62.448618878589,1,c,0.9334667999992234,correct,c
395,4F4K,396,1,45.36235616702523,61.99763771151447,1.2842006953741096,62.243466080613416,1,n,0.9083594000003359,incorrect,c
396,4F4K,397,2,28.66156042342509,42.29562024808002,0.9074227988300048,45.56636352352366,2,b,1.2795912000001408,correct,b
397,4F4K,398,1,49.35641762738797,64.5592092191673,1.3954133380587652,64.17585969883741,1,n,0.8805264999991778,incorrect,c
398,4F4K,399,1,51.79816880854397,39.34725107506067,1.4680947320424993,42.965258441810896,2,n,1.5525907999999617,correct,n
399,4F4K,400,1,30.523088564540224,37.27576993179117,0.9432372878983823,41.148427601100295,1,c,1.3527331000004779,correct,c
