,condition,trial,sub_task,x,y,xt,yt,cat,resp,rt,acc,correct_resp
0,4F4K,1,2,66.69308455090419,59.3833492309188,2.0010989907531385,60.369720845513854,1,v,5.0,NA,v
1,4F4K,2,2,64.11068196355646,44.30557029148576,1.8964751383710967,47.37745194197353,1,v,2.007791100000759,correct,v
2,4F4K,3,2,30.80117486241048,48.11297571323205,0.9487074923287986,50.76413064515944,2,b,3.890595500000927,correct,b
3,4F4K,4,2,61.94774330885837,79.15278453903181,1.8130670752877796,73.66062520193607,2,v,2.305659400000877,incorrect,b
4,4F4K,5,2,67.08833475255857,43.65228790433245,2.0176137917100005,46.794009133450544,1,v,5.0,incorrect,v
5,4F4K,6,2,41.6879078348187,33.627420491616306,1.1897325010422608,37.921059143186085,1,b,5.0,incorrect,v
6,4F4K,7,1,67.45080471994966,79.42961936868996,2.032878711458966,73.80082525284334,1,c,3.439980299999661,correct,c
7,4F4K,8,1,55.44752950138237,40.56119386562932,1.583839213683222,44.03343561392157,2,c,3.4164689000008366,incorrect,n
8,4F4K,9,2,43.04824689978647,50.9235469194532,1.2238675267324488,53.23467530620667,2,b,5.0,incorrect,b
9,4F4K,10,2,32.8330025049987,40.11826431279276,0.9896498482126128,43.63858114259548,2,v,2.895302200000515,incorrect,b
10,4F4K,11,2,53.65183710443748,72.2480003596123,1.525788625798658,69.71297584943532,2,v,3.053071500000442,incorrect,b
11,4F4K,12,1,57.12386078861356,67.94089698798854,1.6400227454058565,66.84298066218595,1,c,5.0,incorrect,c
12,4F4K,13,1,37.35541789779412,54.22319295021421,1.087234044483347,56.08209242004644,1,c,5.0,incorrect,c
13,4F4K,14,2,50.39292890121716,38.647605749464894,1.4258160508624032,42.330342986835,1,v,2.9256686000007903,correct,v
14,4F4K,15,2,39.4739444124146,51.04111355288316,1.136201200453336,53.33722752775167,2,b,3.13803210000151,correct,b
15,4F4K,16,1,60.90551070586691,48.38523779108103,1.7741959071484468,51.00484842890647,2,c,3.502245399999083,incorrect,n
16,4F4K,17,1,48.77321549077448,37.98023854514206,1.3785928755498558,41.738492511893696,2,c,2.7132498000009946,incorrect,n
17,4F4K,18,2,64.27155888054277,44.52266420609055,1.9028301191102104,47.571257792334016,1,v,2.246096900000339,correct,v
18,4F4K,19,1,22.838851495400824,33.07560154402911,0.803943235488406,37.44400632148524,1,n,3.9817069999990053,incorrect,c
19,4F4K,20,1,57.58310962069384,46.65602477502741,1.6557596754047996,49.47204040952515,2,n,2.9377852999987226,correct,n
20,4F4K,21,2,27.09684117983018,40.512006858949775,0.8783727697087713,43.98957193660964,2,b,4.957197899999301,correct,b
21,4F4K,22,1,59.13127686005336,47.15051197341941,1.70993123215814,49.91125605643303,2,c,2.8894663999999466,incorrect,n
22,4F4K,23,1,56.69329339782989,45.93975286703284,1.625404509457491,48.83478892299436,2,n,5.0,incorrect,n
23,4F4K,24,1,49.78948390938222,70.56909354249707,1.4080362895611374,68.62903715834145,1,n,2.537221700000373,incorrect,c
24,4F4K,25,2,36.50675974640809,43.533965343156105,1.068215551187335,46.688307222983454,2,b,3.836100099999385,correct,b
25,4F4K,26,1,49.12872711908697,30.91490579507081,1.3888221031069414,35.5952952968001,2,n,2.9446250000000873,correct,n
26,4F4K,27,2,69.91619091930484,49.8535305542426,2.139814488750178,52.29815761220576,1,v,2.196515999999974,correct,v
27,4F4K,28,1,42.13692042043079,58.38310282690895,1.2008930004097045,59.5574632684887,1,c,3.714597700000013,correct,c
28,4F4K,29,1,69.40656196215062,57.295033351385726,2.117257674437929,58.66290656441336,2,n,4.338786099999197,correct,n
29,4F4K,30,2,21.926227446859023,37.43036470856391,0.788830272505956,41.25188257192775,2,b,4.382150499999625,correct,b
30,4F4K,31,2,45.79224407728765,64.43032660474773,1.2957319730850525,64.30014201208783,2,v,5.0,correct,b
31,4F4K,32,1,59.289973316722026,43.74152450449217,1.715583326127354,46.87372278344683,2,n,2.690243900000496,correct,n
32,4F4K,33,2,45.072157369752304,59.97402175310047,1.2764745032120728,60.84459767588594,2,v,4.587017799998648,incorrect,b
33,4F4K,34,2,73.24272290330572,58.40512103541248,2.2930720514869583,59.57544972549993,1,v,1.9257925000001705,correct,v
34,4F4K,35,1,54.93303918107412,66.84621599299714,1.5669847890554716,66.0685673162689,1,n,2.6525420999987546,incorrect,c
35,4F4K,36,2,67.14483813062245,47.6761312985112,2.019985789771732,50.377380715607934,1,v,2.326125300000058,correct,v
36,4F4K,37,1,52.30281692672779,61.657226370013255,1.4835818340966684,62.177162787077215,1,n,5.0,correct,c
37,4F4K,38,1,49.98240600494779,29.351141700606743,1.4136962573008829,34.278974220613186,2,c,3.4354261999997107,incorrect,n
38,4F4K,39,2,27.900685650535745,42.26384635626198,0.8931785869361658,45.5534962522468,2,v,3.7432841999998345,incorrect,b
39,4F4K,40,1,31.006634783223078,43.95027072716276,0.9527694391827708,47.06017393294627,1,c,4.3381147000000055,correct,c
40,4F4K,41,1,47.95000376982726,62.39023174681435,1.3551946769898109,62.74741595165006,1,n,5.0,correct,c
41,4F4K,42,2,58.45026918133964,44.011313672650296,1.6858872751798,47.11469165482687,1,v,1.764793299998928,correct,v
42,4F4K,43,1,63.66504640019218,74.75661469567304,1.878982189765068,71.24488532814692,1,n,2.1025707999997394,incorrect,c
43,4F4K,44,1,29.299655304850845,37.86887219794736,0.9195434550850354,41.63985894997645,1,c,5.0,incorrect,c
44,4F4K,45,1,58.56340915262913,45.54394617612022,1.6898582971574985,48.48219560482163,2,n,5.0,incorrect,n
45,4F4K,46,2,64.22366568249906,43.26046501863838,1.9009360128945705,46.4439576563175,1,v,1.4129564999984723,correct,v
46,4F4K,47,2,63.39491843789863,52.05146574424524,1.868457246982556,54.21545824319843,1,v,1.5236402000009548,correct,v
47,4F4K,48,2,32.53520642810427,43.59781629034849,0.9835403820903283,46.74534845888381,2,b,2.7212997000006,correct,b
48,4F4K,49,2,55.577888659562106,38.5742210213966,1.5881384183205702,42.26519963535048,1,v,2.440665000000081,correct,v
49,4F4K,50,1,62.96044287409208,48.119606377911886,1.8516523884571745,50.7699961110394,2,n,2.057777800000622,correct,n
50,4F4K,51,1,46.59505317826756,69.06049510466377,1.31754441388885,67.61675536808613,1,c,2.2641177999994397,correct,c
51,4F4K,52,1,34.61467529431659,42.3933076246144,1.0270029023895344,45.66915973743899,1,c,3.5869557000005443,correct,c
52,4F4K,53,2,58.08859891588774,51.35487143952571,1.6732557447425973,53.61055838987468,1,v,1.6376978000007512,correct,v
53,4F4K,54,2,39.79152822872281,49.626480072489954,1.1437294697456983,52.09874774100376,2,b,1.5980557999992016,correct,b
54,4F4K,55,2,46.48530003592556,30.396899778781624,1.314540873664024,35.1570958895845,1,v,1.7922574000003806,correct,v
55,4F4K,56,2,63.93031093082773,43.97357190710668,1.8893753327363223,47.08098463717944,1,v,0.8076037999999244,correct,v
56,4F4K,57,2,62.329643728848325,39.09581271722459,1.827522681749419,42.728522320433285,1,v,0.994185199999265,correct,v
57,4F4K,58,2,49.51996821088375,39.83920994855413,1.4001671324870235,43.38998951007936,1,v,1.6010781999993924,correct,v
58,4F4K,59,1,42.81629520547455,59.53839095376244,1.217978659929597,60.49471933426236,1,c,5.0,correct,c
59,4F4K,60,2,51.144634141555,38.935356270286015,1.4482784687112626,42.58591660121811,1,v,1.3886556999987079,correct,v
60,4F4K,61,2,37.3198286199852,27.92262970808445,1.086429725641995,33.09460359844485,1,b,1.9925307000012253,incorrect,v
61,4F4K,62,1,64.90916816250171,46.77712417723307,1.928227190360394,49.57966220644328,2,n,1.65135680000094,correct,n
62,4F4K,63,1,53.68710218101265,39.14168585870972,1.5269079223546451,42.76930368061929,2,n,5.0,correct,n
63,4F4K,64,1,39.256203435704194,44.24599627843603,1.1310683418738965,47.32426055585854,1,c,1.5525560999994923,correct,c
64,4F4K,65,2,41.156175345036914,52.36939261165927,1.176650010190395,54.490602048938,2,b,2.9209795000006125,correct,b
65,4F4K,66,1,63.60827431538807,44.080816884223445,1.876765280614992,47.17676188758917,2,n,1.7527996999997413,correct,n
66,4F4K,67,1,38.32818246743639,53.1761594859172,1.1094506332836551,55.1860057688988,1,c,1.8392813999998907,correct,c
67,4F4K,68,1,45.10890583591156,34.21760595631254,1.2774503104238546,38.433262207918425,2,c,2.2417270000005374,incorrect,n
68,4F4K,69,1,49.5223401166493,64.58015281874594,1.4002361937848642,64.41209589539656,1,n,1.9766126999984408,incorrect,c
69,4F4K,70,1,53.54333896238192,65.35503134077508,1.5223500898878737,64.98637933713808,1,c,2.423465700001543,correct,c
70,4F4K,71,1,41.99026971399579,55.269856793878965,1.1972364365461663,56.96996719283901,1,c,2.421929199999795,correct,c
71,4F4K,72,2,36.66326421913988,53.17337192742188,1.071697635202115,55.18361016378891,2,b,1.862207899999703,correct,b
72,4F4K,73,2,32.66544541676838,22.16544176804898,0.986207659256578,28.531563822083264,1,v,1.9675253000004886,correct,v
73,4F4K,74,2,73.58399332252856,58.53841071396539,2.3094027576100253,59.68423216078602,1,v,1.8076185999998415,correct,v
74,4F4K,75,2,48.93123166691703,62.88722080498452,1.383130180856187,63.13042372512089,2,b,1.4948941000002378,correct,b
75,4F4K,76,1,55.44927344986762,70.23937766060018,1.5838966516864754,68.41083528386265,1,n,1.701149999998961,incorrect,c
76,4F4K,77,2,46.7201596906645,55.99287300867908,1.3209764901696976,57.57832001195898,2,b,3.1858119999997143,correct,b
77,4F4K,78,1,40.92044234071277,47.935599249389874,1.1708962679254666,50.60716937107441,1,c,2.8345580999994127,correct,c
78,4F4K,79,2,42.97955499267941,49.46799203031249,1.2221205924670069,51.95942051466859,2,b,2.3005564999984927,correct,b
79,4F4K,80,1,57.78449369412473,43.29708684466773,1.6627079791515935,46.47667760130374,2,n,1.9500961999983701,correct,n
80,4F4K,81,2,54.71866343577064,47.99242771380249,1.560015002145973,50.65746851440925,1,v,2.90073029999985,correct,v
81,4F4K,82,2,64.10542627682833,49.65251064708528,1.8962678859519293,52.12162091766575,1,v,2.0623335000000225,correct,v
82,4F4K,83,1,37.75279760054874,28.193932807049443,1.0962553839029756,33.31812544643288,2,c,3.2230135000008886,incorrect,n
83,4F4K,84,1,31.14785280031401,46.00178235060076,0.9555714026086608,48.890018934183495,1,c,1.6374992999990354,correct,c
84,4F4K,85,2,64.13914168813012,51.788929668324975,1.8975978108514424,53.98780340324476,1,v,1.396257099999275,correct,v
85,4F4K,86,2,73.6187864977055,56.01187070920356,2.311074223721472,57.59424751979522,1,v,1.0384834999986197,correct,v
86,4F4K,87,2,24.83433746773637,39.39021905793791,0.8380046323470633,42.99033648073631,2,b,1.810502299998916,correct,b
87,4F4K,88,2,50.81236960177168,32.04964261076415,1.438306444495197,36.56217791005543,1,v,1.18762869999955,correct,v
88,4F4K,89,1,41.32541834296536,54.68109510147725,1.1807983006795704,56.47153891919244,1,c,3.1561262999985047,correct,c
89,4F4K,90,1,37.8805505412071,57.58017480460328,1.099171510341804,58.89840224791175,1,c,1.7517637999990257,correct,c
90,4F4K,91,2,69.63216425152382,50.6839084225044,2.1272136318013577,53.02542115150278,1,v,0.831860799999049,correct,v
91,4F4K,92,1,35.932674251852376,48.38931364149549,1.0555392511473969,51.00845008108961,1,c,2.004678799999965,correct,c
92,4F4K,93,1,33.05588174352436,38.688719629519966,0.9942471676619852,42.36684602608922,1,c,2.0198047000012593,correct,c
93,4F4K,94,2,34.8418782361993,40.45928400760536,1.0318665115142067,43.9425591544919,2,b,1.7679959000015515,correct,b
94,4F4K,95,2,42.84675979140269,58.04875121232859,1.21875048564313,59.28376141430772,2,b,1.8941498000003776,correct,b
95,4F4K,96,2,41.88335339753856,61.99294619755827,1.194577622629068,62.4391232139094,2,b,1.224896899999294,correct,b
96,4F4K,97,2,45.88159985918453,55.33055604223468,1.298141812451595,57.0212009150096,2,b,1.0140919000004942,correct,b
97,4F4K,98,1,55.20083484052391,38.22283059320738,1.575735126655609,41.9534820100195,2,n,1.0557021999993594,correct,n
98,4F4K,99,2,59.8667134334347,68.50680644424806,1.736282143714123,67.23643992622262,2,v,0.9291893000008713,incorrect,b
99,4F4K,100,1,45.58569989454292,34.791731458163696,1.2901787828311713,38.93337378709016,2,n,4.484011900000041,correct,n
100,4F4K,101,1,29.19097810956508,42.98798537287488,0.9174677446859912,46.20050058605174,1,c,2.308907500000714,correct,c
101,4F4K,102,1,41.395068793022205,53.59758802622811,1.1825097376262372,55.54758357298364,1,n,2.0007019999993645,incorrect,c
102,4F4K,103,1,64.30498503743875,51.49598337787329,1.9041531930734892,53.73331516718044,2,n,1.5160842000004777,correct,n
103,4F4K,104,1,50.63353981888944,38.59574414135048,1.4329678031602815,42.284304100609205,2,n,2.1936523000003945,correct,n
104,4F4K,105,1,45.770254496623785,59.87934341186302,1.2951396215071551,60.76872582063794,1,c,1.2382032999994408,correct,c
105,4F4K,106,1,44.24433660888364,32.340088982157354,1.2546892529662803,36.81111688414286,2,n,2.173084600000948,correct,n
106,4F4K,107,2,35.17025897303535,50.116678418414686,1.0389367088786834,52.52898051757816,2,b,1.9485700000004726,correct,b
107,4F4K,108,1,45.49090443355532,56.27909918862454,1.2876380664927898,57.81797072634434,1,n,2.7157974999990984,incorrect,c
108,4F4K,109,1,41.58679590886791,62.63021273013821,1.187233640965952,62.93273074467355,1,c,1.6668750999997428,correct,c
109,4F4K,110,2,41.55409505956812,54.080988548149925,1.186426602395261,55.96083711565421,2,b,1.679180200000701,correct,b
110,4F4K,111,1,37.16858494558941,42.023422634871984,1.08301824570849,45.33871462328133,1,c,3.908795999999711,correct,c
111,4F4K,112,2,73.04768079675394,55.44597683469307,2.283790674980513,57.11854263967394,1,v,1.2182424000002356,correct,v
112,4F4K,113,2,62.81666632874244,43.87867646760655,1.8461246795385688,46.99622944509657,1,v,0.8121165000011388,correct,v
113,4F4K,114,1,56.04293530279873,42.01110140239483,1.603570807556764,45.32770825848854,2,n,1.8672403000000486,correct,n
114,4F4K,115,2,61.83314847509123,43.19256440434993,1.8087518022323748,46.38329062835011,1,v,1.3430307999988145,correct,v
115,4F4K,116,1,36.749835804406,52.28097191351954,1.0736286487763245,54.41414071078167,1,c,2.574681599999167,correct,c
116,4F4K,117,2,54.99498935600727,36.77701112821178,1.5690047073214548,40.67507907200191,1,v,1.8030926000010368,correct,v
117,4F4K,118,2,30.5002837719378,51.5493487505329,0.942790099185107,53.77971047576725,2,b,1.5889343999988341,correct,b
118,4F4K,119,2,58.794700787146255,39.716275063893406,1.698005372523255,43.28052198513475,1,v,1.0730509000004531,correct,v
119,4F4K,120,2,43.139249538485466,52.045557924891824,1.2261857010779929,54.21033975790286,2,b,0.8622085000006336,correct,b
120,4F4K,121,1,59.99514458133223,74.47887733038903,1.7409253441590151,71.08060839692212,1,n,2.3609499000012875,incorrect,c
121,4F4K,122,2,58.77019499851641,52.32909412235869,1.6971403173471609,54.4557599952694,1,v,1.4129231999995682,correct,v
122,4F4K,123,2,54.00763975450684,38.33958539563725,1.537119355173334,42.05701541279013,1,v,1.0973444999999629,correct,v
123,4F4K,124,2,55.93328742321737,36.10366248949359,1.599918729263926,40.0823700600387,1,v,1.0305957999989914,correct,v
124,4F4K,125,2,71.56584583392203,63.58612398643491,2.21449137007502,63.66392646415804,1,v,0.6603855999983352,correct,v
125,4F4K,126,1,38.18369595512824,49.34411903196926,1.106122277469502,51.850449116308205,1,c,2.366388399999778,correct,c
126,4F4K,127,1,22.13483052074254,32.29180131046672,0.7922594760637789,36.7696904564552,1,c,2.0760769999997137,correct,c
127,4F4K,128,2,47.33697809262495,35.80720138492552,1.338028961012936,39.82202445035789,1,v,1.0428309999988414,correct,v
128,4F4K,129,2,41.04835431114375,35.49110281618194,1.174014827427176,39.54487180582365,1,v,1.7589017000009335,correct,v
129,4F4K,130,2,49.30890353251049,36.29117584596578,1.39403531172683,40.24723785873181,1,v,0.7711445999993884,correct,v
130,4F4K,131,2,62.10276370205199,71.49764316205022,1.81892103320482,69.23419696714673,2,v,1.1656063000009453,incorrect,b
131,4F4K,132,2,44.80634684908313,59.09997981254886,1.269438414197774,60.14062567440895,2,v,2.502306000000317,incorrect,b
132,4F4K,133,1,49.48612774697192,64.25279812557132,1.399182191735282,64.16711055439278,1,n,2.233791900000142,incorrect,c
133,4F4K,134,2,47.28311649341381,30.00284648467931,1.3365311801176778,34.82516222796832,1,v,2.2055537999985972,correct,v
134,4F4K,135,2,33.36568122244219,44.32724860641001,1.000672881727393,47.3968068740165,2,b,1.6973740000012185,correct,b
135,4F4K,136,1,37.051053185427904,53.1403160043758,1.0803745764034849,55.15519828812574,1,c,2.332410400000299,correct,c
136,4F4K,137,1,63.90183247308845,46.21966676741818,1.8882567893447864,49.08395668951959,2,n,1.323543399999835,correct,n
137,4F4K,138,1,50.73405866337259,60.14710480449244,1.435966168870953,60.98305445314215,1,c,1.637512199999037,correct,c
138,4F4K,139,2,64.1985474471224,43.9675481560168,1.8999433771162495,47.07560475358522,1,v,0.9533941000008781,correct,v
139,4F4K,140,2,61.89136386439616,49.32501638299924,1.8109427215967997,51.833638748311046,1,v,0.6482217000011588,correct,v
140,4F4K,141,2,41.60055228417519,50.91819012384056,1.1875733045935042,53.23000091862982,2,b,1.0429586000009294,correct,b
141,4F4K,142,2,57.19455456394227,48.204949254047065,1.642435410359549,50.84547680681335,1,v,0.9460283000007621,correct,v
142,4F4K,143,2,48.46828711184479,68.63115585053313,1.369879138923276,67.32225559751254,2,b,0.7473222999997233,correct,b
143,4F4K,144,2,57.97959767831415,41.13893751288759,1.6694674097751787,44.54889999464585,1,v,1.0184585000006336,correct,v
144,4F4K,145,1,63.91046211244411,49.85582224426888,1.888595664230636,52.30016915021714,2,n,2.822474399999919,correct,n
145,4F4K,146,1,72.13553832434522,52.338498343674814,2.240881173793923,54.46389175923745,2,n,0.9820904000007431,correct,n
146,4F4K,147,1,57.43756915531229,44.001252776301584,1.6507562116092194,47.10570641148512,2,n,1.7103229999993346,correct,n
147,4F4K,148,2,49.71564840718037,31.0190934824152,1.4058760971345994,35.68367896241671,1,v,2.258021600000575,correct,v
148,4F4K,149,1,35.30309623789184,53.704366496155856,1.0418105032524276,55.6390068916652,1,c,2.270839099999648,correct,c
149,4F4K,150,2,47.49648959691968,31.71136170891214,1.3424745028876162,36.27297145143258,1,b,2.1791506000008667,incorrect,v
150,4F4K,151,2,58.60285268874149,45.69870110475159,1.6912448964178322,48.620089244689225,1,v,0.6300897000000987,correct,v
151,4F4K,152,1,52.20774453339666,74.31782319065718,1.4806517274631013,70.98473130557194,1,n,2.24682329999996,incorrect,c
152,4F4K,153,2,30.952838172568605,42.70629014444662,0.9517042014157088,45.94880306894612,2,b,3.383059499999945,correct,b
153,4F4K,154,2,40.94704743981996,55.46081495779785,1.171544230851797,57.1310489151204,2,b,3.192701300000408,correct,b
154,4F4K,155,1,45.15078674058439,56.74285920328195,1.278563312337747,58.20479139482813,1,c,2.6281266000005417,correct,c
155,4F4K,156,2,66.27983842838476,52.59632637442632,1.983976796492804,54.68662378921617,1,v,1.3417711999991297,correct,v
156,4F4K,157,2,59.54484660509037,45.8862862254538,1.7246999540550645,48.7871769773524,1,v,1.4797171000009257,correct,v
157,4F4K,158,2,51.96158825721128,66.85721542779609,1.4730921153098917,66.07643443972209,2,b,2.010729999999967,correct,b
158,4F4K,159,2,52.98033360619145,40.15482497302002,1.5046313008560752,43.671161185958695,1,b,2.0017989999996644,incorrect,v
159,4F4K,160,2,46.91905513402784,54.9285573127855,1.3264512497194072,56.681356361692494,2,b,1.3416314999994938,correct,b
160,4F4K,161,1,53.36045277174909,40.08428917761098,1.5165715699608762,43.60830723684074,2,n,1.8681660000002012,correct,n
161,4F4K,162,1,53.31677650632416,37.56354606091547,1.5151948109753834,41.36964836327943,2,n,1.2384574000006978,correct,n
162,4F4K,163,2,43.89348290309449,60.90082030214924,1.2455686056448898,61.582212667377576,2,b,2.6887301999995543,correct,b
163,4F4K,164,2,41.30392542980532,62.62437937459744,1.1802706813804806,62.9282343958257,2,b,1.5586304999997083,correct,b
164,4F4K,165,1,56.02181255582427,72.50648303726315,1.6028666175157906,69.87575012192008,1,n,2.659508000000642,incorrect,c
165,4F4K,166,1,40.25019739029325,59.13585468015814,1.1546902712388474,60.16967445879925,1,c,2.9369108000009874,correct,c
166,4F4K,167,1,51.03629120118164,72.34951830311451,1.4450192741826104,69.77703734355536,1,c,2.5439882000009675,correct,c
167,4F4K,168,1,38.591272453653175,46.63229471902291,1.1155368516127009,49.45094711637447,1,c,1.6224215000002005,correct,c
168,4F4K,169,1,41.88568813830412,59.53823156937115,1.194635620266094,60.49459096195272,1,c,2.051868499998818,correct,c
169,4F4K,170,2,44.36393140839519,31.45102247667125,1.2578134277675297,36.050949480595214,1,b,4.101603000000978,incorrect,v
170,4F4K,171,1,43.10865955910444,57.33583168182408,1.225405971467164,58.696646947919305,1,c,1.9105768000008538,correct,c
171,4F4K,172,1,49.07209649148871,65.1617112462406,1.3871875876856046,64.8438529367606,1,c,1.7406542000007903,correct,c
172,4F4K,173,1,42.09890463389382,57.16304899177607,1.1999440503389178,58.55365199633654,1,c,1.208380500000203,correct,c
173,4F4K,174,2,47.91167685337239,57.39803881388889,1.3541150363319443,58.748063415776166,2,v,1.7133542000010493,incorrect,b
174,4F4K,175,1,54.7766120564659,37.45792891034028,1.561895965282441,41.27625122339318,2,n,1.6326289999997243,correct,n
175,4F4K,176,2,43.41383640124627,64.51701005591903,1.2332070926155942,64.36494975057818,2,b,2.142729600000166,correct,b
176,4F4K,177,1,41.05390197372587,55.75466991377529,1.1741502700598632,57.37836041498246,1,c,2.5735509999994974,correct,c
177,4F4K,178,2,53.08761631998123,70.74259734207655,1.5079917016490056,68.74316632147284,2,v,1.5541745999998966,incorrect,b
178,4F4K,179,2,37.25057560313921,46.347812716495945,1.0848663102558247,49.19797106293332,2,b,1.0972514999994019,correct,b
179,4F4K,180,1,52.24329377555847,64.71683410193519,1.481746667940724,64.51397145322532,1,n,1.5889544999990903,incorrect,c
180,4F4K,181,1,51.30799903514709,34.65512233982281,1.4532067489913554,38.814217070470185,2,n,2.7314066999988427,correct,n
181,4F4K,182,2,57.565479302015696,41.309302245801085,1.6551527650134992,44.7009761284264,1,v,1.5832305999992968,correct,v
182,4F4K,183,1,42.86322740772284,59.763130287098,1.2191678992654031,60.675467644052105,1,c,2.7876144999991084,correct,c
183,4F4K,184,1,22.06497154772372,39.74026080928775,0.7911094148722876,43.30187775596128,1,c,3.0096300000004703,correct,c
184,4F4K,185,2,56.054383321892345,66.9116981857938,1.6039525908293246,66.11537675620572,2,v,1.3765266999998858,incorrect,b
185,4F4K,186,1,57.40990328627466,67.55867993720852,1.649806811986415,66.57456219990178,1,n,1.6860503000007157,incorrect,c
186,4F4K,187,1,38.08756135390672,57.00920832126617,1.1039132782348315,58.42610798084471,1,c,5.0,incorrect,c
187,4F4K,188,1,37.412778428999054,52.21927428674418,1.088531647832165,54.36076015077917,1,c,2.4831168000000616,correct,c
188,4F4K,189,1,35.1611602316183,50.71294843716111,1.0387401575220552,53.05079460951727,1,c,1.9825694999999541,correct,c
189,4F4K,190,2,63.23854276657365,74.14169335859908,1.862391376225513,70.87936373628405,2,v,1.2614680999995471,incorrect,b
190,4F4K,191,1,41.02068057207608,57.03761606993271,1.1733394241150814,58.449675754687135,1,c,2.015364700000646,correct,c
191,4F4K,192,2,58.727445434989,44.68992515919485,1.695632311129425,47.72054213220432,1,v,2.9749984000009135,correct,v
192,4F4K,193,1,62.20001991483521,44.83733825392748,1.8226033160457935,47.85208444535819,2,n,1.00031669999953,correct,n
193,4F4K,194,1,57.92463140450436,52.30659282493932,1.667560312769154,54.43630111463587,2,n,1.8559621999993396,correct,n
194,4F4K,195,2,57.2547089472137,46.07394321599888,1.6444911776253976,48.954259926561086,1,v,1.1171290000002045,correct,v
195,4F4K,196,2,57.03895079445503,47.362214590950856,1.6371295880997363,50.09909326891857,1,v,0.8546231000000262,correct,v
196,4F4K,197,1,33.37975562663131,49.84124131537024,1.0009657905270462,52.287370292876446,1,c,1.9230553999987023,correct,c
197,4F4K,198,1,53.73607537670951,37.15857241811984,1.528463670039518,41.01174359742004,2,n,0.8197248999986186,correct,n
198,4F4K,199,1,50.52015338025676,38.50964743532515,1.4295931249077325,42.20789018401074,2,n,2.205025299999761,correct,n
199,4F4K,200,1,43.142518000107806,64.42542171105863,1.2262690425394225,64.29647200872725,1,c,2.5933344999994006,correct,c
200,4F4K,201,2,52.40723282498293,46.59869989735669,1.4868065868458535,49.42108283877637,1,v,1.1797349999997095,correct,v
201,4F4K,202,1,62.25535913791074,49.52452950868077,1.8247018781927624,52.009135111525474,2,n,1.2022218000001885,correct,n
202,4F4K,203,1,60.86991634231334,46.87362159847934,1.772883197110831,49.665393598862615,2,n,1.261271500001385,correct,n
203,4F4K,204,2,67.06983308599753,49.89681269678424,2.016837701754198,52.33614465726957,1,v,0.8858697000014217,correct,v
204,4F4K,205,2,58.38646845913766,51.762627791216985,1.683652093721505,53.964974210567725,1,v,1.5768095000003086,correct,v
205,4F4K,206,1,69.46374961637359,50.54150995397436,2.119776980708834,52.90094085777524,2,n,1.1451627999995253,correct,n
206,4F4K,207,1,66.10904297467923,48.45502597490482,1.9769430190827224,51.06650903114902,2,n,1.0427624000003561,correct,n
207,4F4K,208,1,75.14603444781095,53.53556867267894,2.3856477402568896,55.49444707380386,2,n,1.0245489999997517,correct,n
208,4F4K,209,1,29.8540243904203,41.73995675875924,0.9302050851101706,45.08552211776894,1,c,0.9762281000002986,correct,c
209,4F4K,210,2,52.14473200768487,44.6198641804285,1.47871288723448,47.65801491393251,1,v,1.6010126000001037,correct,v
210,4F4K,211,2,59.00366940727623,50.84145651861746,1.7053999060061669,53.16302629048501,1,v,0.8304161999985809,correct,v
211,4F4K,212,1,46.03812014209599,28.62080063514301,1.3023738199616035,33.67117787166967,2,c,2.4340577000002668,incorrect,n
212,4F4K,213,2,41.77422205502488,55.69119359996498,1.1918698143935162,57.32499701125352,2,b,2.445925600000919,correct,b
213,4F4K,214,2,54.58614770982086,48.174614099273896,1.5557221623642394,50.81865001725551,1,v,1.1246673999994528,correct,v
214,4F4K,215,2,31.56441546741485,51.8414492118776,0.963884684955649,54.0333768792114,2,b,1.031998399999793,correct,b
215,4F4K,216,2,37.761413865894525,22.870498157332925,1.0964518177974174,29.07011549130837,1,b,2.034411099999488,incorrect,v
216,4F4K,217,1,53.77928987818299,70.34636124186338,1.5298377958308025,68.48182428945434,1,n,1.4875413999998273,incorrect,c
217,4F4K,218,2,29.18186748583775,45.46066234181719,0.9172939467985995,48.40796860482354,2,b,3.466076199998497,correct,b
218,4F4K,219,2,41.99681307435742,50.89452832335956,1.1973993500284148,53.209351650961295,2,b,1.242993199999546,correct,b
219,4F4K,220,1,44.41725229047135,32.81535626739835,1.2592088352831632,37.21967391851771,2,c,2.5979253000004974,incorrect,n
220,4F4K,221,1,67.95768630678106,54.96223433901648,2.0544191979527784,56.70987438639309,2,n,1.0731067999986408,correct,n
221,4F4K,222,1,41.31559838254223,59.32181102159088,1.18055720588599,60.32003873076498,1,c,1.073059899999862,correct,c
222,4F4K,223,2,46.3007937082921,67.41819215539009,1.3095070359259124,66.4753664781361,2,b,2.968114199999036,correct,b
223,4F4K,224,2,58.88763938365766,47.67187544046242,1.7012901171642325,50.37360989318572,1,v,1.0067758000004687,correct,v
224,4F4K,225,2,54.24890796547061,69.60407213263382,1.5448505087561546,67.98557865246083,2,v,1.0065564000015002,incorrect,b
225,4F4K,226,1,39.42389566932727,55.452417897637325,1.1350193319422637,57.123971688733576,1,c,1.5419261999995797,correct,c
226,4F4K,227,2,37.63625345272062,51.27048904229212,1.093601861352786,53.537100251216856,2,b,1.074667300001238,correct,b
227,4F4K,228,1,33.87479720482728,56.40495777498352,1.0113230505718245,57.92313105585456,1,c,1.3029434000000037,correct,c
228,4F4K,229,2,43.26276067549625,58.7268740338692,1.2293390128389332,59.83774711093311,2,b,1.2915844999988622,correct,b
229,4F4K,230,2,53.98772539276645,65.79642912594969,1.536482954281665,65.30990883652683,2,v,1.109457399999883,incorrect,b
230,4F4K,231,1,56.69011905176061,43.10141877068576,1.6252972222072253,46.30185338466129,2,n,1.8196198000005097,correct,n
231,4F4K,232,2,26.102985508784915,42.55917546720904,0.8604060446039432,45.817356786104526,2,b,1.5433154000002105,correct,b
232,4F4K,233,2,52.06949567425029,34.00587203433213,1.476401256210082,38.249277216687375,1,b,2.895317900000009,incorrect,v
233,4F4K,234,2,31.40148504965287,49.928789080699744,0.9606245282911618,52.36420364991669,2,b,1.4827774000004865,correct,b
234,4F4K,235,1,55.05477404374163,35.90665611103803,1.57095648753177,39.90931992115694,2,n,1.256697400000121,correct,n
235,4F4K,236,2,63.6610996132648,77.25147363137769,1.878827985907202,72.65909962313266,2,v,2.2277089999988675,incorrect,b
236,4F4K,237,2,52.53059094707982,44.97981668635512,1.490625379496733,47.979196993255805,1,b,1.5297804000001634,incorrect,v
237,4F4K,238,1,60.38218125827549,47.79088564086435,1.7549931965437229,50.4790352814238,2,n,1.806764099999782,correct,n
238,4F4K,239,2,42.87624295824522,27.892148325476533,1.2194979126464935,33.06953326481113,1,b,1.3856436000005488,incorrect,v
239,4F4K,240,2,78.20746157556655,65.31507110552666,2.542457833483212,64.95695958716293,1,v,0.9760095999990881,correct,v
240,4F4K,241,2,58.50646707322916,39.75544409577698,1.6878585585419383,43.315396832999326,1,v,1.4068740000002435,correct,v
241,4F4K,242,1,54.79044804345408,62.77470709262968,1.5623454049917038,63.04397573633664,1,n,1.3659375000006548,incorrect,c
242,4F4K,243,2,37.02945908740062,59.09999827166721,1.0798895575322016,60.14064062456592,2,b,1.358309700000973,correct,b
243,4F4K,244,2,50.90522459549,43.31149038059034,1.4410863034211194,46.48954640644761,1,b,2.1609312999989925,incorrect,v
244,4F4K,245,1,42.89880144586925,31.237626033830225,1.2200701018024798,35.869326184004976,2,c,2.622117300001264,incorrect,n
245,4F4K,246,2,38.075575796064,50.70928401849666,1.1036381812653913,53.04759308939128,2,b,2.288342100000591,correct,b
246,4F4K,247,1,54.31941990311271,42.65495106262556,1.547117314253034,45.90293149247577,2,n,1.472797599999467,correct,n
247,4F4K,248,2,52.43273781024257,47.167214472479536,1.487595340602408,49.92608025323478,1,v,1.0731081000012637,correct,v
248,4F4K,249,2,32.47901387379578,21.925519334826618,0.9823917948811036,28.349713881988677,1,b,0.6179348999994545,incorrect,v
249,4F4K,250,1,44.73172007381055,26.644279103794844,1.2674700017728968,32.05083784394623,2,n,3.2592605000008916,correct,n
250,4F4K,251,2,56.609438610633376,39.37835015284065,1.6225727428895125,42.97977766143266,1,v,0.988406099999338,correct,v
251,4F4K,252,2,39.51344793078969,53.55116876260824,1.1371349193015785,55.50781527013941,2,b,0.9642421999997168,correct,b
252,4F4K,253,1,54.41583821184548,66.605396668977,1.5502223379308988,65.89589634826322,1,c,3.185183899999174,correct,c
253,4F4K,254,1,24.211323423194536,36.50132507072952,0.827218125573691,40.432183770168535,1,c,1.5282133000000613,correct,c
254,4F4K,255,1,57.537176731272886,39.9855340113313,1.6541789355913792,43.520322211843634,2,n,1.2075316999998904,correct,n
255,4F4K,256,2,54.31324218195663,71.50150858045222,1.5469185810789368,69.23668702679736,2,v,1.6466306000002078,incorrect,b
256,4F4K,257,1,38.44419457068163,47.79185172067543,1.112130307211332,50.47989090227383,1,c,1.250545200000488,correct,c
257,4F4K,258,2,41.9557788741467,58.74687623879559,1.1963780662537864,59.85401959951919,2,b,0.5829385999986698,correct,b
258,4F4K,259,1,71.2430610900247,58.11031114913478,2.1996772109639124,59.33423500251343,2,n,0.9335728999994899,correct,n
259,4F4K,260,1,33.16534595030828,22.73171545824808,0.9965128946956552,28.963623249783424,2,c,1.280969899999036,incorrect,n
260,4F4K,261,1,49.400755958309766,32.30148662027905,1.396700488023038,36.77799831757065,2,n,4.115154600000096,correct,n
261,4F4K,262,2,45.75190644274426,60.02195037262311,1.294645572005939,60.882969793312846,2,b,4.552235099999962,correct,b
262,4F4K,263,1,40.65258979363439,21.93299357041676,1.1643926951458368,28.35536803164396,2,n,4.174314799998683,correct,n
263,4F4K,264,1,52.37296513532209,42.454718391673815,1.4857475006865362,45.72402728100275,2,n,2.421881599999324,correct,n
264,4F4K,265,1,48.455712128091264,66.20194169094526,1.3695209768296523,65.60478467600241,1,c,2.185267799999565,correct,c
265,4F4K,266,2,44.84663037061206,37.07586061469115,1.2705022330735278,40.93871765480166,1,b,1.901514600000155,incorrect,v
266,4F4K,267,1,50.450151192572285,28.90831152054647,1.4275136450104804,33.909891298492184,2,n,2.9332311999987724,correct,n
267,4F4K,268,1,50.23622533251218,41.02145461321597,1.4211775065776615,44.44404741212021,2,n,3.2184203999986494,correct,n
268,4F4K,269,2,68.3202739116051,49.97735998374359,2.069967644642069,52.40681530712925,1,v,0.9105901000002632,correct,v
269,4F4K,270,1,43.88847949240421,23.60099139460329,1.245439019691334,29.634476315477126,2,n,1.91972480000004,correct,n
270,4F4K,271,2,50.89648605795934,36.23794115410959,1.440824463413915,40.20041695107,1,v,2.793651599999066,correct,v
271,4F4K,272,1,37.52378313005999,61.9741706215616,1.0910471835031987,62.424507388955,1,c,1.8741370999996434,correct,c
272,4F4K,273,2,57.48347278448876,52.53561902213279,1.652332675292722,54.63421676539148,1,v,1.483540200000789,correct,v
273,4F4K,274,1,59.80529819910357,40.88521263703511,1.7340661636958037,44.32247305245171,2,n,2.3610281999990548,correct,n
274,4F4K,275,1,35.63183066731621,52.86974197435821,1.048956550253127,54.92237064537532,1,c,2.6466777000005095,correct,c
275,4F4K,276,2,35.08633115491717,50.31525231571308,1.0371251067455198,52.70294896210696,2,b,3.5128103000006377,correct,b
276,4F4K,277,2,70.10467000236127,60.246429207034254,2.14821754645091,61.062363981393446,1,v,0.6603681999986293,correct,v
277,4F4K,278,2,49.59790347026724,32.46047942394468,1.4024381084633095,36.91446866617326,1,b,5.0,correct,v
278,4F4K,279,1,64.91052952200255,53.25061081571965,1.9282817766898663,55.2499697199605,2,n,1.2187706000004255,correct,n
279,4F4K,280,2,35.44722058118497,42.49586151216276,1.044937473417179,45.760787222388494,2,b,3.5553008999995654,correct,b
280,4F4K,281,2,31.10205624531041,44.22031770778117,0.9546618330978718,47.30133214034166,2,v,2.912328200000047,incorrect,b
281,4F4K,282,2,43.45171485807769,56.74838100040071,1.2341788236131386,58.2093859233521,2,v,2.3612044000001333,incorrect,b
282,4F4K,283,2,37.54961834518379,53.14906869648952,1.091633482286997,55.16272200576818,2,b,1.90151589999914,correct,b
283,4F4K,284,1,27.99190918487299,45.44125042779736,0.894874501201633,48.390665982262206,1,c,1.1701694000003044,correct,c
284,4F4K,285,1,47.4685961641946,64.66525172091477,1.3416960563688145,64.47555325976784,1,n,1.9652258000005531,incorrect,c
285,4F4K,286,1,51.730241873552245,42.66122398831569,1.46602251075778,45.90853634793012,2,n,1.2888502000005246,correct,n
286,4F4K,287,1,34.13642767321882,51.90720090693934,1.0168400997520544,54.0904101484731,1,c,0.8196989999996731,correct,c
287,4F4K,288,1,62.35764153778683,52.520854383228965,1.8285869717110177,54.62146740790005,2,n,1.2310873999995238,correct,n
288,4F4K,289,1,59.600529633015626,77.68925392262378,1.7266981338767775,72.8956367745858,1,n,1.4736968999986857,incorrect,c
289,4F4K,290,1,36.40973540031682,18.73188727171475,1.0660625300107227,26.001361226475368,2,c,1.9560533999992913,incorrect,n
290,4F4K,291,2,59.46069549309831,47.21541643143073,1.721684586885475,49.968857241356574,1,v,1.142863099999886,correct,v
291,4F4K,292,2,37.41576963662071,51.75422691066569,1.0885993570569334,53.95768168390158,2,b,1.8104529000011098,correct,b
292,4F4K,293,2,64.29443747413147,50.76261752265046,1.903735600164235,53.09418269705131,1,v,1.3765440000006492,correct,v
293,4F4K,294,1,65.33362383748727,51.91430952552248,1.945321646212689,54.096574698103154,2,n,3.1668695999997,correct,n
294,4F4K,295,1,66.90273396326698,48.39659626304936,2.009841899458966,51.01488527062509,2,n,0.8788734999998269,correct,n
295,4F4K,296,1,48.44535501490324,62.11412838392626,1.3692260547003872,62.53335785633668,1,c,1.2605082999998558,correct,c
296,4F4K,297,2,39.32361101269592,57.32687278137495,1.1326548733404442,58.68923919376167,2,b,1.2369190999997954,correct,b
297,4F4K,298,2,53.8988243921669,40.156065349882105,1.533645167605974,43.672266555302784,1,v,1.546657700000651,correct,v
298,4F4K,299,1,59.45894783826598,45.29898990170316,1.721622019489817,48.26384455930051,2,n,1.7740481999990152,correct,n
299,4F4K,300,2,73.7068367926744,57.597955145707445,2.315309571446988,58.9130621886102,1,v,0.8439183999998932,correct,v
300,4F4K,301,1,41.7518019615304,55.83641728725257,1.1913142790131352,57.44703567211511,1,c,2.123754399999598,correct,c
301,4F4K,302,1,40.4820403130829,48.37058859402065,1.160270517451529,50.991903081703136,1,c,0.8439680999999837,correct,c
302,4F4K,303,2,58.334990324077616,65.24343126225025,1.6818507796183348,64.90416272735885,2,v,1.6794786999998905,incorrect,b
303,4F4K,304,2,41.208946752592006,45.60997511166122,1.177941916458144,48.541035589679055,2,b,1.1355519000007916,correct,b
304,4F4K,305,1,40.44171945470358,62.66366599101312,1.1592980978876883,62.95850858233762,1,c,1.5677213999988453,correct,c
305,4F4K,306,1,45.81948488888713,59.629731557971176,1.2964661571330072,60.56824410822362,1,c,1.3399398999990808,correct,c
306,4F4K,307,1,33.15318305926108,46.70697746392112,0.9962608883160496,49.51732682511963,1,c,1.4432753000000957,correct,c
307,4F4K,308,1,45.3094939068214,55.90160512758753,1.2827898264441349,57.50176023817305,1,c,2.1731761999999435,correct,c
308,4F4K,309,2,63.09747361091232,75.64130229495916,1.8569361483111184,71.75911630853848,2,v,1.0139177999990352,incorrect,b
309,4F4K,310,1,55.42964808020545,48.93484149005236,1.583250398365357,51.48995876843136,2,n,2.7739103000003524,correct,n
310,4F4K,311,2,62.28995882813492,45.74568235341659,1.826015187699073,48.66194308339681,1,v,0.9879732999997941,correct,v
311,4F4K,312,2,51.589803390468575,58.76936685495919,1.4617474775168702,59.872311769132935,2,v,0.9810319000007439,incorrect,b
312,4F4K,313,2,64.79639145769988,45.52871855776899,1.9237105534297425,48.46862482567781,1,v,0.7332564999996976,correct,v
313,4F4K,314,1,40.42019192097014,56.78788233853431,1.1587792513599924,58.24224608498542,1,c,0.6550351999994746,correct,c
314,4F4K,315,2,59.48687434796544,50.84097239840044,1.7226220823328404,53.16260364483818,1,v,0.9091910999995889,correct,v
315,4F4K,316,1,48.45804912848661,63.71880195361384,1.3695875324511075,63.76451758246693,1,c,1.8772356000008585,correct,c
316,4F4K,317,2,76.76577666754332,60.12885349062333,2.4673686755760094,60.96846947643995,1,v,0.6452340000014374,correct,v
317,4F4K,318,2,61.93976218167731,46.14456233980536,1.8127661984329175,49.01711792981016,1,v,1.1100998999991134,correct,v
318,4F4K,319,2,42.91073603299639,59.088216897714815,1.2203729275451445,60.13109811565673,2,b,0.8424577999994654,correct,b
319,4F4K,320,1,43.41555122061047,59.39574881354964,1.2332510679197406,60.37972679747568,1,c,0.9395872000004601,correct,c
320,4F4K,321,1,61.3657639974699,76.38768489890661,1.7912577171020994,72.18211985127014,1,n,1.6266969999996945,incorrect,c
321,4F4K,322,2,62.74141827381838,42.647921961736266,1.8432382345309857,45.89665100103432,1,v,1.0564002999999502,correct,v
322,4F4K,323,1,60.3115018770505,73.14421006713116,1.7524157137095595,70.27255982142961,1,n,2.524967999999717,incorrect,c
323,4F4K,324,2,48.39017915105749,58.70195947813396,1.367655974302088,59.81747272526569,2,b,2.3482070000009116,correct,b
324,4F4K,325,1,31.775457778337373,47.73346988410759,0.9681239896195264,50.4281789849139,1,c,0.8075908000009804,correct,c
325,4F4K,326,1,47.731724854959545,53.58580371131978,1.3490574111660765,55.53748910701325,1,c,1.2430426000009902,correct,c
326,4F4K,327,2,51.49729700645653,72.41247071596952,1.4589383391394195,69.81667649260534,2,b,1.8317131000003428,correct,b
327,4F4K,328,2,39.6682266454184,53.66139337380025,1.140800721527366,55.60222287094984,2,b,1.337104600001112,correct,b
328,4F4K,329,1,48.51408054309368,69.02275440913155,1.3711842243741166,67.59097977075372,1,c,0.913107399999717,correct,c
329,4F4K,330,1,55.41789887716632,41.22025223804062,1.582863629346431,44.621481789683706,2,n,1.6496266000012838,correct,n
330,4F4K,331,2,47.985360559564405,60.9142727976181,1.3561914147019196,61.59284995382292,2,b,1.135215899999821,correct,b
331,4F4K,332,1,56.59886990142482,45.93792297342687,1.6222161890487332,48.83315949950047,2,n,1.9804069000001618,correct,n
332,4F4K,333,2,46.85678540137164,63.86924549299419,1.3247347890179926,63.87830869115556,2,b,1.9045354000008956,correct,b
333,4F4K,334,2,34.18599303883879,43.45384187699607,1.0178886796400597,46.616726433004345,2,b,0.9835438999998587,correct,b
334,4F4K,335,1,36.622785378506265,52.892327572035946,1.0707959306003438,54.94182346538342,1,c,1.9751617000001715,correct,c
335,4F4K,336,1,51.85138658577103,68.85977779723781,1.469720272756995,67.4794235528521,1,n,2.4037888000002567,incorrect,c
336,4F4K,337,2,59.085755993380296,48.33817938929855,1.7083134115932703,50.96326069434525,1,v,1.1353021000013541,correct,v
337,4F4K,338,2,64.28750114574271,50.96849200060465,1.903461031056276,53.27388893978764,1,v,0.7347618999992847,correct,v
338,4F4K,339,1,62.57380876593848,56.39572190568068,1.8368251018567503,57.91541865998009,2,n,2.2216160999996646,correct,n
339,4F4K,340,2,43.57515885152019,25.34653714379844,1.2373509632264086,31.00809182475969,1,b,1.0624974000002112,incorrect,v
340,4F4K,341,1,30.385166465179186,37.97516914879597,0.9405359500455166,41.73400185939711,1,c,1.8681314000004932,correct,c
341,4F4K,342,2,48.030006688958494,37.933789247867566,1.3574510741054897,41.697349091680586,1,v,1.1853738000008889,correct,v
342,4F4K,343,2,41.787213225826335,57.84180069935778,1.1921918341309972,59.11381780843615,2,b,1.7862031999993633,correct,b
343,4F4K,344,1,54.49279652861371,40.573838357442895,1.5527051498084596,44.04471222112426,2,n,1.2915792999992846,correct,n
344,4F4K,345,2,53.17061100078158,42.00618723388986,1.5105964797896048,45.32331853148446,1,v,1.0604882999996335,correct,v
345,4F4K,346,1,55.713852218469206,39.54891421575751,1.5926348880366843,43.13154475004768,2,n,1.0428079000012076,correct,n
346,4F4K,347,2,45.5599993471427,30.35104222030157,1.2894894595596202,35.11840390042504,1,b,0.746924900000522,incorrect,v
347,4F4K,348,2,57.631872410626514,71.5480439677324,1.6574394568021196,69.26664548848255,2,v,1.5585406999998668,incorrect,b
348,4F4K,349,2,55.41620499940951,39.71013754841205,1.5828078768097156,43.27505761918171,1,v,1.1049472999984573,correct,v
349,4F4K,350,1,56.79552371411447,49.4513150211917,1.6288635016214468,51.94475347304165,2,n,1.141403999999966,correct,n
350,4F4K,351,1,38.03064055164754,53.01410709059704,1.1026074210351366,55.04665498533543,1,c,0.8074691000001621,correct,c
351,4F4K,352,2,67.01354629388463,51.64018417712591,2.0144784731250587,53.85864543857018,1,v,1.050102600000173,correct,v
352,4F4K,353,1,75.1654054496989,59.32224757269344,2.3866088933944924,60.32039131142482,2,n,0.7651175999999396,correct,n
353,4F4K,354,1,46.78156325515182,33.737874346746224,1.3226642579082089,38.016766327043854,2,c,0.8303419000003487,incorrect,n
354,4F4K,355,2,36.87047996767602,45.26180247725821,1.0763254690212964,48.23068763961137,2,v,2.08205210000051,incorrect,b
355,4F4K,356,1,46.27981220289216,57.2718010829106,1.3089358250608445,58.64368665201527,1,c,2.902910699998756,correct,c
356,4F4K,357,2,61.315360023623256,43.97028340740951,1.7893812455229805,47.0780476423024,1,v,0.8804316000005201,correct,v
357,4F4K,358,2,37.57075490396311,52.85950074438727,1.0921133850935878,54.9135488723618,2,b,1.6678123000001506,correct,b
358,4F4K,359,2,46.03270437929517,66.40199620815815,1.3022271579782396,65.74941816310148,2,b,1.0260632000008627,correct,b
359,4F4K,360,1,70.94206399485508,51.67294347204196,2.185952299639161,53.88710156243707,2,n,0.983548599999267,correct,n
360,4F4K,361,1,52.22170450251834,45.33325227613712,1.481081607352182,48.29439152805261,2,n,3.5869239999992715,correct,n
361,4F4K,362,1,66.80901255908546,44.16542613990583,2.0059287694885883,47.25231748441296,2,n,1.5161157999991701,correct,n
362,4F4K,363,1,45.398668217297725,67.02594361493075,1.2851707459170276,66.19689789752363,1,c,1.7285517000000254,correct,c
363,4F4K,364,2,73.22003940551625,59.98164181665008,2.2919906872108458,60.85070000119375,1,v,1.2869320999998308,correct,v
364,4F4K,365,1,26.813866336748838,37.82621695962512,0.8732193409683391,41.602091087497946,1,c,2.386890300000232,correct,c
365,4F4K,366,1,63.53574361102966,50.38207927590116,1.873936813695863,52.76145320256278,2,n,1.3037081999991642,correct,n
366,4F4K,367,1,33.24171306379296,42.56044915670177,0.998096623776931,45.81849480685956,1,c,1.0367173000013281,correct,c
367,4F4K,368,1,57.186422291470485,73.06041529387609,1.6421576884028912,70.2208116704863,1,n,1.661897100000715,incorrect,c
368,4F4K,369,1,44.23257806306101,60.535303921208616,1.2543825037825564,61.292422918637165,1,c,1.6754512999996223,correct,c
369,4F4K,370,2,48.802885383710354,32.49647358501295,1.379443685782507,36.94538729178123,1,v,2.726848100001007,correct,v
370,4F4K,371,2,60.22510028561182,44.4231767202032,1.7492700266718426,47.482448405287776,1,v,0.9280404000000999,correct,v
371,4F4K,372,2,62.21058579850109,41.12060778399737,1.8230038067195395,44.53253981821579,1,v,0.6066516999999294,correct,v
372,4F4K,373,2,39.03427304387484,22.96448243847545,1.1258605860610886,29.142365752604352,1,b,1.273316499999055,incorrect,v
373,4F4K,374,2,62.41495174831356,75.4978271265924,1.830767456934157,71.67666167299548,2,v,1.363441800000146,incorrect,b
374,4F4K,375,1,49.459397524156365,32.15776014021828,1.3984046873087264,36.65477761442541,2,c,1.9136094999994384,incorrect,n
375,4F4K,376,2,35.07780485904309,47.97705355937853,1.0369412414503645,50.64386182557828,2,b,2.076014300000679,correct,b
376,4F4K,377,1,35.26670484765328,52.59109868436609,1.0410224242048869,54.68211176301629,1,c,2.119795900000099,correct,c
377,4F4K,378,1,54.56130101532288,40.328896980877786,1.5549185711399494,43.82631217246692,2,n,1.6799952000001213,correct,n
378,4F4K,379,1,61.58326149596072,52.24791755594924,1.799377445935432,54.38554503794047,2,n,0.8622018000005482,correct,n
379,4F4K,380,2,61.68404390058736,41.24982579318552,1.8031523755807528,44.64788099495672,1,v,2.573641000000862,correct,v
380,4F4K,381,2,47.221444614869945,61.55848257632004,1.3348182701305114,62.09986527194511,2,b,1.3576417000003858,correct,b
381,4F4K,382,2,57.15216792739934,41.54802288031839,1.6409883968337096,44.91411826401679,1,v,0.8670217999988381,correct,v
382,4F4K,383,1,38.52785048041264,52.83629666158169,1.114066625810516,54.8935584561033,1,c,1.6496323000010307,correct,c
383,4F4K,384,2,67.67495895118982,52.16340422771992,2.042376394568892,54.31240196399413,1,v,1.666992800001026,correct,v
384,4F4K,385,2,54.98266991328136,38.42768128063872,1.5686028180631733,42.1351615639572,1,v,1.626767399999153,correct,v
385,4F4K,386,2,23.32808487843332,32.8434523818064,0.8121637531435391,37.243872218623885,2,b,0.6133061000000453,correct,b
386,4F4K,387,2,50.7022836216888,38.69879261988088,1.435017677067692,42.37579004452256,1,v,0.8195858999988559,correct,v
387,4F4K,388,2,65.05718405147931,53.50562526528677,1.9341712312188883,55.468783023277645,1,v,0.5875030000006518,correct,v
388,4F4K,389,1,57.47820834275511,40.82197952564175,1.6521518027020106,44.26605545715658,2,n,1.291994799999884,correct,n
389,4F4K,390,2,47.873633708941775,36.69464612440984,1.353044239908728,40.60247905087704,1,v,1.6739241000013863,correct,v
390,4F4K,391,2,41.32250894413362,47.918986498005374,1.1807268654313443,50.59246334705576,2,b,0.7754060999996,correct,b
391,4F4K,392,1,57.433819729888135,37.35607853169894,1.650627511935579,41.18622172169449,2,n,0.9213583000000654,correct,n
392,4F4K,393,2,45.46999932082455,53.62566761401013,1.2870784395123676,55.57163277895523,2,b,0.9394207000004826,correct,b
393,4F4K,394,2,35.41357244327181,43.316217537204686,1.044206593333534,46.49376986018189,2,b,0.6899762000011833,correct,b
394,4F4K,395,2,60.45684346374495,37.47904971102817,1.757720039611161,41.29492525115411,1,v,0.7514276000001701,correct,v
395,4F4K,396,1,60.89824101189794,46.0046194708959,1.7739277239338886,48.89254487300463,2,n,0.8546024999996007,correct,n
396,4F4K,397,2,64.67498691983717,52.89150070723732,1.918860201147953,54.94111134984824,1,v,1.02386259999912,correct,v
397,4F4K,398,1,52.34265149864838,36.2639587317444,1.4848112483972054,40.22329839901982,2,n,3.6827296999999817,correct,n
398,4F4K,399,1,47.2471756855431,67.35126302352901,1.3355326725361605,66.42800846750052,1,c,1.3825557000000117,correct,c
399,4F4K,400,2,55.37699250413268,39.49644545482426,1.58151777986121,43.08485153894794,1,v,0.7331856000000698,correct,v
