,condition,trial,sub_task,x,y,xt,yt,cat,resp,rt,acc,correct_resp
0,4F4K,1,2,53.47664163860651,34.956885560954206,1.5202401575539264,39.05248142653345,1,b,3.1197378000001663,incorrect,v
1,4F4K,2,1,36.77432122641058,51.70362174363554,1.0741754367681495,53.824127081476426,1,n,3.205738999999994,incorrect,c
2,4F4K,3,1,60.88689709471231,44.73841252580779,1.7735093212493154,47.700948706615634,2,c,2.4340942999997424,incorrect,n
3,4F4K,4,1,42.357175069379466,52.71041831742545,1.206405785236586,54.691646392659,1,n,5.0,incorrect,c
4,4F4K,5,2,26.0670848433322,45.38824748381753,0.8597639624937785,48.27803418848158,2,b,1.892408499999874,correct,b
5,4F4K,6,1,54.83294188884466,41.78620680496788,1.5637265576912038,45.07543736650214,2,n,2.013775899999928,correct,n
6,4F4K,7,2,37.69341751814972,52.037088207178826,1.094902591515354,54.11212549800438,2,b,3.1501806000001125,correct,b
7,4F4K,8,1,61.20213917581079,73.3514986753725,1.7851733508861136,70.23871879984254,1,n,1.4705068000002939,incorrect,c
8,4F4K,9,2,52.31241051799795,66.86494923967908,1.4838778279921987,65.9394119935652,2,b,1.630459299999984,correct,b
9,4F4K,10,1,42.67519501452264,63.6001680674458,1.2144102312485714,63.542504949018166,1,c,1.522241699999995,correct,c
10,4F4K,11,1,52.58727622060327,36.67084012878903,1.4923834709322608,40.54988205964016,2,c,1.345406400000229,incorrect,n
11,4F4K,12,1,34.913345113339055,53.54991610761226,1.0334011206670284,55.41019443694876,1,c,2.792079199999989,correct,c
12,4F4K,13,1,60.50164492852352,39.85779152050218,1.7593583302427371,43.362629992928525,2,n,1.0882268000000295,correct,n
13,4F4K,14,1,40.39120968956207,62.67899673998221,1.15808110193516,62.84130131732769,1,c,1.121886099999756,correct,c
14,4F4K,15,2,46.92804771678884,62.52372093073335,1.326699313328866,62.72208720645134,2,b,3.9937478000001647,correct,b
15,4F4K,16,1,61.32926730450056,46.13797465932527,1.7898987982747734,48.942964465651926,2,n,1.5967392000002292,correct,n
16,4F4K,17,2,49.82326661553169,40.63873978195459,1.4090257707735017,44.05566012789939,1,b,1.7528543999997055,incorrect,v
17,4F4K,18,1,30.29828647577245,44.19532090307112,0.9388382942825132,47.21825745067813,1,c,1.8075106999999662,correct,c
18,4F4K,19,2,53.34201235480822,37.32399156290562,1.515990140413383,41.123740657945646,1,b,2.0881459000001996,incorrect,v
19,4F4K,20,2,44.36631708471181,57.85222330993936,1.257875827860125,59.01010973680564,2,v,1.570825799999966,incorrect,b
20,4F4K,21,2,52.815353830443776,60.80188470685732,1.4994782696562248,61.38128279292137,2,b,1.3218950999998924,correct,b
21,4F4K,22,1,49.63403960774656,63.83347484632458,1.4034923383671278,63.718430493407865,1,n,2.142711500000132,incorrect,c
22,4F4K,23,1,55.35728602374376,39.33845957050359,1.5808698307784907,42.902395320839815,2,c,1.2430561000001035,incorrect,n
23,4F4K,24,2,67.47319357962112,50.63456532405071,2.033825365422669,52.89673296893934,1,b,4.471613700000034,incorrect,v
24,4F4K,25,2,57.63955093410781,41.568485399762025,1.6577041219638955,44.88184463839352,1,v,1.0367766999997912,correct,v
25,4F4K,26,1,48.345932877234944,58.970922395640194,1.3663982063958882,59.91976627015702,1,c,2.0077455000000555,correct,c
26,4F4K,27,1,36.66302031413554,51.431364876101696,1.071692199713406,53.58852741262994,1,n,3.7740489000002526,incorrect,c
27,4F4K,28,1,44.99744467571084,63.26190306582736,1.2744929034599357,63.28622703776601,1,c,1.3648548000001028,correct,c
28,4F4K,29,1,50.73659510246591,61.98232148697701,1.436041909135083,62.30418370414986,1,c,2.9194706000002952,correct,c
29,4F4K,30,1,41.74450698188421,55.906658792431344,1.1911335764936684,57.40075647679246,1,c,1.3343708000002152,correct,c
30,4F4K,31,2,47.7899372887704,60.990974885860965,1.3506914252175497,61.53017464704202,2,v,2.068395799999962,incorrect,b
31,4F4K,32,2,39.55030930650541,28.06303257532336,1.1380068795929692,33.21064309484952,1,b,2.0325692000001254,incorrect,v
32,4F4K,33,1,62.221086309826376,41.57259610804333,1.8234019066982563,44.88549944013428,2,n,2.846746400000029,correct,n
33,4F4K,34,2,49.462345492764655,68.67414521939766,1.3984904139389869,67.20379201419445,2,v,1.8535855000000083,incorrect,b
34,4F4K,35,2,41.36380358968871,48.50074674348481,1.181741188682312,51.02948877238494,2,v,1.960530899999867,incorrect,b
35,4F4K,36,1,50.963211434843245,65.79023312643973,1.442825016843939,65.16621123161052,1,c,1.4132486999997127,correct,c
36,4F4K,37,1,41.27352518505949,48.52113289790082,1.1795248027729497,51.04741573862956,1,n,2.6474240000002283,incorrect,c
37,4F4K,38,2,40.15140240638553,58.53902547355905,1.1523205291075531,59.570010570592665,2,v,2.343001500000355,incorrect,b
38,4F4K,39,2,60.74411051241539,49.5765685106602,1.7682512919284223,51.97335114446233,1,b,0.9821179999999003,incorrect,v
39,4F4K,40,2,43.229416085552174,56.772833712454464,1.2284869076621625,58.12133589070485,2,v,1.3097606999999698,incorrect,b
40,4F4K,41,1,52.2994550965086,42.149367983036456,1.4834781245300834,45.39842105084036,2,c,2.134238500000265,incorrect,n
41,4F4K,42,1,74.42831501667538,57.14939521508304,2.350307382506933,58.43258749293962,2,n,2.682889499999874,correct,n
42,4F4K,43,2,58.92182604837616,47.56502511204918,1.702499980191053,50.20511398928564,1,v,2.392462499999965,correct,v
43,4F4K,44,2,33.90302983916532,47.76834620772631,1.011916953565409,50.38448346360489,2,b,1.716421299999638,correct,b
44,4F4K,45,1,68.79765598630772,51.17075775496727,2.090618296185164,53.36262990767406,2,c,1.9167554000000564,incorrect,n
45,4F4K,46,1,57.38667202890449,47.78953070372333,1.6490100150986664,50.40316499139795,2,c,1.3040150000001631,incorrect,n
46,4F4K,47,2,30.09440697710117,43.69123222692089,0.9348664630544,46.77000210780108,2,v,1.0426526000001104,incorrect,b
47,4F4K,48,2,47.09793319876169,34.76563256322791,1.3313943914403947,38.88625216522055,1,b,2.1002567999998973,incorrect,v
48,4F4K,49,2,65.13486757342007,51.16626550169325,1.9372981843035004,53.35873278242062,1,b,1.6799642000000858,incorrect,v
49,4F4K,50,2,45.08133513838396,60.76655800752874,1.2767181369384124,61.35342237561728,2,v,0.8659483999999793,incorrect,b
50,4F4K,51,1,44.15895986630981,29.45821685760718,1.252463704700321,34.363879755771464,2,c,0.8970596999997724,incorrect,n
51,4F4K,52,2,45.28705992885843,30.691676160232024,1.2821915426817738,35.3970997216648,1,v,1.4008559000003515,correct,v
52,4F4K,53,2,36.80645622153092,52.29028717251746,1.0748934712211462,54.33036887430799,2,v,0.8913448999996945,incorrect,b
53,4F4K,54,2,40.69536785125118,28.249622181400937,1.1654289353201095,33.36387055894649,1,v,1.1094721999998,correct,v
54,4F4K,55,2,42.55960622990663,60.82911341237264,1.211494778550016,61.40274734867227,2,v,0.8782037999999375,incorrect,b
55,4F4K,56,2,42.91266315469463,55.248204082186845,1.2204218329798693,56.84885068267561,2,b,2.3865175999999337,correct,b
56,4F4K,57,1,66.19477025020565,47.91415751273672,1.98047035681582,50.5130381036581,2,n,1.9256933000001482,correct,n
57,4F4K,58,2,37.700404289911845,52.85210964095852,1.0950616769081445,54.8132425799196,2,b,1.0916332000001603,correct,b
58,4F4K,59,1,32.43061536781302,50.51305624392244,0.9814035948228654,52.79095227835818,1,n,0.7939845999999307,incorrect,c
59,4F4K,60,2,54.71414027523498,31.912400923424777,1.5598682795276255,36.43112752049333,1,v,1.03063179999981,correct,v
60,4F4K,61,1,70.3766234209888,58.81296311443405,2.160400373211461,59.79206227306593,2,n,1.3523204999996778,correct,n
61,4F4K,62,2,70.55895389599779,57.05737501722158,2.1686069830598407,58.35664267995544,1,b,2.7494133000000147,incorrect,v
62,4F4K,63,1,57.09054663184684,71.99902303062368,1.6388870156812048,69.39747382082516,1,c,1.569935600000008,correct,c
63,4F4K,64,1,32.85250415963111,50.906991832850245,0.9900512578552187,53.13362824635798,1,n,1.4372251999998298,incorrect,c
64,4F4K,65,2,43.31504854474512,58.043359706771085,1.2306763947630237,59.16637981475287,2,v,1.5768133999999918,incorrect,b
65,4F4K,66,2,53.74554622819336,59.54684967460766,1.528764716571401,60.38325561394733,2,b,1.0307760000000599,correct,b
66,4F4K,67,2,46.31906431139563,61.73323768832449,1.3100046468868185,62.11076444499681,2,b,1.3098119999999653,correct,b
67,4F4K,68,2,50.05491772027578,63.706802135127866,1.4158294911538138,63.62299757226921,2,v,0.9630541999999878,incorrect,b
68,4F4K,69,2,45.69765568002336,28.215947036689187,1.2931858891378465,33.33619295343595,1,b,1.0964572999996562,incorrect,v
69,4F4K,70,2,43.86331095329256,56.176286520457936,1.2447873709668649,57.625739094935,2,v,1.133802199999991,incorrect,b
70,4F4K,71,2,38.71801171442628,52.07327390371557,1.1184806917184298,54.14333868606961,2,v,0.8303616000002876,incorrect,b
71,4F4K,72,2,50.3078046904567,41.15122007750595,1.4232944346034735,44.51093760521312,1,b,0.9578354000000218,incorrect,v
72,4F4K,73,2,47.33917395528711,36.53044376186526,1.338090059058622,40.426744257834976,1,b,2.3915359000002354,incorrect,v
73,4F4K,74,1,55.89704359700659,38.43955112816182,1.598713374106112,42.107269458514416,2,c,0.908391599999959,incorrect,n
74,4F4K,75,1,37.31272971268564,54.98616558249024,1.0862693613001604,56.628264761513215,1,c,0.976209899999958,correct,c
75,4F4K,76,1,39.94184085945372,55.2154613770313,1.1473099757712362,56.82131667267335,1,c,0.7940138999997544,correct,c
76,4F4K,77,1,65.36515825105522,49.41785444432773,1.946597689167217,51.83439838028463,2,n,0.5026783000002979,correct,n
77,4F4K,78,2,67.91941682685729,50.17780529448466,2.052784959035902,52.49872650032784,1,b,2.6882009000000835,incorrect,v
78,4F4K,79,1,53.71045887306637,32.58141332465378,1.527649704489047,37.002265679163344,2,c,1.2429339999998774,incorrect,n
79,4F4K,80,1,34.521215691730475,40.95541079633817,1.025008924341186,44.33694576601526,1,c,1.1459381999998186,correct,c
80,4F4K,81,1,51.4857774786405,32.05413772115183,1.4585889042090927,36.55187634648375,2,n,1.6799113000001853,correct,n
81,4F4K,82,2,63.04020882286305,46.91667521958029,1.8547262474388255,49.63233379085391,1,b,1.6739740999996684,incorrect,v
82,4F4K,83,2,32.502353870859814,19.625253251094524,0.982868706204616,26.673355568994637,1,v,1.0359118999999737,correct,v
83,4F4K,84,2,72.92782307683375,59.2735210099488,2.278105708298676,60.16370831903513,1,v,1.182375200000024,correct,v
84,4F4K,85,1,36.90596380257977,47.87618411813585,1.077119945635571,50.47956538845905,1,c,2.0441866000001028,correct,c
85,4F4K,86,2,57.91665525366234,46.28197868165771,1.6672837551616324,49.07055385568241,1,v,0.8485805000000255,correct,v
86,4F4K,87,2,38.4984370292664,26.43917972223242,1.1133854314308975,31.891091946480184,1,b,2.007806199999777,incorrect,v
87,4F4K,88,1,42.45245191243456,55.41724889012139,1.2087983173424837,56.99087050930312,1,c,1.0184747000002972,correct,c
88,4F4K,89,2,54.721268898224814,69.42257630546008,1.560099524595484,67.71263668290895,2,v,0.9395135999998274,incorrect,b
89,4F4K,90,1,37.63110777347737,53.22835466107817,1.0934848506918255,55.13550518614671,1,n,0.988123799999812,incorrect,c
90,4F4K,91,1,29.8073859662314,50.26559209963424,0.9293033920715904,52.57529870313789,1,c,1.3764846999997644,correct,c
91,4F4K,92,1,32.34660348217068,43.84936659915039,0.979690601001488,46.91063992237281,1,c,0.7817779000001792,correct,c
92,4F4K,93,1,62.6433117255252,50.08327960152719,1.8394817356619328,52.41623604407545,2,n,0.6422429000003831,correct,n
93,4F4K,94,2,57.65615829592104,43.57960185313551,1.6582766929964248,46.67071469529628,1,b,1.0674495000002935,incorrect,v
94,4F4K,95,1,49.57197508022436,39.31644613012749,1.4016821657272385,42.882899723366776,2,n,2.0017274000001635,correct,n
95,4F4K,96,2,46.516053047245634,65.26476276606311,1.315381779427955,64.78239319750108,2,v,1.2733140000000276,incorrect,b
96,4F4K,97,1,56.51765583192727,43.29697860337115,1.619478903823557,46.41931723310495,2,n,0.9396456999998009,correct,n
97,4F4K,98,2,25.629834924047472,42.465340599123046,0.851982113357254,45.67948669020694,2,v,1.1703098999996655,incorrect,b
98,4F4K,99,1,22.115367787686846,43.3562275664228,0.7919389007292135,46.47202239810031,1,c,1.1217157999999472,correct,c
99,4F4K,100,2,52.80004167140858,49.55809137787168,1.499000900688104,51.957180092315966,1,v,0.9456374999999753,correct,v
100,4F4K,101,1,36.47096240946524,19.58744806299565,1.0674206837601288,26.64604089171079,2,c,1.3828581000002487,incorrect,n
101,4F4K,102,1,63.96903790457246,52.30572829632938,1.8908974685321245,54.34366593980744,2,c,1.6557151000001795,incorrect,n
102,4F4K,103,1,32.321012624935456,50.314095415564765,0.9791694003592708,52.617590212141714,1,c,1.1936856999996053,correct,c
103,4F4K,104,2,65.04995669064166,50.37941091434779,1.9338805688967773,52.6745230740951,1,b,1.4554642000002787,incorrect,v
104,4F4K,105,2,64.63738363934881,44.1325167341061,1.917360357457064,47.16241976994481,1,v,0.7992904000002454,correct,v
105,4F4K,106,1,46.10577026850147,62.81474011110546,1.3042072168599406,62.94528169169876,1,n,1.2066783999998734,incorrect,c
106,4F4K,107,1,62.49307262282453,47.11663608486003,1.8337439151804575,49.80911268250304,2,n,2.7981560999996873,correct,n
107,4F4K,108,2,39.92194653496198,53.54302082639944,1.1468354422963802,55.40431150801001,2,b,1.728556000000026,correct,b
108,4F4K,109,1,52.653829331345335,60.31329903048479,1.4944502595328055,60.99475114988655,1,n,1.285538799999813,incorrect,c
109,4F4K,110,2,64.40614607535359,53.92457833556176,1.9081629564545424,55.72936057288884,1,b,1.3643919999999525,incorrect,v
110,4F4K,111,1,49.5239351771348,58.18074559329574,1.4002826380797488,59.27849141234161,1,n,1.425425500000074,incorrect,c
111,4F4K,112,1,51.58592281397642,58.10503179595313,1.4616295275577045,59.21672849746581,1,c,1.3341153999999733,correct,c
112,4F4K,113,1,61.363951672572576,47.83462500445093,1.7911902126116326,50.44292662631611,2,c,0.5146888999997827,incorrect,n
113,4F4K,114,2,69.41252095646344,46.15060749541132,2.117520048144264,48.95415909453805,1,v,3.108461199999965,correct,v
114,4F4K,115,1,52.80418083593038,34.13889055803766,1.499129927506625,38.34285844970197,2,c,2.088102499999877,incorrect,n
115,4F4K,116,1,66.25787820047348,46.50307367748008,1.9830710201138253,49.26635741243782,2,n,1.157219300000179,correct,n
116,4F4K,117,1,65.35990724847224,44.786379467839865,1.946385148793077,47.74356532739653,2,n,1.0731502000003275,correct,n
117,4F4K,118,1,49.056054669074825,39.02602273389516,1.3867249263787955,42.62579996037522,2,c,3.0279851999998755,incorrect,n
118,4F4K,119,1,50.93312433759269,59.87105725529069,1.4419226049313518,60.642671404915546,1,n,0.7483713999999964,incorrect,c
119,4F4K,120,1,57.516142307770046,68.2220232766131,1.653455558353046,66.89231772388874,1,c,1.2187763000001723,correct,c
120,4F4K,121,2,55.99719433323398,47.2530697887148,1.6020462855474515,49.92966688857832,1,v,1.6434455999997226,correct,v
121,4F4K,122,1,62.543758507145895,47.311966889354544,1.835677669599968,49.98169284209313,2,c,1.1398357000002761,incorrect,n
122,4F4K,123,1,51.82329151568125,33.31779922345796,1.468861882727209,37.63428177904849,2,n,1.0003031000001101,correct,n
123,4F4K,124,1,63.23495251369339,50.46377645891649,1.862252340471804,52.748030761178526,2,n,0.9326666000001751,correct,n
124,4F4K,125,1,36.28536894136424,49.46622519188598,1.0633091179255618,51.876757850263246,1,c,0.8304026000000704,correct,c
125,4F4K,126,2,51.12973105504489,59.99092583458261,1.4478297153443944,60.7383064890369,2,v,1.1156243000000359,incorrect,b
126,4F4K,127,1,48.03392717114608,32.2465722922599,1.3575617436414986,36.71603510943516,2,c,0.7514422999997805,incorrect,n
127,4F4K,128,1,49.68928758152068,33.689214516769034,1.4051056661401202,37.95431667633259,2,c,1.2551797999999508,incorrect,n
128,4F4K,129,2,31.958563751313847,46.61914488491556,0.9718172274645516,49.36910567670163,2,v,1.2614702000000761,incorrect,b
129,4F4K,130,1,64.90731429837929,51.99824175624597,1.9281528585950691,54.07860868685344,2,n,1.255191300000206,correct,n
130,4F4K,131,1,71.18946264810434,56.55059543931251,2.1972269302722043,57.937061022139744,2,n,0.8728559000001042,correct,n
131,4F4K,132,2,53.62003184108914,62.18462884997458,1.5247798457656598,62.46074815322682,2,b,0.9942174000002524,correct,b
132,4F4K,133,1,29.97026598788031,52.45155616463457,0.9324562742427992,54.46917419723841,1,c,0.9266722000002119,correct,c
133,4F4K,134,1,56.34278085818134,47.89397271000841,1.6136004884123436,50.49524622192157,2,n,1.0370514000001094,correct,n
134,4F4K,135,2,53.22663796519701,38.66852300858609,1.5123574227481245,42.30960672516798,1,b,1.0305905000000166,incorrect,v
135,4F4K,136,2,68.6681809493311,51.969748161679775,2.084997174338107,54.05401877003531,1,b,3.1673619000002873,incorrect,v
136,4F4K,137,1,18.20308190681468,34.33930509354677,0.7300627909610555,38.51639093505751,1,c,0.8817480000002433,correct,c
137,4F4K,138,1,49.51258470703682,63.3490671889345,1.3999521734238765,63.35240059243333,1,c,0.7940062000002399,correct,c
138,4F4K,139,1,46.77121899245251,57.11430584828,1.3223797795933794,58.40363691985315,1,c,0.860717399999885,correct,c
139,4F4K,140,1,39.02487390349418,59.323640601943744,1.1256405585293714,60.20402328229783,1,c,1.3028770000000804,correct,c
140,4F4K,141,1,47.50317617568149,32.06459684921092,1.3426611782141409,36.56079217648399,2,c,0.9400192999996762,incorrect,n
141,4F4K,142,2,49.07458301524298,67.3306801168418,1.3872593151948691,66.26943645394691,2,v,1.637500700000146,incorrect,b
142,4F4K,143,1,45.92963616759221,63.16180183920076,1.2994391572125583,63.210116206495705,1,n,1.6860470999999961,incorrect,c
143,4F4K,144,2,64.57490818824307,51.38203739013268,1.9148710543223089,53.54579783047991,1,b,0.6968719999999848,incorrect,v
144,4F4K,145,1,58.624873740206056,40.82379987240637,1.6920195199843346,44.22002522335517,2,c,1.3878257000001213,incorrect,n
145,4F4K,146,2,23.394650221497,37.75791876195662,0.8132887183758818,41.50583548371321,2,v,0.7751195999999254,incorrect,b
146,4F4K,147,1,38.12834262697292,57.48509081006584,1.104849818838173,58.70899497028651,1,c,1.0366980999997395,correct,c
147,4F4K,148,1,44.9561495508532,55.18169748869333,1.2733989559899668,56.79291519970128,1,c,0.799997600000097,correct,c
148,4F4K,149,2,25.395172439532427,41.31477600814241,0.8478348493593322,44.65630225529452,2,v,0.9024262000002636,incorrect,b
149,4F4K,150,1,34.92649398758941,42.40747265124017,1.0336837150923632,45.62800920574444,1,n,0.6847781000001305,incorrect,c
150,4F4K,151,1,37.844279351407664,30.15656609915199,1.0983427857802994,34.94736210256439,2,c,0.606402199999593,incorrect,n
151,4F4K,152,2,48.60707760114718,40.20652478391472,1.3738384126406198,43.67197632851192,1,b,0.9336011999998846,incorrect,v
152,4F4K,153,2,53.31767937606482,71.91700080224615,1.5152232584923448,69.34547946464225,2,b,0.7029293000000507,correct,b
153,4F4K,154,2,64.39084035809978,49.40927609220478,1.9075557354971937,51.82688507702122,1,b,0.8420461000000614,incorrect,v
154,4F4K,155,1,39.2456442070384,48.9027853976886,1.1308200170828715,51.38274533423108,1,c,0.9637793000001693,correct,c
155,4F4K,156,1,61.40533926446814,49.12754709300948,1.7927324295841145,51.57996534320613,2,c,1.540463499999987,incorrect,n
156,4F4K,157,2,59.11689342644418,41.05344415905532,1.709419876592009,44.42405050811298,1,v,1.7528187000002617,correct,v
157,4F4K,158,2,48.167560390111646,66.63220699241813,1.3613394160176548,65.77333308115938,2,b,1.806684000000132,correct,b
158,4F4K,159,1,43.77002425688506,63.64152092597443,1.2423750202942343,63.57373704604302,1,n,1.8074620000002142,incorrect,c
159,4F4K,160,1,53.56938301322165,39.10482690234954,1.5231747735548005,42.69554217019074,2,c,2.749548899999809,incorrect,n
160,4F4K,161,1,24.64993636206239,40.33606158544132,0.8347974454570675,43.78693707828918,1,c,2.812281100000291,correct,c
161,4F4K,162,1,41.37475162167026,51.37767761274688,1.1820102520552815,53.54202056839031,1,c,1.0003317000000607,correct,c
162,4F4K,163,2,70.50114752895416,47.97343761553408,2.1660017759892862,50.56528286128112,1,b,1.2430652000002738,incorrect,v
163,4F4K,164,1,30.34866636604924,47.97098607079943,0.9398223557724154,50.5631224925956,1,c,2.257994300000064,correct,c
164,4F4K,165,2,33.163692704124706,40.79526956570539,0.9964786368773038,44.19468239816091,2,v,0.9769152000003487,incorrect,b
165,4F4K,166,2,59.09016380743718,78.80048215499663,1.708469999217579,73.30537969705985,2,v,1.2673792000000503,incorrect,b
166,4F4K,167,2,47.910837632596895,36.47450921336237,1.3540914057338689,40.37770771621793,1,b,0.654394400000001,incorrect,v
167,4F4K,168,2,36.87941321608606,50.530459491812906,1.0765254276187382,52.806107262846176,2,v,1.2302279999998973,incorrect,b
168,4F4K,169,2,68.24370214573818,50.3947718835029,2.0666743299963017,52.6879096387083,1,v,1.376567100000102,correct,v
169,4F4K,170,1,60.65355057122415,74.80330499614544,1.7649245586934668,71.10723321967708,1,n,2.9616940000000795,incorrect,c
170,4F4K,171,1,58.23557588838998,43.52700672774432,1.6783775395326497,46.623932947500485,2,c,1.3310437999998612,incorrect,n
171,4F4K,172,1,45.44826916367317,33.41939690489718,1.286496984015631,37.72174310235387,2,c,0.8199918999998772,incorrect,n
172,4F4K,173,2,52.60717999483316,65.49126531681303,1.4930012774141033,64.94829392199995,2,b,1.097378099999787,correct,b
173,4F4K,174,2,66.84998058610422,53.124930350775934,2.0076383606914368,55.04701113392841,1,v,0.9942201999997451,correct,v
174,4F4K,175,2,55.14023654054244,68.4468942004321,1.5737507835202729,67.04761582343616,2,b,0.9941274000002522,correct,b
175,4F4K,176,1,34.094268427213606,44.860973275531954,1.0159490501892785,47.80983310946358,1,c,1.2128159999997479,correct,c
176,4F4K,177,1,46.85218115549038,65.52905065528213,1.3246079615344404,64.97590243650586,1,n,0.7758054000000811,incorrect,c
177,4F4K,178,2,50.73406491462312,64.91754782104742,1.4359663555337878,64.52674735342903,2,v,1.4615893999998661,incorrect,b
178,4F4K,179,1,61.65321185464063,76.83986095673205,1.8019966831322605,72.26330949637897,1,n,1.0362742999996044,incorrect,c
179,4F4K,180,2,55.84396152159614,45.76946199191557,1.596949670710381,48.6162631447834,1,v,1.1338371000001644,correct,v
180,4F4K,181,2,59.06400506765117,71.21916565807453,1.707540919931892,68.89867964521757,2,v,1.1087360999999873,incorrect,b
181,4F4K,182,1,55.83697742541965,48.7318601985219,1.5967177622352415,51.232633662242286,2,c,1.4797435000000405,incorrect,n
182,4F4K,183,2,47.56005477052691,58.85650029854451,1.3442501597996417,59.82728513686536,2,b,1.0237428000000364,correct,b
183,4F4K,184,1,36.95143732822571,57.20619042170377,1.0781389469883884,58.47942322916712,1,n,0.5572610999997778,incorrect,c
184,4F4K,185,1,41.17295173929451,59.42617597129132,1.1770605624035917,60.28642045396748,1,c,0.6306610999999975,correct,c
185,4F4K,186,1,47.10431852579504,40.09875903377338,1.331571184583518,43.57635857108452,2,c,2.5190106000000014,incorrect,n
186,4F4K,187,1,73.23255511229374,57.54325098004519,2.2925872710155333,58.75677947406816,2,n,0.6786689000000479,correct,n
187,4F4K,188,2,45.011800735701534,58.44564084443925,1.274873429364959,59.49414622422022,2,b,1.9045192999997198,correct,b
188,4F4K,189,2,57.88358964912598,41.55213654609825,1.6661377583634227,44.86730912691981,1,b,1.898033100000248,incorrect,v
189,4F4K,190,1,51.52578594627653,65.7174994450899,1.4598028860983476,65.11330740270438,1,n,1.2250401999999667,incorrect,c
190,4F4K,191,2,40.20826320030301,56.037759724649845,1.1536838236980809,57.51022472357356,2,b,1.8559497999999621,correct,b
191,4F4K,192,2,47.75246963901935,24.58905654605812,1.349639487231481,30.420429338036037,1,v,1.4433653999999478,correct,v
192,4F4K,193,1,53.67714851822643,37.13225334235017,1.526591914743269,40.95511490533475,2,c,2.573605000000043,incorrect,n
193,4F4K,194,1,24.01662015275985,38.48843929816724,0.8238757047538906,42.150458616019634,1,c,0.7346354000001156,correct,c
194,4F4K,195,1,55.53673367437084,66.52490601475176,1.586779880612689,65.69650920124616,1,n,2.4278855000002295,incorrect,c
195,4F4K,196,1,54.98886208687152,38.80420020185546,1.568804808491531,42.429568550828506,2,c,1.0853326000001289,incorrect,n
196,4F4K,197,2,38.72698647498554,54.386430680857245,1.118689447543842,56.12144759890799,2,v,0.7767300000000432,incorrect,b
197,4F4K,198,2,65.0187169290358,75.35643717095408,1.9326247037073967,71.42850854076936,2,v,0.9335419999997612,incorrect,b
198,4F4K,199,2,38.39334804242984,25.088883679134,1.1109550467593037,30.81411336671438,1,b,0.8294624999998632,incorrect,v
199,4F4K,200,2,62.643246080789694,43.35914255172105,1.839479224690324,46.47461540758161,1,b,1.27342039999985,incorrect,v
200,4F4K,201,1,66.52159796613122,52.47135541516826,1.9939758531998015,54.486204684162,2,c,1.9896223000000646,incorrect,n
201,4F4K,202,2,47.1599954285514,61.49691322833631,1.3331137287319812,61.92659215306792,2,v,1.4736235999998826,incorrect,b
202,4F4K,203,2,49.46984136529317,64.89837508285717,1.3987084168283943,64.51258438941791,2,v,0.88414290000037,incorrect,b
203,4F4K,204,1,55.58556815748589,44.43979422767575,1.5883920494594,47.43557904318612,2,n,1.9280169000003298,correct,n
204,4F4K,205,1,51.09697846481422,39.61440553844957,1.4468439762770102,43.1468699111304,2,n,1.947044300000016,correct,n
205,4F4K,206,2,47.67472454070834,61.43704043583644,1.347459336593957,61.87983080954511,2,b,1.0003399000001991,correct,b
206,4F4K,207,1,54.69737700051126,47.97713773718196,1.5593246315042475,50.56854347299132,2,n,1.1884276000000682,correct,n
207,4F4K,208,2,56.093219076452,42.271161792759415,1.605248412872862,45.50675545460805,1,b,1.4250817000001916,incorrect,v
208,4F4K,209,1,68.57750748316381,52.80900196720183,2.081069612449867,54.77626196389385,2,n,0.5815557999999328,correct,n
209,4F4K,210,1,67.9774552517512,45.969726645123664,2.0552639097153493,48.79383938748674,2,n,0.8477818000001207,correct,n
210,4F4K,211,1,53.47695174553458,39.55239384074576,1.520249960842463,43.09191629805222,2,n,0.5876370000000861,correct,n
211,4F4K,212,2,50.53974814025704,34.26898666216171,1.4301757478705368,38.4554794170298,1,v,0.9092285000001539,correct,v
212,4F4K,213,1,26.02153272002626,44.457856543065816,0.8589499540562897,47.45163302159108,1,c,1.4069180999999844,correct,c
213,4F4K,214,2,50.161844656882,37.807744795827794,1.418981066594153,41.54975018206133,1,b,2.5614666999999827,incorrect,v
214,4F4K,215,2,67.76852793756457,50.82731150194382,2.046354140109175,53.064379047852015,1,v,1.0852211000001262,correct,v
215,4F4K,216,2,57.93733326120982,42.80554401869778,1.6680008197864822,45.98213378686906,1,v,0.897124900000108,correct,v
216,4F4K,217,2,49.08912376871471,54.639708825825366,1.38767883931625,56.33581173457228,2,b,0.9207768999999644,correct,b
217,4F4K,218,2,50.83782778511915,62.537869191619,1.4390680683046573,62.732961593384864,2,b,0.6786536999998134,correct,b
218,4F4K,219,1,71.64756353222646,58.6494067436109,2.2182575917458336,59.659573270542566,2,n,0.6483266999998705,correct,n
219,4F4K,220,1,69.14583026322511,59.0826636313188,2.105809467345283,60.00995452180616,2,n,0.7332649999998466,correct,n
220,4F4K,221,2,31.192626834545266,51.13142940058506,0.956461501535574,53.32850810352533,2,b,0.9448418000001766,correct,b
221,4F4K,222,1,40.85722538555936,57.92536007243525,1.169358066214871,59.06994568951288,1,c,1.3939691999999013,correct,c
222,4F4K,223,1,52.60367355757855,36.30653025751208,1.4928924202204656,40.23052159391308,2,n,0.8971550000005664,correct,n
223,4F4K,224,2,46.57385203631236,36.27755596134606,1.3169636822272004,40.20514566840415,1,v,1.2789056999999957,correct,v
224,4F4K,225,2,68.17445812872683,51.14121320655494,2.0637006900311983,53.33699742698908,1,b,0.6785871000001862,incorrect,v
225,4F4K,226,2,34.300624873396735,49.38604852037394,1.020317917047832,51.80653978810325,2,v,1.0366981999995915,incorrect,b
226,4F4K,227,1,52.82781015740034,33.57392056627438,1.4998667178786749,37.8548846238322,2,n,0.835670399999799,correct,n
227,4F4K,228,1,35.917828268097374,52.14252666929799,1.0552134421677568,54.20305358248982,1,c,0.9760069000003568,correct,c
228,4F4K,229,2,47.582401524211306,67.0050124234322,1.3448749614444082,66.0389882003607,2,v,0.8607097000003705,incorrect,b
229,4F4K,230,1,50.94817974634647,27.62809455515785,1.4423740960387748,32.854724179382174,2,n,2.002047799999673,correct,n
230,4F4K,231,2,44.32495813841673,50.00319014538636,1.2567944755506946,52.346311493106406,2,b,1.1277035000002797,correct,b
231,4F4K,232,1,54.99635765917423,40.64301358544613,1.5690493509486672,44.05945546316067,2,n,0.8303040000000692,correct,n
232,4F4K,233,1,45.86907448385766,30.96857301226735,1.297803745244047,35.630686778308664,2,n,0.5442143000000215,correct,n
233,4F4K,234,2,71.84891266140068,62.79385877635666,2.227564768185246,62.92930092434673,1,b,0.8659526999999798,incorrect,v
234,4F4K,235,1,44.82254005313898,58.07455056544215,1.2698659419015954,59.19184832246135,1,c,0.587637900000118,correct,c
235,4F4K,236,2,26.44344783081655,39.35832014243034,0.8665190879167232,42.91998522915046,2,v,0.8423642000007021,incorrect,b
236,4F4K,237,2,50.71412206460575,63.5115847198154,1.4353709838772812,63.47552962913709,2,v,1.2188992000001235,incorrect,b
237,4F4K,238,1,38.879909562052696,53.793693273654526,1.1222524819271045,55.61797252900202,1,c,0.6786519000006592,correct,c
238,4F4K,239,1,73.09504267681544,60.23134016315793,2.286041002972957,60.92965873441597,2,n,0.4844279999997525,correct,n
239,4F4K,240,1,70.4258361232241,58.61534978053417,2.1626123492001965,59.63195234944585,2,n,0.5937175999997635,correct,n
240,4F4K,241,2,47.08114493573036,30.5501504612833,1.3309296799622443,35.277936204077456,1,b,3.743836300000112,incorrect,v
241,4F4K,242,2,25.672549992705616,36.28021220038471,0.8527392097793268,40.20747187751331,2,b,0.5693830000000162,correct,b
242,4F4K,243,1,33.92387353360291,41.463226956135095,1.0123556462655936,44.78826499251848,1,c,0.678661099999772,correct,c
243,4F4K,244,1,63.03425897378556,49.671256890519736,1.8544967881636187,52.05619863535905,2,n,0.6900035999997272,correct,n
244,4F4K,245,2,44.362727953109946,28.026094561484573,1.257781951192768,33.18034751439121,1,v,2.2945342999992135,correct,v
245,4F4K,246,2,54.790247191404006,43.31515068064947,1.5623388797120024,46.43548239286301,1,v,0.9036914999996952,correct,v
246,4F4K,247,1,43.36851758215143,62.75235845382284,1.2320454923693116,62.89752451937248,1,c,0.7516187999999602,correct,c
247,4F4K,248,1,66.81852152208941,43.46253057793878,2.006325447674634,46.56658177737952,2,n,0.5809773999999379,correct,n
248,4F4K,249,1,55.436716040889486,36.57810818637373,1.5834831122855768,40.46854056359142,2,n,0.8486859999993612,correct,n
249,4F4K,250,2,56.61586810031837,39.50839895120163,1.622789691277828,43.05293378465956,1,v,0.6786743000002389,correct,v
250,4F4K,251,2,44.94798358000895,59.5497615644384,1.27318274281325,60.38559042263397,2,b,1.085272299999815,correct,b
251,4F4K,252,2,64.58491301669228,51.43941453047624,1.915269474269359,53.59549911007638,1,v,0.599750800000038,correct,v
252,4F4K,253,1,57.38000052145482,43.64484091092134,1.648781263646439,46.728741036229,2,n,0.5815665000000081,correct,n
253,4F4K,254,1,54.36181384785672,45.51694804862985,1.5484817881551267,48.39225074164091,2,n,0.6725875000001906,correct,n
254,4F4K,255,1,29.991577880942152,46.484338887947615,0.932869600938324,49.24977006730563,1,c,0.6058196000003591,correct,c
255,4F4K,256,1,56.36175380675966,69.5817611843689,1.6142372300298138,67.81976159762134,1,n,0.5572363999999652,incorrect,c
256,4F4K,257,1,62.67720222129392,44.31215325587229,1.8407785361270876,47.322121144040686,2,n,0.7264209000004485,correct,n
257,4F4K,258,2,58.13235837784894,67.77282356208786,1.6747790208235465,66.57986058910137,2,v,1.0368881000003967,incorrect,b
258,4F4K,259,1,51.09381794929651,62.66810375886822,1.446748891263573,62.83294759097305,1,n,1.2009776999993846,incorrect,c
259,4F4K,260,1,42.83067904560891,51.12670366393177,1.2183430161544075,53.324407442179215,1,c,0.7939704999998867,correct,c
260,4F4K,261,2,56.19580385955713,69.2050460030751,1.6086763686319543,67.56561941707669,2,v,1.698161700000128,incorrect,b
261,4F4K,262,2,62.910932534307264,74.01284872507003,1.849747021892119,70.63885521172946,2,b,0.9517383000002155,correct,b
262,4F4K,263,2,66.1001775330744,56.152882498871705,1.976578599916294,57.60623421361079,1,b,0.635328400000617,incorrect,v
263,4F4K,264,1,35.46425808594207,46.54922454822291,1.045307744626243,49.30721480274278,1,c,1.0310613999999987,correct,c
264,4F4K,265,1,37.7488750186068,51.91678870270278,1.0961659684115803,54.00830237977953,1,c,0.5815692000005583,correct,c
265,4F4K,266,1,51.66273971908868,60.49597001420556,1.4639661456690038,61.13956998032525,1,n,1.3892737999995006,incorrect,c
266,4F4K,267,1,60.12328815645757,43.7871787729704,1.745570523161628,46.85533454434547,2,n,0.5874959000002491,correct,n
267,4F4K,268,1,40.54825201041565,60.47121771876173,1.1618691170654325,61.119967839668064,1,c,0.4848256000004767,correct,c
268,4F4K,269,1,50.587395074919726,68.02837259660572,1.4315934541268989,66.7579807117526,1,c,0.5634990999997171,correct,c
269,4F4K,270,2,49.91872782957342,40.42187138033498,1.4118255496139926,43.86310623022921,1,v,1.376535800000056,correct,v
270,4F4K,271,1,55.05096875231832,44.91852172564231,1.5708321845313862,47.860953222486415,2,n,0.5997747999999774,correct,n
271,4F4K,272,2,66.01242588347583,75.1255556744278,1.972975138168952,71.29505913107158,2,b,0.7506259000001592,correct,b
272,4F4K,273,1,64.78068002320347,53.71317231978314,1.9230821604274675,55.54938727775473,2,n,0.8667505000003075,correct,n
273,4F4K,274,1,31.27378916660257,39.51662247737191,0.958077106812286,43.06022008269529,1,c,0.7757751999997708,correct,c
274,4F4K,275,1,52.29221151573802,36.252821883761015,1.4832546909409614,40.18348615370101,2,n,1.6132298000002265,correct,n
275,4F4K,276,1,33.12427304227046,46.10541608316131,0.9956621492323234,48.91411103045591,1,c,0.684724499999902,correct,c
276,4F4K,277,1,54.65158981232394,41.90342399853225,1.5578406773097186,45.17967806558323,2,n,0.702903200000037,correct,n
277,4F4K,278,1,50.01079206063775,38.96410989943148,1.4145309681467553,42.57101738757425,2,n,0.9820631000002322,correct,n
278,4F4K,279,2,50.58240821501855,35.76465261280758,1.4314450072485103,39.75653927292606,1,v,1.4182467999999062,correct,v
279,4F4K,280,2,62.66891847370211,48.19954560250167,1.8404614788609708,50.7644495107129,1,v,0.915296600000147,correct,v
280,4F4K,281,1,43.23708641343137,53.352496005915896,1.228682866931986,55.24163274622888,1,c,2.950436500000251,correct,c
281,4F4K,282,1,50.68479888832288,59.80352728469044,1.43449602127838,60.58872734343528,1,c,0.6862816000002567,correct,c
282,4F4K,283,2,57.407093463706815,40.76800329677281,1.649710418870966,44.1704633969633,1,b,1.7164270000002944,incorrect,v
283,4F4K,284,1,51.078470172310354,73.64332145635902,1.4462872378473577,70.41620031110388,1,c,0.7514477999993687,correct,c
284,4F4K,285,1,47.76622985468778,30.05567566740799,1.35002572244625,34.86282116144449,2,n,1.7831724999996368,correct,n
285,4F4K,286,2,44.26935693317811,54.17966961859811,1.2553422163246586,55.94610718978438,2,v,1.437210199999754,incorrect,b
286,4F4K,287,2,59.638331713220495,43.227502682592295,1.7280559768188528,46.35751337967604,1,v,0.9873788999993849,correct,v
287,4F4K,288,2,46.806901471047,58.653043258683056,1.3233613445882997,59.66252189067051,2,b,0.6422218000006978,correct,b
288,4F4K,289,1,57.557348599656265,40.98629303253144,1.6548729466904608,44.36438405529652,2,n,1.279487999999219,correct,n
289,4F4K,290,1,29.269879855847734,50.50034534754956,0.918974283972497,52.77988252259802,1,c,0.5086908999992374,correct,c
290,4F4K,291,1,54.678654239948656,42.28166447488476,1.5587176595852188,45.51609776611848,2,n,0.6301086999992549,correct,n
291,4F4K,292,2,48.609066685891634,66.17290998008659,1.3738952383203156,65.44336382948221,2,b,1.709737000000132,correct,b
292,4F4K,293,1,51.203397868226176,63.94412031828069,1.4500492849326263,63.80162286903093,1,n,0.8849602000000232,incorrect,c
293,4F4K,294,1,48.158033648621256,35.0657246322566,1.3610697572789212,39.14716240135134,2,n,1.376550899999529,correct,n
294,4F4K,295,2,67.45376260134134,51.383695917034544,2.0330037524177547,53.54723473245687,1,b,0.9263541999998779,incorrect,v
295,4F4K,296,1,45.31838952699132,34.63035443217716,1.2830271378553617,38.768787566254666,2,n,1.242147599999953,correct,n
296,4F4K,297,1,33.360990429495445,42.73686187497071,1.0005752785560913,45.92103259412691,1,c,0.6169002000006003,correct,c
297,4F4K,298,1,24.982062250414035,40.6191938624402,0.8405828151632797,44.03830277957658,1,c,0.6057967999995526,correct,c
298,4F4K,299,2,47.68727317789515,56.8274220243188,1.3478109906335105,58.16653376062467,2,b,1.7225145000002158,correct,b
299,4F4K,300,1,34.15288769614433,47.37817677895019,1.01718819984771,50.04016660956714,1,c,0.569437499999367,correct,c
300,4F4K,301,2,50.738870606363605,69.71452348910483,1.436109861048287,67.90880658556459,2,b,0.7639208999999028,correct,b
301,4F4K,302,1,61.2760320033296,44.17658811048958,1.787918482037418,47.20160292191383,2,n,1.0731425999993007,correct,n
302,4F4K,303,1,63.12283238107352,46.397663186498754,1.8579156075905352,49.17301885497945,2,n,0.5744328999999198,correct,n
303,4F4K,304,1,26.34506281653363,39.915102389683646,0.8647481243537167,43.41345264586529,1,c,1.3103329999994457,correct,c
304,4F4K,305,2,50.673545985131945,35.29303776620283,1.4341603920028454,39.34509483834884,1,b,0.8789312999997492,incorrect,v
305,4F4K,306,1,40.93076387304312,29.2287687948049,1.1711476046332092,34.17305593851207,2,c,0.7942017000004853,incorrect,n
306,4F4K,307,2,43.52144750930504,36.24743142065323,1.2359697424148006,40.17876609304992,1,v,2.7555674999994153,correct,v
307,4F4K,308,2,45.64019459043924,58.23507865654073,1.29164162319773,59.3227795313645,2,b,1.3098056000008,correct,b
308,4F4K,309,2,53.08701570867152,38.77560613682287,1.5079728679137516,42.40428247595495,1,b,1.7346125000003667,incorrect,v
309,4F4K,310,1,44.73178822721368,38.775537777314966,1.2674717980455548,42.40422202738126,2,c,0.8415247000002637,incorrect,n
310,4F4K,311,1,61.853340711483895,51.65554081037764,1.80951143081002,53.78254982140993,2,n,0.4661808999999266,correct,n
311,4F4K,312,1,32.62609952901828,50.40305504828192,0.9854010990650686,52.69512766569317,1,c,0.7089944999997897,correct,c
312,4F4K,313,1,48.34052140968481,37.321611567855086,1.3662444565735552,41.12164674413725,2,n,1.8438390999999683,correct,n
313,4F4K,314,1,67.27905447017233,56.89468339119261,2.0256313443252627,58.222188825836746,2,n,0.5575535000007221,correct,n
314,4F4K,315,2,50.70256770674998,33.92790325645789,1.4350261542914395,38.16041214958205,1,b,0.7703890000002502,incorrect,v
315,4F4K,316,1,47.366480840382486,33.93391234099997,1.3388500834523038,38.165604895088855,2,n,0.6301043000003119,correct,n
316,4F4K,317,2,61.31363827217847,42.61914225550646,1.7893171817845006,45.8163075148661,1,b,0.6051536000004489,incorrect,v
317,4F4K,318,1,41.03700935265534,49.6408180840394,1.1737378961668077,52.02957046721395,1,c,0.5503631999999925,correct,c
318,4F4K,319,1,47.19368794286171,68.95772420452819,1.3340480569899695,67.39759153076245,1,n,1.5647116000000096,incorrect,c
319,4F4K,320,2,49.68556198739624,62.77940836987867,1.4049968146400855,62.91823874599426,2,v,0.8970419999996011,incorrect,b
320,4F4K,321,2,48.97883923234072,30.522745458440973,1.384500118293138,35.25487928145778,1,b,2.0924605000000156,incorrect,v
321,4F4K,322,1,43.66319919074028,52.5145399513394,1.2396183151103486,54.52334191068269,1,c,0.8424968999997873,correct,c
322,4F4K,323,1,27.32210375182972,43.8057815970089,0.8824968980983932,46.871878806994665,1,c,0.5937263999994684,correct,c
323,4F4K,324,1,50.359536198858926,57.599718583265535,1.4248263339143106,58.80314373578186,1,n,1.1098124000000098,incorrect,c
324,4F4K,325,1,56.58593384248839,40.64882633774583,1.6217798751760788,44.06461749788014,2,n,0.5511087999993833,correct,n
325,4F4K,326,1,36.037912699301565,52.12507092666942,1.0578516930019015,54.188004598493386,1,c,0.8235472999995181,correct,c
326,4F4K,327,1,32.40420796704497,19.16117322848844,0.9808648280784672,26.339423917434644,2,c,1.7585257999999158,incorrect,n
327,4F4K,328,2,46.63207834824922,68.08681542256633,1.3185592040242031,66.79858123655913,2,v,1.1519963000000644,incorrect,b
328,4F4K,329,1,56.31138474469604,41.47721608218351,1.6125473708319735,44.80070141957597,2,n,0.7748822000003202,correct,n
329,4F4K,330,2,43.47438630558836,55.41052701229325,1.2347608014306228,56.98522753821162,2,b,0.8910053999998127,correct,b
330,4F4K,331,1,52.91952025568397,47.90760992198061,1.5027297796689538,50.50726687830074,2,n,0.6119226999999228,correct,n
331,4F4K,332,2,35.44199291913783,53.25455220761877,1.044823888433812,55.157909749450425,2,v,0.5041617000006227,incorrect,b
332,4F4K,333,2,47.79504394593894,34.0302906217431,1.3508348626888813,38.24891800906496,1,v,1.1095650999995996,correct,v
333,4F4K,334,1,51.73812365810166,63.20588062744254,1.4662628072903892,63.243646215563146,1,n,0.6179987000004985,incorrect,c
334,4F4K,335,1,53.056113257795765,36.86862136664959,1.5070041582391966,40.72348248087841,2,n,1.4858084000006784,correct,n
335,4F4K,336,2,61.43439561555424,55.454011798489375,1.793815943451463,57.02172640662395,1,b,1.8620297999996183,incorrect,v
336,4F4K,337,1,42.88128056370507,60.195119852853566,1.219625666696044,60.90086936041791,1,c,0.6717837999995027,correct,c
337,4F4K,338,1,45.20511282039146,63.559795216968645,1.2800084946956898,63.51199235932325,1,c,0.7090126000002783,correct,c
338,4F4K,339,1,29.12778946738343,43.54602472308883,0.9162630104567632,46.6408490123811,1,c,0.6786022999995112,correct,c
339,4F4K,340,2,42.536270007132266,32.81186467729285,1.2109070274437643,37.19968668812926,1,v,0.7029488000007404,correct,v
340,4F4K,341,1,41.847670743824864,54.047670510272965,1.1936915748876031,55.83400728751391,1,c,0.6421861999997418,correct,c
341,4F4K,342,2,51.99968415718901,42.96959781256129,1.4742595346667464,46.1280800057606,1,b,1.1329191999993782,incorrect,v
342,4F4K,343,1,47.98204752264428,61.66190012240008,1.356097986278047,62.05523715017258,1,n,2.2711750999997093,incorrect,c
343,4F4K,344,2,37.49109272237775,58.97655422268157,1.0903057657491737,59.92431480192971,2,v,0.674033999999665,incorrect,b
344,4F4K,345,2,56.35912370410659,40.279840135174375,1.614148947473821,43.73703849298823,1,v,0.611029800000324,correct,v
345,4F4K,346,1,36.81242281903514,53.80543183092279,1.07502684357779,55.62796733185463,1,c,0.6119176000001971,correct,c
346,4F4K,347,1,58.94026447002668,68.30168982140702,1.7031528714195276,66.94742210457589,1,n,0.5633544000002075,incorrect,c
347,4F4K,348,2,47.63149021261075,63.818522637206186,1.3462484711371532,63.70717630720288,2,v,0.6604689000005237,incorrect,b
348,4F4K,349,2,56.926303686777416,47.203082578061625,1.6332992133518978,49.88550368754175,1,v,1.2613038999998025,correct,v
349,4F4K,350,1,53.05293979321756,66.84764996560885,1.5069047138025051,65.92709398580492,1,c,0.5928957999994964,correct,c
350,4F4K,351,2,51.72759297180157,40.49324480364596,1.4659417609970518,43.92646971737452,1,v,1.722532400000091,correct,v
351,4F4K,352,2,36.0644242398192,46.98762488671958,1.058435038945741,49.69507026643876,2,b,0.4237176000006002,correct,b
352,4F4K,353,1,55.32227254299071,36.98163960517967,1.5797192422966564,40.82275067278146,2,n,0.5026163000002271,correct,n
353,4F4K,354,1,57.80228262089285,50.787776253174265,1.6633231457851343,53.03000745794237,2,n,0.7508054999998421,correct,n
354,4F4K,355,2,51.08603943286688,68.67003588426992,1.4465148989861951,67.20097477504383,2,b,0.8667674999996962,correct,b
355,4F4K,356,2,40.004151126617785,24.777304175071823,1.1487975152074554,30.568376368864605,1,b,0.9152027000000089,incorrect,v
356,4F4K,357,1,42.21257761144515,58.45638151429775,1.202783788739635,59.50287609596314,1,c,0.8780952000006437,correct,c
357,4F4K,358,2,49.902235057305816,41.242282594585895,1.4113414363911954,44.59186838085117,1,v,3.781333099999756,correct,v
358,4F4K,359,2,62.83596632106092,47.832404157450654,1.8468657372503463,50.4409685588957,1,v,1.3826030999998693,correct,v
359,4F4K,360,2,54.06799614963638,38.33997979659463,1.539049767867368,42.01932641849014,1,v,0.6483067999997729,correct,v
360,4F4K,361,1,67.98843046082979,53.7700383668431,2.055733021856559,55.59782864877528,2,c,3.0043378000000303,incorrect,n
361,4F4K,362,2,41.75002854353682,51.334957113962425,1.1912703474996034,53.505002563035234,2,b,1.182230200000049,correct,b
362,4F4K,363,2,56.63661386440669,61.70025808540146,1.6234899073432252,62.08510126027602,2,b,2.7132033999996565,correct,b
363,4F4K,364,1,26.203305881897556,41.98926808558352,0.8622028141484595,45.25602421238089,1,c,0.5865570999994816,correct,c
364,4F4K,365,2,69.22027083369976,53.04893496588184,2.109071675419828,54.98194200586842,1,b,1.509385000000293,incorrect,v
365,4F4K,366,1,47.67274022445519,61.00834454217968,1.347403737935407,61.54383184917809,1,c,1.5404185000006692,correct,c
366,4F4K,367,2,45.37956236914559,65.0507085112828,1.28466025549266,64.6249795408767,2,v,0.884193800000503,incorrect,b
367,4F4K,368,1,49.30812241634274,60.02897570486555,1.3940126687985714,60.768632252054765,1,c,0.9996780000001309,correct,c
368,4F4K,369,1,28.43661165683977,36.84148904291749,0.9031880791259428,40.69965838587161,1,c,0.8603703999997379,correct,c
369,4F4K,370,1,53.99050832147304,69.72723866070012,1.536571872163636,67.91732048441246,1,n,1.0185090000004493,incorrect,c
370,4F4K,371,1,50.858436131888745,38.55638150270153,1.4396848965681648,42.21049173765124,2,n,1.0185756000000765,correct,n
371,4F4K,372,1,38.80648232819154,47.97383655264196,1.120540248610303,50.56563441377551,1,c,0.5563895999994202,correct,c
372,4F4K,373,2,54.24515811272955,34.27561276172908,1.5447300521960263,38.46121795410408,1,b,1.7042813999996724,incorrect,v
373,4F4K,374,2,60.838728944569645,78.35036475991424,1.7717338130739624,73.07240362194824,2,b,1.0488586999999825,correct,b
374,4F4K,375,2,53.13628828824411,29.924841088039287,1.5095187204034413,34.75331055690237,1,v,0.630121500000314,correct,v
375,4F4K,376,1,57.50758869601255,38.84039968623219,1.6531614887377566,42.46158323707356,2,c,1.3947713999996267,incorrect,n
376,4F4K,377,1,64.0904127175832,50.11915187577305,1.8956759669571257,52.44754585623643,2,n,0.6117740999998205,correct,n
377,4F4K,378,2,65.81043920977159,52.2468334004942,1.96470563716466,54.29294116534759,1,v,3.028738500000145,correct,v
378,4F4K,379,1,51.6790227249827,71.56807485037587,1.4644619220771875,69.12306353197347,1,n,2.2762362000003122,incorrect,c
379,4F4K,380,1,53.7881116057243,72.37028713613535,1.5301184590984562,69.63143477626727,1,c,1.273594299999786,correct,c
380,4F4K,381,1,79.81173428359776,62.67157484447125,2.6287045998647205,62.83560968931275,2,n,0.5329944000004616,correct,n
381,4F4K,382,2,68.20183279574461,58.0073535262521,2.0648757658387864,59.13696799055676,1,v,1.3334230999998908,correct,v
382,4F4K,383,1,54.7555566944183,32.01147233773885,1.5612122638947776,36.515514209762514,2,n,1.1100683999993635,correct,n
383,4F4K,384,1,46.31768603946175,34.15551489239287,1.309967102221174,38.35724452074251,2,n,1.5161154999996143,correct,n
384,4F4K,385,2,52.71470211460219,59.597229135991824,1.496343153280777,60.42363848925828,2,b,0.7818392999997741,correct,b
385,4F4K,386,1,57.545385586513895,40.749585586787056,1.6544613253006788,44.15410460725676,2,n,1.0187235000003056,correct,n
386,4F4K,387,1,62.77625247794084,75.45749888824547,1.8445738805690413,71.48662639445834,1,n,0.70368420000068,incorrect,c
387,4F4K,388,1,45.94865488393198,56.70540653813548,1.2999531650574685,58.06547194963171,1,c,1.0488059999997859,correct,c
388,4F4K,389,2,71.27890635000404,54.62678391845314,2.2013174202765127,56.32488408191185,1,v,0.9823028000000704,correct,v
389,4F4K,390,2,58.67649885274827,73.53921707220022,1.693836902006485,70.35305200729101,2,v,0.9335471999993388,incorrect,b
390,4F4K,391,2,74.74910022982101,51.67649568748757,2.3660376104588834,53.8006718290992,1,b,0.7211419000004753,incorrect,v
391,4F4K,392,1,48.13556309254575,54.59358626998816,1.3604339295569268,56.296810708446586,1,c,0.5875685000000885,correct,c
392,4F4K,393,2,50.13801592173095,40.3145601536719,1.4182781290921571,43.767853163425954,1,v,1.5879995000004783,correct,v
393,4F4K,394,2,46.16981419458588,63.77062780767349,1.305945259718979,63.67110796023429,2,v,0.5576694000001226,incorrect,b
394,4F4K,395,1,48.5576214978238,33.624651534695275,1.3724262686946,37.89862653167901,2,n,1.067078400000355,correct,n
395,4F4K,396,1,61.77596602026092,43.74271536977518,1.8066023375716835,46.81579056578578,2,n,0.6604522999996334,correct,n
396,4F4K,397,1,58.309091618347445,40.923019803737496,1.6809452653485912,44.3081682278788,2,n,0.6065139000002091,correct,n
397,4F4K,398,1,71.15791866320433,49.58152131937399,2.1957861566202967,51.97768555764276,2,n,0.6301358000000619,correct,n
398,4F4K,399,1,53.40394654865205,37.202235298341925,1.5179438197014232,41.016645734263335,2,n,0.6301446999996188,correct,n
399,4F4K,400,2,35.22751362353466,52.36605859899259,1.0401743796402172,54.395605418641935,2,b,1.1763056999998298,correct,b
