,condition,trial,sub_task,x,y,xt,yt,cat,resp,rt,acc,correct_resp
0,2F4K,1,2,55.43535984881715,42.64839376301809,1.5834384567575168,45.95866156590871,1,v,1.3705435000001671,correct,v
1,2F4K,2,1,73.30322774259162,62.616302318676645,2.2959589250522328,62.9643297602317,2,c,1.6268790999993143,incorrect,n
2,2F4K,3,1,32.92685696298704,55.26999184950098,0.9915831829229352,57.01913879523757,1,n,2.8960815000000366,incorrect,c
3,2F4K,4,2,50.20331724711839,68.85947579700327,1.420205321232508,67.51638035750311,2,v,1.9956758999996964,incorrect,b
4,2F4K,5,1,41.90015120517622,50.33398416817212,1.194994962181816,52.77321824411158,1,n,1.8500389000000723,incorrect,c
5,2F4K,6,1,41.81169109790005,26.72990085890677,1.192798817864512,32.19742697665442,2,n,1.2795275999997102,correct,n
6,2F4K,7,2,63.90882305065547,50.49326754213899,1.888531295695067,52.91245652671386,1,v,1.449461799999881,correct,v
7,2F4K,8,1,60.22244774021521,43.63950505183171,1.7491735428677089,46.84317692706832,2,c,1.5161668000000645,incorrect,n
8,2F4K,9,2,75.80910692979975,63.17384020266043,2.4187693585886705,63.39178104713388,1,v,0.7446185999997397,correct,v
9,2F4K,10,2,44.67386569325353,58.400134358237935,1.265946091345585,59.61749024002274,2,v,2.3416747000001124,incorrect,b
10,2F4K,11,1,41.01993009929505,35.756337634875926,1.173321113542058,39.8459112423564,2,n,1.3402125000002343,correct,n
11,2F4K,12,1,65.53481782073558,58.246004021351055,1.9534773589795529,59.49161950850284,2,n,1.479818100000557,correct,n
12,2F4K,13,1,38.58040693644298,50.76933162270127,1.1152848333695422,53.15348411638159,1,c,5.0,correct,c
13,2F4K,14,2,45.95218634815039,60.39668844807978,1.300048630277529,61.22643348930923,2,v,0.7574997000001531,incorrect,b
14,2F4K,15,1,50.52783025812953,62.265691171923,1.4298213579206378,62.69360228739341,1,n,1.0125307999996949,incorrect,c
15,2F4K,16,1,50.24952400649172,64.88250784409365,1.4215705707240016,64.67750794565683,1,c,1.2391889999998966,correct,c
16,2F4K,17,2,39.36164163146479,25.499979214521336,1.133550958824075,31.20875864853985,1,b,1.1338525999999547,incorrect,v
17,2F4K,18,2,56.51821344045312,70.46550442801251,1.6194976820224292,68.59660875084289,2,v,1.2979671000002782,incorrect,b
18,2F4K,19,1,62.86630208636644,49.45617068822431,1.8480311344836704,52.00376398751837,2,c,1.4069657999998526,incorrect,n
19,2F4K,20,1,56.91659755057071,39.78640245120738,1.6329695922375045,43.407442860991225,2,n,2.4461020999997345,correct,n
20,2F4K,21,1,65.75741751101069,47.02949533925529,1.962540634425588,49.86099333918476,2,n,1.2673666000000594,correct,n
21,2F4K,22,1,64.15330312498521,73.14406890914864,1.8981566954651,70.306476045553,1,n,0.7262986000005185,incorrect,c
22,2F4K,23,1,63.669754383122594,51.8574250681212,1.879166150661734,54.09960205851003,2,n,0.7324911000005159,correct,n
23,2F4K,24,1,46.65234444141612,57.996902468255975,1.3191149904031194,59.28770952814024,1,c,1.1035529999999198,correct,c
24,2F4K,25,2,41.17313723975169,51.98260961059386,1.1770651027746482,54.208031705806405,2,v,1.2430027000000337,incorrect,b
25,2F4K,26,1,60.05493237017503,42.20286982771017,1.7430910992913708,45.56106013946012,2,c,0.8309546999998929,incorrect,n
26,2F4K,27,2,58.986750804297664,65.35981271991794,1.704800030600333,65.02987976482318,2,b,1.0491643999994267,correct,b
27,2F4K,28,2,58.599182435936726,51.850670457940126,1.6911158242449484,54.09374892722506,1,b,1.376654900000176,incorrect,v
28,2F4K,29,1,51.292540428039125,34.20218032178839,1.4527396868344038,38.48990083152594,2,c,1.0489173999994819,incorrect,n
29,2F4K,30,2,52.68696408175698,35.52039249210886,1.4954803171334632,39.63928207269169,1,v,1.0067813999994542,correct,v
30,2F4K,31,1,73.01196093059332,51.57949926285156,2.282094965091931,53.85855451483622,2,n,1.43162140000004,correct,n
31,2F4K,32,1,32.541928644886134,22.21453607221422,0.983677875467531,28.650062128465887,2,c,1.4373271999993449,incorrect,n
32,2F4K,33,1,50.99914032649435,35.534525642507965,1.4439033834857888,39.65165191123993,2,n,0.6786772999994355,correct,n
33,2F4K,34,2,61.35873165316602,54.1601454776492,1.7909957943881742,56.07847410418245,1,b,1.8491814999997587,incorrect,v
34,2F4K,35,2,41.87182561978374,54.59940619341849,1.1942913006851958,56.45187598901861,2,v,1.7225391000001764,incorrect,b
35,2F4K,36,1,51.9875510467439,72.5946111123544,1.47388762452059,69.96538183131705,1,n,1.5163358999998309,incorrect,c
36,2F4K,37,1,40.926815962278106,57.05157137827422,1.171051463806678,58.5086208040286,1,c,1.030702499999279,correct,c
37,2F4K,38,1,68.68487547574705,55.01517435885268,2.085721112841528,56.80398827066277,2,n,0.9510252000000037,correct,n
38,2F4K,39,2,37.02763710231399,52.67587192443674,1.0798486444076365,54.80682277485335,2,v,0.7879437000001417,incorrect,b
39,2F4K,40,1,39.00227235654681,48.119677126642415,1.1251116475751328,50.82613288648505,1,c,1.3707194999997228,correct,c
40,2F4K,41,2,61.51027632433664,70.57466410928822,1.7966486308785634,68.66856733886533,2,b,1.8564304999999877,correct,b
41,2F4K,42,2,71.85254974869895,50.95037111181615,2.2277332477393803,53.31133857691274,1,b,0.9467648999998346,incorrect,v
42,2F4K,43,2,35.100144607358764,51.70975026553152,1.0374230561184954,53.97157673132595,2,b,1.182394800000111,correct,b
43,2F4K,44,1,34.91466436407393,48.87207028532617,1.0334294703982467,51.48993326028996,1,c,1.5843777000000046,correct,c
44,2F4K,45,1,40.84658761988268,51.476996384674486,1.1690994256632956,53.769543600728696,1,c,1.3038216999993892,correct,c
45,2F4K,46,2,34.07234185237686,47.59461406988392,1.015485933496266,50.3617445488222,2,b,1.5222597999991194,correct,b
46,2F4K,47,1,39.26204756341676,29.515570295889518,1.1312058035546646,34.491028319226544,2,c,2.3590102999996816,incorrect,n
47,2F4K,48,2,33.00360590137699,53.23302344784431,0.9931669628973396,55.28588436281195,2,v,1.2309706999994887,incorrect,b
48,2F4K,49,1,62.104755238797246,47.31992631123888,1.8189963614546716,50.11845836373053,2,n,1.3402375000005122,correct,n
49,2F4K,50,1,43.45332536472397,56.85772211525613,1.234220156391549,58.347862739182816,1,c,1.529528200000641,correct,c
50,2F4K,51,1,38.29373791883779,51.78634248016621,1.108656269067069,54.037993157030726,1,c,1.0115656999996645,correct,c
51,2F4K,52,2,56.9366096363871,42.21886062987812,1.6336492770046718,45.57532979197431,1,b,1.1298655999999028,incorrect,v
52,2F4K,53,1,69.67244460663784,49.42378450181529,2.128996146051521,51.97531063120845,2,n,0.8243486000001212,correct,n
53,2F4K,54,1,55.52953998707768,37.110246233644055,1.586542534308268,41.036239611770206,2,c,1.408209899999747,incorrect,n
54,2F4K,55,2,41.92208240277305,62.37824276545257,1.1955400596577022,62.78066982743943,2,v,1.251425499999641,incorrect,b
55,2F4K,55,2,41.92208240277305,62.37824276545257,1.1955400596577022,62.78066982743943,2,many,1.251425499999641,incorrect,b
56,2F4K,56,2,29.07093136136715,48.24138220974945,0.9151803243982334,50.93364436186124,2,b,0.4119989999999234,correct,b
57,2F4K,57,1,50.81865320848865,38.6875293052336,1.4384943915441435,42.43137453926812,2,c,1.0064604999997755,incorrect,n
58,2F4K,58,2,52.23219473569613,37.63306401405582,1.4814047231672625,41.497786956968326,1,v,0.8425873999995019,correct,v
59,2F4K,59,1,54.94200737567398,37.35566042198996,1.5672770407351928,41.25277297205288,2,n,0.6604760000000169,correct,n
60,2F4K,60,2,47.48264841508163,59.88122909398701,1.3420881684359844,60.81499475041248,2,b,0.7517722000002323,correct,b
61,2F4K,61,1,72.01778094632442,58.886162341546495,2.2354006501986787,60.012889358563314,2,n,0.6422837000000072,correct,n
62,2F4K,62,1,52.77357801750107,66.04297534713068,1.4981762330960104,65.52887627938993,1,c,0.7878763999997318,correct,c
63,2F4K,63,1,34.19293738660637,45.56674594702516,1.018035677096241,48.56115429761451,1,c,1.4615993999996135,correct,c
64,2F4K,64,2,61.628393691626144,39.42315552156643,1.8010669500693337,43.084484513731006,1,b,1.3106135999996695,incorrect,v
65,2F4K,65,2,48.232523434118654,62.349255560618175,1.3631796492617283,62.758260328818736,2,v,0.7150698000004923,incorrect,b
66,2F4K,66,1,60.043880527235714,46.35988099192876,1.7426905540261712,49.26654779289378,2,n,0.6804080000001704,correct,n
67,2F4K,67,1,37.42050769653304,55.0751782840149,1.0887066167949675,56.85469674967516,1,c,1.242307499999697,correct,c
68,2F4K,68,1,58.05143831259703,52.4151964550756,1.671963264209948,54.5820108701235,2,n,0.9144956000000093,correct,n
69,2F4K,69,2,66.58908809678705,52.84195321204195,1.9967761989996184,54.94983397653543,1,b,1.9229105999993408,incorrect,v
70,2F4K,70,1,43.11875622138729,55.02425097741339,1.2256632775954244,56.81166057227991,1,c,2.3975488999994923,correct,c
71,2F4K,71,1,68.80668256480018,57.73245526414951,2.0910107471356976,59.07059648065597,2,n,0.7212807000005341,correct,n
72,2F4K,72,2,46.99285850588976,64.64496441789633,1.3284885146578291,64.50101472762466,2,b,1.206910799999605,correct,b
73,2F4K,73,2,44.28430570271384,54.75856765186058,1.2557325012692329,56.58682319310763,2,b,0.6726299000001745,correct,b
74,2F4K,74,2,44.49462142156096,24.388442688266306,1.2612363387279295,30.32916951932268,1,b,0.8781035000001793,incorrect,v
75,2F4K,75,1,43.70968975784667,58.95317302075205,1.2408172883405788,60.06722154518585,1,n,2.111000000000786,incorrect,c
76,2F4K,76,2,20.723781912608843,35.3622754571108,0.7693507893663722,39.50095677104972,2,v,1.6730963999998494,incorrect,b
77,2F4K,77,2,51.125941797957125,57.158968478938974,1.4477156375375673,58.59754097695323,2,b,1.3476726999997481,correct,b
78,2F4K,78,2,42.74459019120501,64.5561436832684,1.2161639292504838,64.43483125110188,2,v,1.1885007999999289,incorrect,b
79,2F4K,79,2,52.42948861579851,65.44178841294483,1.4874948344712813,65.09009147294924,2,b,0.7141252999999779,correct,b
80,2F4K,80,1,48.274928147510096,43.6946220479476,1.3643822056018478,46.89235723449626,2,n,0.7347602999998344,correct,n
81,2F4K,81,2,40.46863613922245,53.29344353182858,1.159947158043959,55.33771493350293,2,b,1.9893812999998772,correct,b
82,2F4K,82,2,56.76805457506055,32.92532590509973,1.6279333528301498,37.38571806576776,1,b,0.7770387999999002,incorrect,v
83,2F4K,83,2,79.77433651280005,62.343449078245214,2.62666114354109,62.75377023758252,1,v,0.824326299999484,correct,v
84,2F4K,84,2,50.89181211704333,39.63753212287935,1.440684433796336,43.27505077279774,1,b,1.485928299999614,incorrect,v
85,2F4K,85,2,48.10579611057463,39.48420927250916,1.3595920992232828,43.13874708069103,1,v,0.8425481000003856,correct,v
86,2F4K,86,1,42.98345856404217,58.45379861599149,1.2222197990582566,59.66126134487802,1,c,1.267325400000118,correct,c
87,2F4K,87,2,43.72020346748776,53.860871655784,1.2410885934704332,55.82327632636902,2,b,2.098838599999908,correct,b
88,2F4K,88,1,68.81496153917038,51.26401134280893,2.0913707590740773,53.5844086604509,2,n,1.2309587999998257,correct,n
89,2F4K,89,1,55.92223015575423,45.56905000767984,1.599550903178292,48.56320521508445,2,n,1.4372829000003549,correct,n
90,2F4K,90,2,29.757709085009687,46.16831303915275,0.9283439157390284,49.09629013042468,2,v,1.0003686999998536,incorrect,b
91,2F4K,91,1,62.171490109621416,46.42154086999523,1.8215223579466355,49.32133114301057,2,n,0.6251013000000967,correct,n
92,2F4K,92,1,52.21169897023132,33.62071259818739,1.480773486760233,37.98587125996057,2,n,0.7151573999999528,correct,n
93,2F4K,93,1,49.43668220940623,67.08660240200707,1.3977443044683957,66.27867242909208,1,n,0.4799953000001551,incorrect,c
94,2F4K,94,2,43.388294230717015,55.7443074305496,1.232552267692799,57.418256473367606,2,b,1.8490438000007998,correct,b
95,2F4K,95,2,61.41852024260841,43.91875948957068,1.7932238682798043,47.09233463568513,1,b,1.2869779000002382,incorrect,v
96,2F4K,96,2,42.3599848835234,52.89355473351309,1.2064762757070082,54.9942320774505,2,v,0.702948699999979,incorrect,b
97,2F4K,97,2,63.82004256997644,43.65734878284636,1.885048022226887,46.85909887089118,1,v,0.7939118000003873,correct,v
98,2F4K,98,2,66.40118745522872,49.27176353523567,1.9889894497373817,51.841691726022304,1,v,0.7211806000004799,correct,v
99,2F4K,99,2,37.120410404708096,46.41476399180405,1.081933863054584,49.31531047045864,2,b,0.569553299999825,correct,b
100,2F4K,100,1,57.10634036774694,40.6754481779996,1.6394253498173097,44.19892109510519,2,n,0.9096173999996608,correct,n
101,2F4K,101,1,44.33990842752053,56.77972140068244,1.257185251726767,58.28308386369853,1,c,1.3280673000008392,correct,c
102,2F4K,102,1,64.69060698240979,44.14718744618446,1.9194835674965067,47.29610462528792,2,n,0.5587020000002667,correct,n
103,2F4K,103,1,55.90935267132322,69.96548246582685,1.5991226331636608,68.26458709530398,1,n,0.7033481999997093,incorrect,c
104,2F4K,104,2,25.35625506604793,40.4770975840913,0.8471490046635276,44.02222596452582,2,b,2.0456169999997655,correct,b
105,2F4K,105,2,38.94337854142613,55.9947839938084,1.123734608956158,57.62828971074874,2,b,2.1791110000003755,correct,b
106,2F4K,106,2,47.20849302043271,38.84754270609904,1.3344588241646929,42.57332423250353,1,b,1.5647167999995872,incorrect,v
107,2F4K,107,2,40.942222897938976,55.44333626146777,1.171426703296757,57.16520893428255,2,v,0.8243912000007185,incorrect,b
108,2F4K,108,1,42.99070843931666,62.987173491216886,1.2224040710382873,63.24909039194863,1,c,3.0469783000007737,correct,c
109,2F4K,109,1,32.90144668409312,53.814476547701815,0.9910593768053256,55.78365777317925,1,c,2.239837600000101,correct,c
110,2F4K,110,2,45.28214368556934,38.651472205569405,1.2820604704206653,42.39939727192628,1,b,2.7182388000001083,incorrect,v
111,2F4K,111,1,42.33704583723308,56.13193823059835,1.2059009188625094,57.74307908839638,1,n,2.001716900000247,incorrect,c
112,2F4K,112,1,44.20895717018807,32.56106531922487,1.2537665241406948,37.07254925505285,2,c,2.3551340999993045,incorrect,n
113,2F4K,113,2,57.36122959904947,40.62512586368872,1.6481378198511114,44.15408741770796,1,b,2.555409900000086,incorrect,v
114,2F4K,114,1,56.23253356769205,53.0846187875834,1.6099055012302272,55.15847552260684,2,n,2.7921008000002985,correct,n
115,2F4K,115,2,36.56249003066054,44.83840954871175,1.0694542010012378,47.91241572144639,2,b,1.2309746999999334,correct,b
116,2F4K,116,1,60.93212481720396,46.74180923684407,1.7751780630677354,49.60573826659616,2,n,1.4554897999996683,correct,n
117,2F4K,117,1,50.27584058678532,40.12725187838343,1.4223487209192769,43.710725861629385,2,c,1.9899031999993895,incorrect,n
118,2F4K,118,1,36.15886156437645,46.35427390770628,1.0605156030239125,49.26156560284265,1,c,1.091392000000269,correct,c
119,2F4K,119,1,38.43383032942455,61.70397540724787,1.1118906485620268,62.25684256115616,1,c,1.904639500000485,correct,c
120,2F4K,120,2,45.00341862788835,29.46569293686315,1.2746512369753773,34.449350931336035,1,v,2.2080308999993576,correct,v
121,2F4K,121,1,43.45644255445036,34.66501401735289,1.234300161305473,38.89243677909993,2,n,3.083141799999794,correct,n
122,2F4K,122,1,42.3665478155911,23.33794364694148,1.2066409375780422,29.510739692112697,2,c,1.0792439999995622,incorrect,n
123,2F4K,123,1,41.1769605363507,55.47584615649519,1.1771586869578825,57.192577208242405,1,n,0.8717758000002505,incorrect,c
124,2F4K,124,1,48.484298479234255,59.78499319034226,1.3703353120435635,60.73786718910438,1,n,1.109594399999878,incorrect,c
125,2F4K,125,2,74.91850953013862,60.27526614413316,2.3743873089281258,61.12977039398248,1,v,1.5892951000005269,correct,v
126,2F4K,126,1,36.33043442363644,49.60248371596119,1.064306022947193,52.132253801087,1,c,1.3766303000002154,correct,c
127,2F4K,127,2,36.18723089250181,56.36368196196469,1.0611414107713126,57.93667614651829,2,b,3.289756899999702,correct,b
128,2F4K,128,2,47.74576825417412,51.87276353680293,1.3494514262095607,54.11289246270973,2,v,1.6193679999996675,incorrect,b
129,2F4K,129,2,42.807063238106366,60.74076246151414,1.2177448629103962,61.49947765524948,2,b,1.0125119000003906,correct,b
130,2F4K,130,1,32.86826170350374,51.40958355752336,0.9903757200301092,53.710972444621895,1,c,0.7576466999998956,correct,c
131,2F4K,131,1,33.70771308779401,43.21586730149352,1.0078153901038571,46.46512633412307,1,n,1.6801006000005145,incorrect,c
132,2F4K,132,1,33.481672213964075,21.89901663926244,1.0030893826429232,28.41113928032797,2,c,2.2565957000006165,incorrect,n
133,2F4K,133,2,36.27714543295848,48.57553669569162,1.063127304369112,51.2285618292382,2,v,2.214150900000277,incorrect,b
134,2F4K,134,2,62.59006053950205,44.60868385157173,1.8374459546942683,47.70764372349692,1,v,2.293055500000264,correct,v
135,2F4K,135,1,61.427163046949744,45.66436228681272,1.793546179136657,48.64803747387942,2,n,1.8196342999999615,correct,n
136,2F4K,136,2,46.70769602392955,53.98093836399328,1.3206341708942555,55.92573599534486,2,b,1.3513163999996323,correct,b
137,2F4K,137,1,50.913099547911926,38.34736272728608,1.441322307877853,42.12984049943269,2,c,1.4797578999996404,incorrect,n
138,2F4K,138,1,43.40251982287371,60.503755593946494,1.232916926452769,61.31153627907722,1,c,1.3164579999993293,correct,c
139,2F4K,139,1,69.5042439230701,51.76002501612879,2.121562702170125,54.01517589831232,2,n,2.79816320000009,correct,n
140,2F4K,140,1,48.05638525172888,39.13646747166212,1.3581958766423334,42.82979826088385,2,c,0.9700410999994347,incorrect,n
141,2F4K,141,2,50.19485301464224,68.44991728647727,1.4199553746430749,67.234585603255,2,v,1.734682000000248,incorrect,b
142,2F4K,142,1,39.049163330471096,30.88390453857469,1.1262092456600763,35.64228981099799,2,c,1.7336541000004217,incorrect,n
143,2F4K,143,1,53.08000707346128,42.31373769780012,1.5077531112502274,45.659996963954384,2,n,1.1581511000003957,correct,n
144,2F4K,144,2,66.97317566305557,55.121148260350814,2.0127880609831035,56.89352654819058,1,v,1.3953408000006675,correct,v
145,2F4K,145,2,48.613737676174566,33.674087957846645,1.3740286919498357,38.03205713508594,1,b,1.3889281000001574,incorrect,v
146,2F4K,146,1,36.40277287292754,54.758377395464834,1.0659081948520264,56.5866619949316,1,c,1.619403599999714,correct,c
147,2F4K,147,1,57.25277214118015,39.38723633938058,1.6444249474892956,43.052564568156015,2,n,0.8135652999999365,correct,n
148,2F4K,148,2,46.44359517282811,64.38721051171184,1.3134013608652977,64.3086692293133,2,v,1.6851362000006702,incorrect,b
149,2F4K,149,1,41.037774382040055,24.55770376469678,1.1737565685354825,30.46222535652853,2,c,1.0442507000007026,incorrect,n
150,2F4K,150,2,65.88119354290474,47.47048281801191,1.9675984262879047,50.25183132832939,1,b,1.035584000000199,incorrect,v
151,2F4K,151,2,34.01871335870573,49.988529043770505,1.0143541220232497,52.470823266446686,2,v,1.8743030000005092,incorrect,b
152,2F4K,152,1,76.02611488530336,60.77456460657796,2.429708848860505,61.52623180812976,2,n,1.5409199000005174,correct,n
153,2F4K,153,1,36.64049356460805,41.18905219719583,1.0711903038673591,44.65669581562966,1,n,3.0835004999999,incorrect,c
154,2F4K,154,1,41.11772786600524,52.676759755231245,1.175709662870024,54.807587739201686,1,c,0.6472585999999865,correct,c
155,2F4K,155,1,52.970187742065,32.43624727180284,1.5043138912708391,36.96543658927946,2,n,0.721156599999631,correct,n
156,2F4K,156,2,53.45952466445338,38.89293454207572,1.5196991434059173,42.613603989111226,1,b,3.009424400000171,incorrect,v
157,2F4K,157,2,40.6733728872933,32.95540497798737,1.1648960221495834,37.41161607768907,1,b,0.9275628999994296,incorrect,v
158,2F4K,158,1,51.52433687831147,32.92562740492842,1.4597588992196082,37.38597762808704,2,n,1.5348109999995359,correct,n
159,2F4K,159,2,56.39744640961956,66.08269486388684,1.6154357726250137,65.55769161599022,2,v,1.403454899999815,incorrect,b
160,2F4K,160,1,48.53455598123887,35.23807244592169,1.371768164321885,39.39238440592423,2,n,1.6557272999998531,correct,n
161,2F4K,161,1,65.31664810021779,72.81256580112412,1.9446350678235305,70.10129183652356,1,n,1.1217989999995552,incorrect,c
162,2F4K,162,1,24.359268070230307,46.10143011129846,0.8297669165542221,49.03682868767121,1,n,2.3976321999998618,incorrect,c
163,2F4K,163,1,60.75433531553079,48.10420251167282,1.7686272953737487,50.81245935336123,2,n,0.8789929000004122,correct,n
164,2F4K,164,2,47.15079621390237,57.36863382647806,1.3328587387423425,58.77083642268641,2,v,2.1889055000001463,incorrect,b
165,2F4K,165,2,46.42722639118712,59.53738917852905,1.3129543823767134,60.5389820861515,2,b,0.9456009000004997,correct,b
166,2F4K,166,1,72.38573935934062,50.33044957020423,2.2525703769252954,52.77012707281372,2,n,0.6726337000000058,correct,n
167,2F4K,167,2,43.50544853404863,33.91284245332108,1.2355586168520862,38.23885498998168,1,v,1.8803748999998788,correct,v
168,2F4K,168,2,53.45854071283623,39.04707219904916,1.5196680496177657,42.75042137673372,1,b,1.0246516999995947,incorrect,v
169,2F4K,169,2,37.71950643311021,52.84109792142383,1.095496741410915,54.949097939270416,2,v,0.7900215999998181,incorrect,b
170,2F4K,170,2,60.91038712776182,44.94625257631709,1.7743758238915526,48.00852164089216,1,b,0.9465879999997924,incorrect,v
171,2F4K,171,1,43.64793105812081,51.86256598381152,1.239224808816554,54.10405668552852,1,c,2.622200399999201,correct,c
172,2F4K,172,2,28.807223115807467,42.32021090901909,0.9101755226064696,45.66577370223822,2,v,2.1170287000004464,incorrect,b
173,2F4K,173,2,51.99988159318554,59.891528948837646,1.4742655873491837,60.82324372573412,2,v,0.8850694000002477,incorrect,b
174,2F4K,174,1,63.390684756572014,47.53475277819655,1.868292760986496,50.30874557338537,2,n,0.8062096999992718,correct,n
175,2F4K,175,1,52.36344467209037,71.02869937351488,1.4854533927014932,68.96583140933718,1,c,1.1267773999998099,correct,c
176,2F4K,176,1,60.339213441022814,50.38775912038492,1.753425826866047,52.82023956525005,2,n,0.8293555000000197,correct,n
177,2F4K,177,2,35.05383887811783,45.77529164233645,1.0364246016497471,48.74674890630806,2,v,0.994615800000247,incorrect,b
178,2F4K,178,2,28.381628961599976,41.63738879200152,0.902156024488349,45.05653275736935,2,b,1.3887747000007948,correct,b
179,2F4K,179,1,56.2306877292965,70.76776168408293,1.6098437092033522,68.79539405746158,1,c,1.4908705999996528,correct,c
180,2F4K,180,2,58.67286397413728,46.010617640851166,1.693708877884849,48.95607805089672,1,v,1.0912680000001274,correct,v
181,2F4K,181,2,80.39733346067226,66.33106105886101,2.66091053290591,65.73737816689804,1,b,0.9700126000007003,incorrect,v
182,2F4K,182,1,64.16447119207311,70.38730720859539,1.8985975620883877,68.54494465643641,1,c,1.1520669999999882,correct,c
183,2F4K,183,1,45.360646489432895,57.92285264474756,1.284155040608625,59.22698023813331,1,n,0.8789592999992237,incorrect,c
184,2F4K,184,1,53.10017674591472,37.37552339049037,1.5083856204882575,41.27030786457737,2,n,0.6967784999997093,correct,n
185,2F4K,185,1,49.1683237941135,71.49188192529832,1.3899661158546683,69.26566767737087,1,c,0.9229007000003548,correct,c
186,2F4K,186,2,43.86421491689934,28.006079764156468,1.24481076994639,33.23928461514758,1,v,0.8729267999997319,correct,v
187,2F4K,187,1,49.48071656431453,60.57099212782644,1.3990247612823012,61.3649158268252,1,c,1.03072659999998,correct,c
188,2F4K,188,1,68.95824794732502,53.2987850467654,2.097611410228321,55.34229591921292,2,n,0.831608999999844,correct,n
189,2F4K,189,1,42.88059496451625,55.61287214386604,1.2196082790628244,57.30783910654202,1,c,1.862156700000014,correct,c
190,2F4K,190,1,45.09300942769646,31.346621101152287,1.2770281106840835,36.03488381460786,2,n,0.8486246000002211,correct,n
191,2F4K,191,2,47.71016570943061,57.7434852061905,1.3484527510175697,59.07966520704924,2,v,1.3099210999998832,incorrect,b
192,2F4K,192,2,57.7910502505815,42.74427376722415,1.6629346878105535,46.04423374363471,1,v,0.8729215000003023,correct,v
193,2F4K,193,2,39.281531787896256,55.75601788425984,1.1316642192174229,57.428087515189056,2,b,1.1449074000001929,correct,b
194,2F4K,194,1,27.198464190083392,37.11842082175491,0.8802309018230401,41.04344867176511,1,c,1.8555357999994158,correct,c
195,2F4K,195,1,51.6138534014334,40.89594801882424,1.4624786889084724,44.395412006949016,2,n,1.4798307000000932,correct,n
196,2F4K,196,1,52.10083339977776,66.07922152690057,1.4773636661634428,65.55517268229033,1,c,1.2855837000006431,correct,c
197,2F4K,197,1,41.61525703194904,51.12592901773398,1.1879364922853093,53.46425156914126,1,n,1.6632668000002013,incorrect,c
198,2F4K,198,1,56.59512212214784,66.38187118206191,1.6220897699966392,65.77403223396193,1,c,1.0489125000003696,correct,c
199,2F4K,199,2,56.37154665722811,69.31114425047231,1.614565981283908,67.82420292432903,2,b,1.370606299999963,correct,b
200,2F4K,200,2,70.94004357222651,54.51446591902383,2.1858604620451456,56.37978106904757,1,b,0.8304176999999981,incorrect,v
201,2F4K,201,1,58.176430891708485,72.52942047513463,1.6763145959660493,69.92457646855246,1,c,1.9832793999994465,correct,c
202,2F4K,202,1,18.8269181164434,32.59846558091033,0.7395950855522703,37.104664209052736,1,c,2.5068545000003724,correct,c
203,2F4K,203,2,36.77667899884057,47.33430774482317,1.074228103268941,50.13120123980362,2,v,1.765026800000669,incorrect,b
204,2F4K,204,2,50.12123066233736,43.38153832320413,1.417783180164288,46.61297734684213,1,v,1.8089678000005733,correct,v
205,2F4K,205,1,59.85155552382589,48.695805735268735,1.7357349540510192,51.33460955028813,2,n,0.909420200000568,correct,n
206,2F4K,206,1,45.56617238801532,60.34490284618326,1.289654995209871,61.18522693345987,1,c,2.056553100000201,correct,c
207,2F4K,207,2,39.8350427854665,52.59740882019362,1.1447648528978192,54.73919873834964,2,b,1.2004169000001639,correct,b
208,2F4K,208,1,33.64643217863531,51.1685741037719,1.006531948183884,53.50137148735434,1,c,1.8014797999994698,correct,c
209,2F4K,209,1,67.9438329649906,79.53451943972624,2.0538274622449206,73.8834340587844,1,n,3.0662979999997333,incorrect,c
210,2F4K,210,1,49.82499356838412,65.55419078530102,1.4090763711713057,65.17250419983523,1,c,1.3038403000000471,correct,c
211,2F4K,211,2,34.88537582931821,47.67211333043364,1.0328002642478402,50.43034329260304,2,v,1.3523413999992044,incorrect,b
212,2F4K,212,1,36.843890511259886,58.51482003154935,1.0757305200281309,59.71099930080656,1,c,1.5877346000006582,correct,c
213,2F4K,213,1,44.92797883954796,53.14946621643439,1.2726532256357397,55.2141662731476,1,n,0.8658777999999074,incorrect,c
214,2F4K,214,1,64.3044882927273,53.87898492545271,1.904133524194417,55.83873986563504,2,n,0.7941582000003109,correct,n
215,2F4K,215,1,51.63623458691021,37.21089271649532,1.463159490266574,41.12501546597672,2,n,1.2128090000005614,correct,n
216,2F4K,216,2,48.89163753575593,32.4265039309302,1.3819918675352207,36.95707966065876,1,v,1.2963631000002351,correct,v
217,2F4K,217,1,34.084385144734746,43.18159754462757,1.0157402767594708,46.43454183232294,1,c,1.9956649999994625,correct,c
218,2F4K,218,1,41.361916265476985,55.59896014865731,1.1816948112096812,57.29614363774959,1,c,1.200966100000187,correct,c
219,2F4K,219,2,43.970118646751686,62.86957888112372,1.2475551205867843,63.15898032975085,2,b,1.8680523000002722,correct,b
220,2F4K,220,2,47.23825568649679,43.07070751329132,1.3352849726747416,46.3355749919783,1,v,1.1815033000002586,correct,v
221,2F4K,221,2,71.11682008732848,47.24920033127106,2.1939103936144506,50.0557819866767,1,v,1.2005579999995462,correct,v
222,2F4K,222,1,66.07951974975215,49.278983593665465,1.9757297102501687,51.8480399683931,2,n,1.2795375000005151,correct,n
223,2F4K,223,2,44.054182280298846,54.46254023647391,1.2497378216360135,56.335681774832246,2,b,1.3099036000003252,correct,b
224,2F4K,224,2,55.36981106286456,44.14037777129092,1.581281623319417,47.29003061979199,1,v,1.0549867999998241,correct,v
225,2F4K,225,1,46.27902699688789,27.6187033562266,1.3089144530622756,32.921381829435866,2,n,1.297062000000551,correct,n
226,2F4K,226,1,39.63308852192457,59.101108725827245,1.139967469434742,60.18700840051409,1,c,0.9774815999999191,correct,c
227,2F4K,227,2,35.225421462082025,54.23747705264172,1.0401291275528026,56.14431294010595,2,b,1.1824081000004298,correct,b
228,2F4K,228,1,43.36851408625987,52.7909813216875,1.2320454028057417,54.905961009738505,1,c,1.5154879000001529,correct,c
229,2F4K,229,2,53.4254954074855,39.50848515899089,1.5186241565540748,43.16032494911004,1,v,1.752925900000264,correct,v
230,2F4K,230,2,44.20003411851179,61.0266279676337,1.2535339097907283,61.72533927867107,2,b,0.8783434000006309,correct,b
231,2F4K,231,1,38.86633855394624,27.85412302186719,1.1219358256347245,33.114412523525814,2,c,1.467815299999529,incorrect,n
232,2F4K,232,1,62.96593476527188,73.49423611725372,1.851863860469171,70.52119232504029,1,c,0.9401765000002342,correct,c
233,2F4K,233,2,58.6613899071655,42.66943578864639,1.6933048130550854,45.97744132819855,1,v,2.9316706999998132,correct,v
234,2F4K,234,1,39.76892513151456,54.28875934092636,1.143192022401894,56.18795008986503,1,c,2.0745770000003176,correct,c
235,2F4K,235,1,54.12805287207575,58.7594366495975,1.540973002265449,59.91001814552846,1,n,2.251925200000187,incorrect,c
236,2F4K,236,1,64.81448512329274,41.05875509609528,1.9244344803158684,44.54053182798309,2,n,0.8489650000001348,correct,n
237,2F4K,237,2,36.91768652659224,56.56117684684119,1.0773825441463198,58.10130248581104,2,b,1.7098022999998648,correct,b
238,2F4K,238,2,29.106746188953984,49.39282062144383,0.9158621573486998,51.94810273242664,2,b,0.9032298000001902,correct,b
239,2F4K,239,1,48.05435733257987,61.5035365190662,1.3581386035539404,62.10010549933396,1,c,0.885070799999994,correct,c
240,2F4K,240,1,48.570172884130805,30.19952042870347,1.3727845169718824,35.06460887164006,2,n,0.8200327000004108,correct,n
241,2F4K,241,1,44.48887198027598,52.34289737748436,1.261085559028568,54.519584920768445,1,c,1.109354400000484,correct,c
242,2F4K,242,2,67.85195227611686,49.42294761755665,2.0499071550607293,51.97457531570896,1,b,1.516606899999715,incorrect,v
243,2F4K,243,1,33.28898531122065,39.00654127424367,0.9990782338928946,42.71443912109491,1,n,1.1959901000000173,incorrect,c
244,2F4K,244,1,51.2270836381437,37.69870672535811,1.450763656139566,41.55580354343992,2,n,1.097418800000014,correct,n
245,2F4K,245,1,57.45144262331621,35.946989555921185,1.6512325080533965,40.01306019101084,2,n,1.2855563999992228,correct,n
246,2F4K,246,1,46.642355944235184,60.42571470574584,1.318841032129337,61.249517420145615,1,c,0.8189521999993303,correct,c
247,2F4K,247,2,50.89261030890031,35.38067481120197,1.4407083463785726,39.51704693365749,1,v,1.4022848999993585,correct,v
248,2F4K,248,1,55.2923838629769,49.23661304692824,1.578737723986602,51.81078257043244,2,n,2.0698938999994425,correct,n
249,2F4K,249,1,50.61381483729768,39.62562789129322,1.4323801640524343,43.26446616016334,2,n,0.9350536000001739,correct,n
250,2F4K,250,2,31.702020695441384,45.35652131102499,0.9666467139143166,48.37398866321924,2,b,0.9997870999995939,correct,b
251,2F4K,251,1,68.4648588772114,51.14246031030959,2.076200491246118,53.47864218314206,2,n,1.6558026999991853,correct,n
252,2F4K,252,2,48.57766574891249,58.43838076398362,1.372998426838761,59.64868867616292,2,v,1.4556233000002976,incorrect,b
253,2F4K,253,2,21.57996890349684,35.37117743081056,0.7831709009535409,39.5087413094099,2,b,1.4433802999992622,correct,b
254,2F4K,254,1,62.40445216147327,47.02601371738439,1.8303677840356467,49.85790550047572,2,n,1.3584183000002668,correct,n
255,2F4K,255,1,37.64570830250158,53.45349544308318,1.093816893446353,55.47489603031806,1,c,0.8182995000006485,correct,c
256,2F4K,256,2,40.904877565226826,53.88379846409443,1.170517356485079,55.84284886214632,2,v,1.3210404999990715,incorrect,b
257,2F4K,257,1,41.75452361965605,53.22137167376573,1.191381703697806,55.27588627035576,1,c,0.8247475999996823,correct,c
258,2F4K,258,2,24.088932799475177,40.04886236964977,0.8251154979093409,43.640956961076455,2,b,0.72866729999987,correct,b
259,2F4K,259,2,56.487972949916255,47.56470297561843,1.6184796080470174,50.33526372754008,1,v,0.5876726000005874,correct,v
260,2F4K,260,2,36.30541969140964,23.00728569368209,1.063752550321334,29.255817602483493,1,b,0.7033374999991793,incorrect,v
261,2F4K,261,1,59.309066439060686,38.73173651255857,1.7162645999542807,42.47058449398361,2,n,0.5771985999999742,correct,n
262,2F4K,262,2,59.62580732099842,46.40279191949267,1.727605984987676,49.30467405838777,1,v,0.8429011999996874,correct,v
263,2F4K,263,1,41.999482953565696,55.32281902358044,1.197465829782285,57.0636791407158,1,c,1.8808351999996376,correct,c
264,2F4K,264,1,44.08617061775511,62.01464559282139,1.250569397255043,62.49885914011591,1,c,0.7636714000000211,correct,c
265,2F4K,265,1,46.2696365228871,58.65483101470782,1.308658887052612,59.82498346185344,1,c,1.2312652000000526,correct,c
266,2F4K,266,1,49.86170465895477,61.639338477973695,1.4101524505573273,62.20634891146619,1,c,0.5587937000000238,correct,c
267,2F4K,267,1,52.915102533700136,63.48561275892478,1.502591739321992,63.629144315254045,1,c,0.698358300000109,correct,c
268,2F4K,268,2,67.19305698502173,54.96476214198972,2.0220122107187968,56.76136423265927,1,v,1.1824450000003708,correct,v
269,2F4K,269,1,38.20840548758828,51.71092156286176,1.1066907715702363,53.97259266414402,1,c,1.4059887000003073,correct,c
270,2F4K,270,2,57.16238736859721,39.40543807186307,1.6413371559120484,43.06873936383877,1,v,0.6544356000013067,correct,v
271,2F4K,271,1,62.73485023866288,46.53807185590399,1.842986505097975,49.424842225051776,2,n,1.1352317999990191,correct,n
272,2F4K,272,1,43.29026937521341,57.264897307087885,1.2300424295190928,58.68514426868052,1,c,0.6554988999996567,correct,c
273,2F4K,273,1,55.06123131134032,38.184463333791314,1.5711674420415862,41.98555883404599,2,n,0.7758315000010043,correct,n
274,2F4K,274,2,63.06639221255247,46.39268383729539,1.8557363620154808,49.29569342612053,1,v,0.6728361999994377,correct,v
275,2F4K,275,2,64.71461465402328,46.05972341508952,1.9204420618664453,48.99974511827235,1,v,0.5574243999999453,correct,v
276,2F4K,276,1,67.19003700746909,78.28417408820529,2.0218852350327245,73.2419968883675,1,c,0.8243819999988773,correct,c
277,2F4K,277,1,44.67031170573502,26.187793707423765,1.265852537471061,31.759725308518057,2,c,0.7090464999982942,incorrect,n
278,2F4K,278,2,54.28824948674854,43.46887767353189,1.5461148432371397,46.69091869587573,1,v,1.056431099999827,correct,v
279,2F4K,279,1,53.49850344343712,40.81679251268905,1.5209314210900102,44.324867843066734,2,n,0.8606003000004421,correct,n
280,2F4K,280,1,48.61163841954578,38.23897095979803,1.3739687130394915,42.033828056535306,2,n,0.800131699999838,correct,n
281,2F4K,281,2,67.35520595944323,53.90493787130245,2.0288415246535263,55.86089224377829,1,v,2.2569650000004913,correct,v
282,2F4K,282,1,29.538769364483198,45.9809550363403,0.9241270290212318,48.9296983478044,1,c,1.4725014000014198,correct,c
283,2F4K,283,2,53.15534276107241,37.3781163108908,1.5101169504186998,41.27259697957712,1,v,1.2129072000007,correct,v
284,2F4K,284,1,51.22613344373015,60.138148028437456,1.4507349911647027,61.02042150360028,1,c,0.9835619999994378,correct,c
285,2F4K,285,1,45.23941966238565,60.0914134515072,1.2809219666750085,60.98310570454088,1,c,1.1535287000006065,correct,c
286,2F4K,286,2,36.47643270434512,43.043160261039546,1.0675421114600636,46.310989396612456,2,v,0.7948280000000523,incorrect,b
287,2F4K,287,1,67.22261198099517,61.82279917554641,2.023255278628586,62.34954044912391,2,c,0.7954261000013503,incorrect,n
288,2F4K,288,2,27.43932399450353,46.29794098909859,0.8846506314289022,49.21150692291755,2,b,0.8126334999997198,correct,b
289,2F4K,289,1,46.64111116857834,56.90423361676066,1.3188068951859289,58.38646470538973,1,n,1.6436404999985825,incorrect,c
290,2F4K,290,1,53.41315633702187,40.0335945556346,1.5182345522476026,43.62736945508959,2,n,0.7334315000007336,correct,n
291,2F4K,291,2,46.44522407080137,54.11945456026106,1.3134458491248542,56.04381331318786,2,v,1.2557221000006393,incorrect,b
292,2F4K,292,1,67.99051850064183,50.69037775684244,2.0558222828325894,53.08458941910892,2,n,1.6375730999989173,correct,n
293,2F4K,293,2,59.85891601839948,49.31195832439417,1.7360006410836362,51.87703029443418,1,b,2.1291768999999476,incorrect,v
294,2F4K,294,1,56.06574235062429,37.562954330145786,1.6043314961758004,41.43583833617588,2,n,1.7105577000002086,correct,n
295,2F4K,295,2,28.973731707739773,41.92215472947889,0.913332420926383,45.310579403146,2,b,0.9885591000002023,correct,b
296,2F4K,296,2,54.07472846524904,32.76081938123589,1.539265241556305,37.24417989576279,1,v,0.7515777999997226,correct,v
297,2F4K,297,1,67.41711436837181,45.64308588456669,2.0314550340011555,48.62910191447321,2,n,0.9690841999999975,correct,n
298,2F4K,298,2,58.16309880145148,71.77592604591027,1.675849930616078,69.44781612553676,2,b,1.2736447000006592,correct,b
299,2F4K,299,2,45.26959253757626,57.01069840139741,1.2817259042672162,58.47475274687335,2,v,0.7272769999999582,incorrect,b
300,2F4K,300,2,45.40351621122953,36.052942672309975,1.2853003120525637,40.10602159899256,1,b,0.7697154999987106,incorrect,v
301,2F4K,301,2,51.8236292393029,38.217695083653815,1.468872198235669,42.01498615077637,1,v,0.7627188999995269,correct,v
302,2F4K,302,2,44.57040596938729,58.97894855320073,1.2632254821635007,60.08810836918207,2,b,1.3280699999995704,correct,b
303,2F4K,303,2,43.74465663012983,63.08346192160076,1.2417198341199824,63.32274807302585,2,b,0.9097330999993574,correct,b
304,2F4K,304,2,61.06462851462909,48.64771285983486,1.7800760214036169,51.29220990374766,1,v,0.6180062999992515,correct,v
305,2F4K,305,1,50.04519857077843,57.61019795048382,1.4155433752183864,58.9700019834685,1,c,0.8609070000002248,correct,c
306,2F4K,306,1,45.78332394148782,63.950126581362085,1.295491651334133,63.980536560753656,1,c,0.8000967999996647,correct,c
307,2F4K,307,1,52.93767326948894,34.00667449762224,1.5032971391520142,38.32021736089188,2,n,0.7029387000002316,correct,n
308,2F4K,308,2,66.87977592649759,61.51860679149279,2.00888263203384,62.11190601399096,1,v,1.493315800000346,correct,v
309,2F4K,309,1,50.876877229187656,61.51350609178481,1.440237081048389,62.10791229061964,1,c,0.7093460999985837,correct,c
310,2F4K,310,1,52.525548998756,44.34361534227547,1.4904691040134057,47.471294408919256,2,n,1.5464231000005384,correct,n
311,2F4K,311,2,34.61651046104804,46.53286147103751,1.0270420948203998,49.42021467175569,2,v,1.0853323999999702,incorrect,b
312,2F4K,312,1,54.34612168306538,37.850220305036416,1.5479765864325663,41.68976908701812,2,n,0.8850070999997115,correct,n
313,2F4K,313,1,73.79118381101145,61.94080911804055,2.319374064992465,62.4414412462956,2,n,1.182394800000111,correct,n
314,2F4K,314,2,58.23026196212898,41.61251267273681,1.6781920890773632,45.0343429791666,1,v,1.056410600000163,correct,v
315,2F4K,315,1,57.66155223754822,42.79396673114923,1.658462702147675,46.0885846369786,2,n,0.8242599000004702,correct,n
316,2F4K,316,1,48.43477978734352,61.66969111517438,1.3689249872250318,62.23006605003511,1,c,0.9580783000001247,correct,c
317,2F4K,317,2,61.84848263395543,47.86193750648911,1.8093286416017496,50.59828766251238,1,v,0.9396766999998363,correct,v
318,2F4K,318,2,42.315169520904185,33.480423281329884,1.2053524730072354,37.86455866687437,1,b,0.6134641000007832,incorrect,v
319,2F4K,319,2,62.50087679803771,49.92360431747194,1.8340415252714424,52.41392961167604,1,b,1.315087199998743,incorrect,v
320,2F4K,320,2,67.90652827884253,50.60807779852076,2.052234866223805,53.01274170164743,1,v,0.8364848000001075,correct,v
321,2F4K,321,2,61.41499156067925,39.58192290282925,1.793092291938348,43.22560853591074,1,v,0.7756066000001738,correct,v
322,2F4K,322,1,61.87924061448437,47.347207114126405,1.810486247910834,50.1426304047392,2,c,1.0358548999993218,incorrect,n
323,2F4K,323,2,34.00781823471313,55.66680895845588,1.0141243382821907,57.35316772221903,2,b,0.8728852000003826,correct,b
324,2F4K,324,2,52.58114812094649,42.27244646544381,1.492193308249992,45.62314873686803,1,v,0.7153647999984969,correct,v
325,2F4K,325,1,51.76903835841404,38.906946846321794,1.4672057019508575,42.62603927688869,2,n,0.7333144999993237,correct,n
326,2F4K,326,1,69.0611723150214,47.65148953462622,2.102105635038164,50.41208987076651,2,n,0.9170486000002711,correct,n
327,2F4K,327,1,48.16792602461372,38.94308863547194,1.3613497665325802,42.65811578455397,2,n,1.4373374999995576,correct,n
328,2F4K,328,2,61.65085624953761,48.547153584845375,1.8019084173137423,51.20352711602017,1,v,2.4167335999991337,correct,v
329,2F4K,329,2,42.08831268724442,51.40899415403229,1.1996797877590033,53.71046023587322,2,b,0.672637499999837,correct,b
330,2F4K,330,2,41.18836344461083,59.035425232712974,1.177437844167278,60.13385013927735,2,b,0.6126205000000482,correct,b
331,2F4K,331,1,51.79551265298575,65.25456776288505,1.4680136467088003,64.95244401864841,1,c,0.9215067999994062,correct,c
332,2F4K,332,1,59.48448717267853,46.90196196647898,1.7225365736421443,49.74786339970319,2,c,1.2856031999999686,incorrect,n
333,2F4K,333,1,58.58782031655031,49.57022533072063,1.6907163138228245,52.103932876509376,2,c,1.1339250000000902,incorrect,n
334,2F4K,334,1,42.046704852646414,62.31495763885417,1.1986422609976564,62.73173230244529,1,c,1.1096061000007467,correct,c
335,2F4K,335,2,47.80210131739141,31.704159444110417,1.35103311753877,36.33931044648698,1,v,1.2792638000009902,correct,v
336,2F4K,336,1,45.11463153418943,64.43419379476713,1.2776024159683057,64.34379436151983,1,c,0.9907160999991902,correct,c
337,2F4K,337,1,54.50031572465698,40.480657121481656,1.5529479455527817,44.02539636285874,2,n,0.9689651000007871,correct,n
338,2F4K,338,2,56.63862984094576,43.76459386456949,1.6235579671772489,46.95478996125847,1,v,0.9946522999998706,correct,v
339,2F4K,339,1,39.13957172649584,25.1792883957583,1.1283284989546791,30.95359442857244,2,c,1.0988648000002286,incorrect,n
340,2F4K,340,2,33.93951941015697,50.90002936064656,1.0126850665779188,53.26746075858404,2,b,0.8425258000006579,correct,b
341,2F4K,341,2,59.13333761297821,46.87749358250016,1.7100045079618795,49.72615355662459,1,v,1.3827479000010499,correct,v
342,2F4K,342,1,62.52489442649771,49.14649004338645,1.8349577340685372,51.73151096530737,2,n,1.1035207999993872,correct,n
343,2F4K,343,2,64.85664519578947,57.01318270087467,1.926122360365606,58.47681170390253,1,v,2.5250706000006176,correct,v
344,2F4K,344,2,63.50738656493103,41.91300763724605,1.8728321384823776,45.30241821883438,1,v,1.1217306999988068,correct,v
345,2F4K,345,2,20.969516955941835,38.55849134934361,0.7732921692006922,42.316953436424775,2,b,0.7324024999998073,correct,b
346,2F4K,346,1,56.914796477683225,67.67310870500995,1.6329084349845726,66.69324274781397,1,c,0.9639686999998958,correct,c
347,2F4K,347,1,47.42623502386628,62.15326800954559,1.3405147100402548,62.60648427233885,1,c,1.055108200000177,correct,c
348,2F4K,348,2,38.45598889306964,58.96572724912503,1.1124030973360046,60.07739551030683,2,b,2.050251599999683,correct,b
349,2F4K,349,1,39.25270694425363,53.526979466464105,1.1309861077168215,55.53782189082424,1,n,2.3905236999999033,incorrect,c
350,2F4K,350,1,41.72459443017328,56.58897742947929,1.1906404660639067,58.12444944875462,1,c,1.1096072999989701,correct,c
351,2F4K,351,2,39.385502935655,20.00622536091066,1.1341135458217046,27.004902471717145,1,v,1.062432800001261,correct,v
352,2F4K,352,2,53.38347826983201,39.3769336041184,1.5172978809820423,43.043409468817366,1,v,0.9034613000003446,correct,v
353,2F4K,353,2,40.0357924742083,49.99833414381562,1.149553630562437,52.47941382403554,2,b,1.280951400000049,correct,b
354,2F4K,354,2,27.649171492595396,44.379252760872845,0.8885193773077183,47.50307482848651,2,b,0.6058740999997099,correct,b
355,2F4K,355,1,57.663096036688366,47.51277065058574,1.6585159436363717,50.28928069632367,2,n,0.806133599999157,correct,n
356,2F4K,356,1,60.8148734043216,53.67083861675551,1.7708551411864282,55.66090529721719,2,c,1.334274100001494,incorrect,n
357,2F4K,357,1,56.71471622291009,43.38755025995329,1.6261287480362436,46.618342467045785,2,n,0.5526645000009012,correct,n
358,2F4K,358,2,46.93613641754854,34.52207401705357,1.326922482661035,38.767996352559805,1,v,1.212844399999085,correct,v
359,2F4K,359,1,69.22895250498279,50.10936520700282,2.109452461088821,52.57666081548268,2,n,0.8426808000003803,correct,n
360,2F4K,360,1,46.6417675145628,34.707227099524935,1.3188248948218682,38.92920710244662,2,c,0.9214717000013479,incorrect,n
361,2F4K,361,1,40.818060530521215,58.43241003037392,1.1684061166931627,59.6438191514384,1,c,0.7467197000005399,correct,c
362,2F4K,362,1,53.95928480833674,41.03988508784653,1.5355745387245314,44.52371021726475,2,c,1.6125016000005417,incorrect,n
363,2F4K,363,2,46.51875446232116,57.65736402607386,1.3154556722162762,59.00882707716412,2,b,1.7468821999991633,correct,b
364,2F4K,364,2,33.342620691853575,49.19689158628972,1.000193143841065,51.77584790203697,2,b,0.7028532999993331,correct,b
365,2F4K,365,2,39.95312302943824,54.73649760104179,1.1475791733004044,56.56812212745705,2,b,0.7212285000005068,correct,b
366,2F4K,366,2,55.07046509185583,63.90851965634022,1.5714691525449445,63.949173358950006,2,v,0.6619150000005902,incorrect,b
367,2F4K,367,1,40.315018904647815,53.15764293188958,1.1562477571487584,55.22118645930566,1,c,1.8009493999998085,correct,c
368,2F4K,368,2,57.453250827982,76.76431199995548,1.6512945964859764,72.42328035867946,2,v,0.9760691999999835,incorrect,b
369,2F4K,369,2,44.61331383159264,58.47979400957892,1.2643530903845943,59.68245436449774,2,b,0.5830566000004183,correct,b
370,2F4K,370,2,30.51396044111466,48.53148944421343,0.9430582652558288,51.1897096356674,2,v,0.7769950999991124,incorrect,b
371,2F4K,371,1,72.98326409677301,49.70720510533005,2.2807335679369576,52.22416176829693,2,n,1.3831582999991952,correct,n
372,2F4K,372,1,43.2116786225486,30.15012911898439,1.228033875890511,35.02306051941162,2,c,0.6241186000006564,incorrect,n
373,2F4K,373,2,41.26463827699924,51.111129489882735,1.1793068490193983,53.45136724438041,2,v,1.0918013999998948,incorrect,b
374,2F4K,374,2,50.32300665196461,61.269569814118526,1.4237444317304178,61.91657004409949,2,v,1.63761599999998,incorrect,b
375,2F4K,375,2,73.98544171903781,57.98700107294743,2.328762077877529,59.27959225171687,1,v,1.1703276999996888,correct,v
376,2F4K,376,2,40.25565770441716,49.10275955763814,1.154821386880981,51.69303407748105,2,b,0.6011984999986453,correct,b
377,2F4K,377,1,51.358230964071865,38.49535873800193,1.4547254798487026,42.26098890490382,2,n,1.637595500000316,correct,n
378,2F4K,378,2,31.46970065872447,50.8531178210943,0.9619881446700864,53.22656097898713,2,b,1.3584713000000193,correct,b
379,2F4K,379,1,49.50316953383092,67.20429381014043,1.3996781133845249,66.36226022181572,1,c,2.4678776000000653,correct,c
380,2F4K,380,1,50.19562534671447,71.39282343823737,1.419978179584917,69.20183533151227,1,c,0.8149145999996108,correct,c
381,2F4K,381,2,63.41464643272885,72.7615989366658,1.8692239054030184,70.06958176143816,2,v,1.2495385000001988,incorrect,b
382,2F4K,382,2,50.060589792350015,58.13162001222774,1.4159964944422927,59.39806022182231,2,v,0.8970413000006374,incorrect,b
383,2F4K,383,2,49.89410451620907,43.36322192253712,1.4111028412776632,46.59663150938278,1,v,1.202060800000254,correct,v
384,2F4K,384,2,51.844048614365946,37.80815364457454,1.469496026975582,41.65256700817902,1,v,0.9933641000006901,correct,v
385,2F4K,385,2,41.195833339191765,51.4171181931437,1.1776207522550572,53.71752009459415,2,b,0.9153962999989744,correct,b
386,2F4K,386,2,23.394212546506417,44.8226328609932,0.8132813165098824,47.89835482618912,2,b,0.5032282000011037,correct,b
387,2F4K,387,1,52.995921767185415,64.5274420347702,1.5051191011750409,64.41342260050244,1,n,1.0851788999989367,incorrect,c
388,2F4K,388,2,44.43638998569652,54.85289230814132,1.259710046209746,56.66670784322965,2,b,1.0368742999999085,correct,b
389,2F4K,389,1,59.47569619077325,44.59025266014344,1.7222217170003198,47.69121191271393,2,n,0.5162617999994836,correct,n
390,2F4K,390,2,46.05335489323874,28.015014309144803,1.302786474410204,33.24663336419556,1,v,1.152027399999497,correct,v
391,2F4K,391,2,66.51186349085945,54.84895837414313,1.99357226802745,56.66337749303795,1,v,0.9238069000002724,correct,v
392,2F4K,392,1,67.28266480270904,53.1402011396395,2.025783423809863,55.20621113698159,2,n,0.721006199999465,correct,n
393,2F4K,393,2,36.45687406852959,53.290256491754974,1.0671080192637754,55.334981576680754,2,b,0.781877399998848,correct,b
394,2F4K,394,2,59.24371856445594,51.13901621177244,1.713934001866097,53.47564418877398,1,v,1.0149074000000837,correct,v
395,2F4K,395,2,67.63731917299903,54.75965589824255,2.040778457748309,56.58774522432402,1,v,0.8971151000005193,correct,v
396,2F4K,396,1,42.58772903281714,33.51461148101512,1.2122034645591635,37.89411151071532,2,c,0.9943218999997043,incorrect,n
397,2F4K,397,2,47.40916599970764,36.54851019178101,1.3400389916716884,40.5414616194609,1,v,1.054983699999866,correct,v
398,2F4K,398,2,38.43718393084704,52.9905982069036,1.1119681902733825,55.077682465298295,2,b,0.613361800000348,correct,b
399,2F4K,399,1,49.51912437973189,38.91967715668751,1.4001425640041874,42.63733728586286,2,n,0.9396634000004269,correct,n
400,2F4K,400,2,62.82913481387499,56.16052273574157,1.846603395312211,57.76698277463922,1,b,0.6619284999997035,incorrect,v
