,condition,trial,sub_task,x,y,xt,yt,cat,resp,rt,acc,correct_resp
0,2F4K,1,2,50.59706899085109,44.0833046672396,1.4318814673394975,47.5036958698961,1,b,4.611301500000081,incorrect,v
1,2F4K,2,2,39.6933120483384,31.413729449382277,1.141395959817928,36.26145772116957,1,v,2.6161392000001342,correct,v
2,2F4K,3,1,40.05036374332029,23.00449749878505,1.149901999263936,29.36485737456785,2,n,3.79196039999988,correct,n
3,2F4K,4,1,47.6084912920505,61.33593046367824,1.3456047829402469,62.35888617833516,1,n,2.77997849999997,incorrect,c
4,2F4K,5,1,44.71582629722015,57.445004540970736,1.2670511698809424,59.19732113815628,1,c,2.0583034999999654,correct,c
5,2F4K,6,2,58.15240620378319,69.01324466992745,1.6754773529769893,68.05993225739043,2,b,2.622177899999997,correct,b
6,2F4K,7,1,73.55415319535653,55.732192719500425,2.307970199225474,57.75938570961328,2,c,1.9909645000000182,incorrect,n
7,2F4K,8,1,37.520310194358366,49.79822859810858,1.090968393465311,52.61177912816356,1,c,5.0,incorrect,c
8,2F4K,9,1,59.838025607934206,73.87338115407731,1.7352466794546335,71.2164169942917,1,c,1.1155431000001954,correct,c
9,2F4K,10,1,55.95616553342444,38.612438937496464,1.600680050764608,42.587787470324415,2,n,1.5039652000000387,correct,n
10,2F4K,11,2,53.483821337756346,32.29780323190435,1.52046714277561,37.022693408035714,1,b,3.240472400000044,incorrect,v
11,2F4K,12,2,37.0249538342483,56.536971333368825,1.0797883937836412,58.43818444815094,2,b,1.2079087000001891,correct,b
12,2F4K,13,1,53.23830219784303,63.0692914170065,1.5127242908911631,63.71356726647047,1,c,1.2612528999998176,correct,c
13,2F4K,14,1,62.79982384328994,50.667649433555766,1.845478225168576,53.37900939450461,2,c,1.1331003000000237,incorrect,n
14,2F4K,15,1,62.310889903016815,48.92801061800266,1.8268101328219888,51.8404504087475,2,n,0.9759960999999748,correct,n
15,2F4K,16,2,48.47940272342903,61.28530247161228,1.3701958130076652,62.318788216785165,2,b,1.8734451999998782,correct,b
16,2F4K,17,2,64.97840427913435,47.06131493623341,1.931005305805688,50.17638808562592,1,b,1.4493866999998772,incorrect,v
17,2F4K,18,1,62.06754683923789,43.59100606178808,1.8175894993408328,47.0607286588677,2,c,1.625361200000043,incorrect,n
18,2F4K,19,1,61.33246424669201,43.89760557675857,1.7900177920960008,47.33662351221368,2,c,0.7150197999999364,incorrect,n
19,2F4K,20,1,52.54546230681024,70.16586251213266,1.491086413607313,68.84314399400665,1,c,0.7514370999999755,correct,c
20,2F4K,21,1,38.45612453354353,53.26545717559367,1.1124062349449615,55.64714901007391,1,c,0.9705933999998706,correct,c
21,2F4K,22,1,52.32885182464864,60.92528210385503,1.4843852337989736,62.03280874695104,1,n,0.8066420000000107,incorrect,c
22,2F4K,23,1,44.659413497418456,25.900118824349995,1.265565700103605,31.659267259015497,2,c,1.5221890000000258,incorrect,n
23,2F4K,24,1,47.94120728717782,34.749461370370355,1.3549468105471754,39.160021342994206,2,n,0.5701764000000367,correct,n
24,2F4K,25,2,79.50804497652858,63.03310175498059,2.6121565268185347,63.68565428697337,1,v,2.676785599999903,correct,v
25,2F4K,26,1,66.01514062451366,54.93311569004748,1.973086518625781,57.08015384082787,2,c,3.2426908000002186,incorrect,n
26,2F4K,27,2,59.99920809407459,76.01873099376854,1.7410724557316544,72.48214955791443,2,v,3.612087999999858,incorrect,b
27,2F4K,28,1,68.34298266609969,53.31322062429132,2.0709453458062552,55.688463375612606,2,n,3.7205240999999205,correct,n
28,2F4K,29,2,59.980425185911386,40.27851634622363,1.7403925611420084,44.08101617909455,1,b,1.3340648000000783,incorrect,v
29,2F4K,30,2,45.25936439279506,57.27064773753002,1.2814533251626556,59.05212985506663,2,b,0.951761900000065,correct,b
30,2F4K,31,1,55.117600534259466,43.22428326367868,1.5730101893771633,46.73067427652396,2,n,3.0955487999999605,correct,n
31,2F4K,32,2,49.80152512006398,36.91782763623043,1.4083888918212142,41.07684591180466,1,b,1.510073200000079,incorrect,v
32,2F4K,33,2,31.96279002379756,51.63549061802975,0.9719026373004048,54.22859419679623,2,b,0.5997623999999178,correct,b
33,2F4K,34,2,38.53002699012311,58.16753978173646,1.114117048768239,59.79597708553901,2,b,0.6727683999999954,correct,b
34,2F4K,35,2,71.5461652459133,56.67204597234259,2.213585283044204,58.5515730840542,1,v,0.7393692000000556,correct,v
35,2F4K,36,1,36.63371294191252,50.08460341667772,1.071039277662058,52.86488878149182,1,n,2.74962359999995,incorrect,c
36,2F4K,37,1,31.92472577094862,48.887909220872174,0.9711336575209312,51.80483107139274,1,c,0.5936693999999534,correct,c
37,2F4K,38,1,44.73918037643477,62.070430095061866,1.26766664298247,62.93728430607781,1,n,1.1277689999999438,incorrect,c
38,2F4K,39,2,56.75800751635173,40.524341288894846,1.6275932761044067,44.30180383573565,1,v,2.585759199999984,correct,v
39,2F4K,40,2,59.19965244533286,45.52830394170391,1.7123641934563236,48.80249176196211,1,v,0.7575329000001148,correct,v
40,2F4K,41,2,45.24333078959433,62.64432170219921,1.281026147787664,63.38477325117037,2,b,2.9931753000000754,correct,b
41,2F4K,42,1,56.44776331974777,41.83483961811973,1.6171269049809596,45.48013952727495,2,n,1.3462362000000212,correct,n
42,2F4K,43,2,41.92351970521017,34.179841528607035,1.195575792330344,38.660291999846095,1,b,0.878879999999981,incorrect,v
43,2F4K,44,2,48.15635469438817,35.0065486891276,1.3610222392544902,39.386127269569805,1,v,1.9107005999999274,correct,v
44,2F4K,45,1,68.00116878227495,51.83492932585256,2.056277628772742,54.40302554088321,2,c,1.0124599000000671,incorrect,n
45,2F4K,46,2,48.60278845932724,63.28981348346236,1.37371588518645,63.88330384713528,2,v,1.813531199999943,incorrect,b
46,2F4K,47,2,47.338865345358656,27.68875609185742,1.338081472076467,33.12171959573614,1,b,2.245876400000043,incorrect,v
47,2F4K,48,1,39.835138939924256,55.52258134015384,1.1447671418296574,57.581704498496926,1,n,2.6176359999999477,incorrect,c
48,2F4K,49,1,65.03288873574033,77.88202846547675,1.9331943213815657,73.51410669906134,1,c,1.3335071999999855,correct,c
49,2F4K,50,1,53.72618458368806,45.11673483945943,1.5281493382613358,48.43284857331253,2,c,2.3914506000000983,incorrect,n
50,2F4K,51,1,44.54569469696143,56.33567508699765,1.2625765323314335,58.26891309717553,1,n,1.0913110999999844,incorrect,c
51,2F4K,52,2,40.6940018284268,57.206331276484015,1.1653958310284196,58.99850190440732,2,b,0.8728162999998403,correct,b
52,2F4K,53,2,30.264671786078857,46.79933195697566,0.9381822776637836,49.94198682102911,2,b,0.8913852000000588,correct,b
53,2F4K,54,2,52.63913119634133,61.00445106916301,1.4939935668580686,62.09582153731617,2,v,0.8485465999999633,incorrect,b
54,2F4K,55,2,35.273671814215106,55.79369548807783,1.0411732522095891,57.81145179423673,2,b,1.0006918999999925,correct,b
55,2F4K,56,2,59.9228937741302,49.05716682345456,1.738311718633616,51.95512790158468,1,v,0.903156799999806,correct,v
56,2F4K,57,1,33.27756279238242,48.669501115949146,0.9988409564139288,51.61072490659328,1,n,1.613268600000083,incorrect,c
57,2F4K,58,1,35.518632353671066,47.9238637277959,1.0464903227818252,50.94674119936605,1,c,0.5866909000001215,correct,c
58,2F4K,59,1,50.38997627774333,27.65042945562037,1.4257285111831643,33.09005029991235,2,n,0.5019377000000986,correct,n
59,2F4K,60,1,53.30944584523746,70.6520406286186,1.5149638571123485,69.16722967193188,1,n,0.7206605999999738,incorrect,c
60,2F4K,61,1,57.21639570642426,49.71695611623269,1.6431815308959872,52.53987955476294,2,n,1.315866700000015,correct,n
61,2F4K,62,1,39.54459734512216,52.37689411200572,1.1378717186932366,54.875859455513286,1,c,1.449499199999991,correct,c
62,2F4K,63,1,55.672766613893096,71.3411741671494,1.5912747997009096,69.62008933389558,1,c,1.3891203999999107,correct,c
63,2F4K,64,2,54.72973579861468,33.68990111775776,1.5603742265207294,38.23191117209677,1,v,2.2944210000000567,correct,v
64,2F4K,65,2,61.96651620151048,52.169132737267645,1.8137749828548253,54.69480614345088,1,b,1.3536670000000868,incorrect,v
65,2F4K,66,2,59.05117588389645,50.5281617934079,1.70708545081684,53.256162566146585,1,v,0.6240166999998564,correct,v
66,2F4K,67,2,54.03106725362883,36.00825012516712,1.5378683624332317,40.27020754250902,1,b,0.8425104999998894,incorrect,v
67,2F4K,68,1,48.44204017811931,64.47222221643882,1.3691316770736954,64.78289862356033,1,c,2.025914000000057,correct,c
68,2F4K,69,2,60.26849237258325,53.70937787694383,1.750849128216212,56.030535678224574,1,v,0.8549203999998554,correct,v
69,2F4K,70,1,31.355236646801327,44.82235176477967,0.9597011316061772,48.1682985461014,1,n,0.7878528999999617,incorrect,c
70,2F4K,71,2,60.10405281619055,48.1119024247572,1.744872456117751,51.11437075055904,1,b,1.0973825999999463,incorrect,v
71,2F4K,72,2,59.22374562821926,36.83642316693852,1.71322230911522,41.00451743871003,1,v,0.4358685999998215,correct,v
72,2F4K,73,1,34.15993611087222,46.06352099541432,1.0173372976720827,49.28274036572534,1,c,0.8114481000000069,correct,c
73,2F4K,74,1,47.065740035782895,34.66909374136639,1.330503403699506,39.089409119014704,2,c,0.502610999999888,incorrect,n
74,2F4K,75,2,41.50846529411336,28.66215842820656,1.1853014021826227,33.930652127370806,1,b,1.4979691999999432,incorrect,v
75,2F4K,76,1,55.50780863913788,42.64664695523267,1.5858257524946484,46.21074283196653,2,n,2.0681272000001627,correct,n
76,2F4K,77,2,45.44611651954994,53.7504191060415,1.286439397870701,56.06591216299389,2,b,0.7029327000000194,correct,b
77,2F4K,78,1,43.5944909904678,57.115241698175176,1.2378484789612536,58.922486050868855,1,c,2.0926766000000043,correct,c
78,2F4K,79,2,45.16143085053989,60.41261767897759,1.2788463383616882,61.62307671219936,2,v,1.0063298000000032,incorrect,b
79,2F4K,80,1,41.92128247871238,58.40263150570553,1.1955201732656728,59.98968893832871,1,c,1.0183679000001575,correct,c
80,2F4K,81,1,65.9006545559691,55.24996892514337,1.968394835921412,57.35009073248856,2,n,3.866086100000075,correct,n
81,2F4K,82,1,37.80467320251886,57.03113426391731,1.0974385776535625,58.85223053466984,1,c,1.734655800000155,correct,c
82,2F4K,83,2,39.495655005981206,22.910380093138063,1.136714264631527,29.291924323346223,1,b,1.649064099999805,incorrect,v
83,2F4K,84,1,52.52194922896239,35.6203232047351,1.4903575389625785,39.92726941504262,2,c,1.0063407000000097,incorrect,n
84,2F4K,85,2,42.60474392823391,52.18324437211204,1.2126324359736065,54.707111944994246,2,v,1.2430401999999958,incorrect,b
85,2F4K,86,2,33.84548760779439,48.36673745518726,1.0107068613039127,51.34135376552135,2,b,0.4662238000000798,correct,b
86,2F4K,87,2,50.85626480100525,58.64928346803104,1.4396198940218554,60.19234585799996,2,b,2.3916545999998107,correct,b
87,2F4K,88,2,62.3766835944634,49.0159911342119,1.8293111778078992,51.91857530516885,1,v,1.6435512999998991,correct,v
88,2F4K,89,1,73.2513667846576,55.08688031102432,2.293484255528365,57.2112482689716,2,n,1.231061899999986,correct,n
89,2F4K,90,1,46.15043306568156,39.8273387397524,1.305419044690019,43.67606160209918,2,c,0.9820975999998609,incorrect,n
90,2F4K,91,2,56.8151122203944,71.84308322607234,1.6295271242431273,69.94503635394507,2,b,1.2612799999999424,correct,b
91,2F4K,92,1,34.52459352701313,42.53620099428899,1.0250809236094502,46.11133158478489,1,c,0.7696681000002172,correct,c
92,2F4K,93,1,60.7721610121062,45.00622187484859,1.7692830027094142,48.33354912989204,2,c,2.0380649000001085,incorrect,n
93,2F4K,94,1,46.8500072276816,31.71847915362657,1.324548083245911,36.52324030351009,2,n,0.73934939999981,correct,n
94,2F4K,95,1,52.038480966459375,58.77187770935609,1.4754493837151503,60.29284933540424,1,c,1.5458580000001803,correct,c
95,2F4K,96,2,37.40548531090437,47.60325973874387,1.0883665778552156,50.66066906950187,2,b,1.109045100000003,correct,b
96,2F4K,97,2,36.7738385021057,44.39974371364953,1.0741646542817505,47.788328554753285,2,b,0.6604099000001042,correct,b
97,2F4K,98,2,64.36057527960338,48.79543160911025,1.906355603255476,51.72266564936466,1,v,0.6965980999998465,correct,v
98,2F4K,99,1,53.47746218001082,47.11623667275339,1.5202660971447748,50.22550427169396,2,n,1.1642338999999993,correct,n
99,2F4K,100,2,43.442895764716695,50.18688959437817,1.233952510913762,52.95520143413528,2,v,2.7192483000001175,incorrect,b
100,2F4K,101,1,49.20732925100502,42.39946274229354,1.3910939686948651,45.98825854875333,2,n,1.591951999999992,correct,n
101,2F4K,102,2,38.15380942916394,52.57896640921219,1.105435066084188,55.05170188626778,2,b,1.025140599999986,correct,b
102,2F4K,103,1,35.09205122807201,53.73500865119977,1.037248475527114,56.05263012086935,1,c,0.8971032999997988,correct,c
103,2F4K,104,2,46.43408544700786,34.97098079263671,1.313141662489502,39.35482544110303,1,b,0.9820795000000544,incorrect,v
104,2F4K,105,2,39.17403902225327,55.94927317144777,1.1291374926344764,57.94301932194065,2,v,0.3276565999999548,incorrect,b
105,2F4K,106,2,40.147078365020526,56.42727858359658,1.1522169218138163,58.34598630326367,2,v,0.4723218999999972,incorrect,b
106,2F4K,107,1,45.00689254687261,56.24116955199271,1.274743318703225,58.18932305171745,1,c,0.581966699999839,correct,c
107,2F4K,108,2,38.879544426539255,45.8667616987296,1.122243960943759,49.10625296329712,2,b,1.0609627999999702,correct,b
108,2F4K,109,1,42.01910001020387,62.80633973922363,1.197954405944811,63.510385829840544,1,c,0.7945557000000463,correct,c
109,2F4K,110,1,44.97961389863367,67.11185323815354,1.274020433831356,66.72373065202629,1,c,0.836406800000077,correct,c
110,2F4K,111,1,51.81505447590479,38.72248230761273,1.468610311107172,42.68621119884175,2,n,0.5815365000000838,correct,n
111,2F4K,112,1,57.00296265966066,46.81541774499037,1.6359048968372565,49.95638426879675,2,n,0.7695894000000862,correct,n
112,2F4K,113,2,53.88880652934196,37.96457926776098,1.5333257186651563,42.00904102447284,1,b,0.8060966999998982,incorrect,v
113,2F4K,114,2,53.31122884207892,69.00980013419696,1.5150200275247596,68.05756078836288,2,b,0.8849893999999949,correct,b
114,2F4K,115,1,37.54428016253627,28.216938375652767,1.091512312906165,33.5595704077198,2,c,1.0063700000000608,incorrect,n
115,2F4K,116,2,41.29264376270637,47.18634744543872,1.1799938274621813,50.28819179324542,2,b,2.7503352999999606,correct,b
116,2F4K,117,2,29.020093247475398,53.04948873280114,0.9142133537682712,55.460151996680025,2,b,0.9168119999999362,correct,b
117,2F4K,118,1,56.14489491642702,70.64272382273674,1.6069742899883968,69.16105462054335,1,c,0.7696674999999686,correct,c
118,2F4K,119,2,37.63223515024077,55.85329259157248,1.093510485711569,57.86187495893146,2,b,0.8424764999999752,correct,b
119,2F4K,120,1,38.20476147662074,53.92146181070691,1.1066069151680262,56.21321970053821,1,c,0.8788687999999638,correct,c
120,2F4K,121,1,46.820174022910045,62.87820511507031,1.3237266360527846,63.5660003104098,1,c,2.0492457999998805,correct,c
121,2F4K,122,2,52.06665546268653,69.04288016852654,1.476314061730822,68.08032797048247,2,b,0.8606938000000355,correct,b
122,2F4K,123,2,56.6115138622185,66.70674894253729,1.6226427643261307,66.43218338371939,2,b,1.4431834999998046,correct,b
123,2F4K,124,1,55.604241584672586,74.34737688144577,1.5890089466245962,71.50305967480601,1,c,0.6532952000000023,correct,c
124,2F4K,125,2,65.81218313486005,46.48582893262228,1.964776886350688,49.66125968249414,1,v,1.0305035000001226,correct,v
125,2F4K,126,1,55.138434561214005,43.277392816931545,1.5736918144415255,46.778476181848994,2,c,0.909309500000063,incorrect,n
126,2F4K,127,2,38.08083172432693,44.67414250038611,1.103758808839696,48.0350659865443,2,v,1.012423500000068,incorrect,b
127,2F4K,128,2,40.08249359621465,58.09091090899288,1.150670530229603,59.73272073328528,2,b,0.8242930999999771,correct,b
128,2F4K,129,2,48.05285057067433,35.385611786510154,1.358096050705412,39.72011717684165,1,b,1.042750900000101,incorrect,v
129,2F4K,130,1,54.80998205953918,43.52374400303988,1.562980156174871,47.00019595832885,2,n,1.3697607000001426,correct,n
130,2F4K,131,1,52.82589060319668,42.6136167224644,1.4998068503823194,46.18101245213376,2,n,0.5572531000000254,correct,n
131,2F4K,132,1,45.14337213135863,28.02289285788572,1.2783661954917382,33.39840719380669,2,c,0.7150132000001577,incorrect,n
132,2F4K,133,2,41.94881203936973,54.99454779661542,1.1962047580140822,57.13255068902679,2,b,1.2248531000000185,correct,b
133,2F4K,134,1,48.66578942708037,61.53470916908282,1.3755167261689096,62.516037044479326,1,n,0.660433699999885,incorrect,c
134,2F4K,135,2,45.041657313121455,33.35920374652181,1.2756651803815642,37.94356016722327,1,b,1.346212499999865,incorrect,v
135,2F4K,136,2,38.95245637930392,54.70535853547407,1.1239467544863573,56.88564227045822,2,b,1.6983838000001015,correct,b
136,2F4K,137,1,33.13804948527238,49.24882553565496,0.995947420492924,52.12517746178168,1,n,1.0973659999999654,incorrect,c
137,2F4K,138,1,39.68890663342851,33.05268151835386,1.1412914035743709,37.67688396773122,2,c,0.6604224000000158,incorrect,n
138,2F4K,139,1,32.34942074384838,51.06739128128974,0.9797479962005252,53.73051330318941,1,c,0.5997118000000228,correct,c
139,2F4K,140,2,50.08702508453475,57.58492243788087,1.4167750908248375,59.31363206205691,2,b,0.6967256000000361,correct,b
140,2F4K,141,1,69.96538354117521,58.66659553799016,2.142004492989632,60.20654745063006,2,c,1.9902369999999792,incorrect,n
141,2F4K,142,1,63.17537246653999,43.10010257049239,1.859946564632544,46.618901459222194,2,n,0.45406660000003285,correct,n
142,2F4K,143,1,41.32697493925557,34.97933431728007,1.1808365219796295,39.3621764541204,2,c,0.7810070000000451,incorrect,n
143,2F4K,144,1,55.11024296429804,72.54683393857067,1.5727695429436206,70.39362448112507,1,n,1.030642700000044,incorrect,c
144,2F4K,145,2,62.39172294052608,45.98023906766926,1.829883355824324,49.2080484422234,1,b,0.69077789999983,incorrect,v
145,2F4K,146,2,44.0499708341671,56.8335048426649,1.2496283811878766,58.68690054118523,2,v,0.45408610000004046,incorrect,b
146,2F4K,147,2,42.02719416645488,53.44845731484828,1.1981560545108576,55.80535712742552,2,b,0.9941288999998505,correct,b
147,2F4K,148,1,37.20418158434469,28.733457441057663,1.0838202048182453,33.99024494184621,2,c,1.1277413000000251,incorrect,n
148,2F4K,149,1,50.83346996235736,64.91263428532115,1.438937668200584,65.1133276495381,1,n,0.8060534999999618,incorrect,c
149,2F4K,150,2,64.2266079366368,71.16410629506805,1.901052320384213,69.50446608641569,2,v,0.8607018999998672,incorrect,b
150,2F4K,151,1,53.7784051494283,43.96499092372397,1.5298096510254349,47.39725262179677,2,c,0.6364849000001414,incorrect,n
151,2F4K,152,1,33.71396998463694,50.884031637344265,1.0079465239954402,53.56938269465111,1,n,0.7939332999999351,incorrect,c
152,2F4K,153,1,64.57309570743892,81.186191169345,1.914798885190364,75.18412554585919,1,n,2.914452900000015,incorrect,c
153,2F4K,154,1,23.280551045829977,35.9601484215763,0.8113613760307701,40.227647367817504,1,c,0.9153524999999263,correct,c
154,2F4K,155,1,34.92045627576508,44.57381421684223,1.0335539435375467,47.9448611201786,1,c,0.8114391999999953,correct,c
155,2F4K,156,1,55.11735423196721,66.43690750905766,1.5730021328923431,66.2366830569228,1,n,0.5388937000000169,incorrect,c
156,2F4K,157,2,37.17655608713739,58.87148116071087,1.0831977765241627,60.37439442487141,2,v,0.8606967000000623,incorrect,b
157,2F4K,158,2,46.67895659047277,59.49928055797452,1.3198451696581055,60.88605666598336,2,v,0.6846797000000606,incorrect,b
158,2F4K,159,1,40.75619604909302,28.930419342035574,1.166904003714804,34.15510396652778,2,c,1.3400689000000057,incorrect,n
159,2F4K,160,1,55.52129163503714,42.086478339720905,1.5862704344099643,45.70657652958021,2,n,0.514774799999941,correct,n
160,2F4K,161,1,24.14249723663749,38.49830534924823,0.8260350575375602,42.48574067155915,1,c,1.9344590000000608,correct,c
161,2F4K,162,1,33.3517575112778,44.52334631963792,1.0003831934097345,47.89948129148701,1,n,1.2735296000000744,incorrect,c
162,2F4K,163,1,62.08855133965408,44.18742873930379,1.8183835527697376,47.597363903393074,2,n,0.6060268999999607,correct,n
163,2F4K,164,1,44.70781030630214,66.43919360824871,1.2668399854531978,66.23834366877063,1,n,2.16576380000015,incorrect,c
164,2F4K,165,2,25.06422653204238,38.28419386576739,0.842020227430365,42.29440382976308,2,v,3.2055780999999115,incorrect,b
165,2F4K,166,2,70.45225971338284,54.48078243126574,2.163800951425166,56.6934636264101,1,v,2.2454079999997703,correct,v
166,2F4K,167,1,61.48798994287442,46.80264064936346,1.795816198820344,49.94494829220444,2,n,1.309309100000064,correct,n
167,2F4K,168,2,68.88031486613798,48.27247790175515,2.0942148310411595,51.257422692459336,1,v,1.3767114000002039,correct,v
168,2F4K,169,1,37.2140270489174,46.377632391228055,1.0840421187816198,49.56432001855842,1,c,1.5951125000001412,correct,c
169,2F4K,170,2,53.99138683092058,39.39513082425048,1.5365999426538988,43.28850836434648,1,v,1.75308189999987,correct,v
170,2F4K,171,1,64.60898791517242,44.67318272543254,1.916228543108452,48.03420311099762,2,n,0.8364199000002372,correct,n
171,2F4K,172,2,52.82873656024823,70.57965325491693,1.4998956115979245,69.11921567515644,2,v,0.8303495000000112,incorrect,b
172,2F4K,173,2,23.02184412750969,40.45946401216421,0.8070082480667207,44.24352501605042,2,b,0.8071688999998514,correct,b
173,2F4K,174,1,67.87041106877885,54.10673381301318,2.050694142047496,56.372548379013445,2,n,1.4372223000000304,correct,n
174,2F4K,175,2,58.91710791733301,75.40240731539255,1.7023329547889503,72.12689742558854,2,v,0.5997412000001532,incorrect,b
175,2F4K,176,1,46.42634012241996,33.574269376141466,1.3129301855844662,38.1310118291003,2,n,1.7649332999999388,correct,n
176,2F4K,177,1,60.95734805075551,44.07606005756407,1.7761093924371445,47.49717842664184,2,n,0.8485835000001316,correct,n
177,2F4K,178,1,48.1899774131326,59.81314269583269,1.3619741508030911,61.14032908043942,1,n,1.6728574000003391,incorrect,c
178,2F4K,179,1,44.61317833231988,39.45561644724945,1.264349527912733,43.34272067247168,2,c,0.5633260000004157,incorrect,n
179,2F4K,180,1,67.71790751900541,58.018075160076464,2.04420123599268,59.6725433919733,2,n,0.5815431000000899,correct,n
180,2F4K,181,2,48.1943570173434,63.84486510727403,1.3620981932205325,64.3078255241609,2,b,1.206623099999888,correct,b
181,2F4K,182,2,60.49181268477722,46.5389530008334,1.758998656066543,49.70884662107498,1,v,0.7211234000001241,correct,v
182,2F4K,183,2,51.303678551825605,57.57749071479192,1.4530761959642755,59.30745877831203,2,v,0.4838078999996469,incorrect,b
183,2F4K,184,2,60.46971449530694,48.7550217665329,1.7581905485676297,51.686751560483714,1,v,0.8781260000000657,correct,v
184,2F4K,185,2,48.09436712847719,44.330679370226136,1.3592690183155636,47.72621396080619,1,v,0.4116025000002992,correct,v
185,2F4K,186,1,52.20093839809253,65.3981336500741,1.4804421862376165,65.47458206688911,1,c,0.7395658000000367,correct,c
186,2F4K,187,1,47.45331939293638,52.29514429142557,1.3412699054243782,54.80464989086717,1,c,0.8728454000001875,correct,c
187,2F4K,188,1,56.62445389517437,41.67601068198082,1.6230794444723535,45.33723839801891,2,c,0.6965788999996221,incorrect,n
188,2F4K,189,1,52.49321138410264,60.50906252301938,1.4894671872002765,61.70037891280183,1,n,0.7644024999999601,incorrect,c
189,2F4K,190,1,34.00622086171243,50.47290384807553,1.0140906532436869,53.20747013985017,1,c,0.6482725999999275,correct,c
190,2F4K,191,1,73.67684453256769,59.77112654717539,2.3138660290116166,61.10635013503032,2,n,0.7575001999998676,correct,n
191,2F4K,192,2,60.39130928499368,49.105366781116544,1.7553263468933549,51.997907455378346,1,v,1.2491139000003386,correct,v
192,2F4K,193,2,37.795368355472746,26.9200113949084,1.097226256061479,32.48923030842107,1,b,0.6303729999999632,incorrect,v
193,2F4K,194,1,46.83835864064236,28.10396939855476,1.324227282702078,33.465702205362454,2,c,2.0805669999999736,incorrect,n
194,2F4K,195,2,46.96967549863539,61.36699731812772,1.3278482351337184,62.383476980907226,2,v,0.8849596999998539,incorrect,b
195,2F4K,196,1,40.8970114720749,32.93396275094624,1.1703259096724534,37.57375576656111,2,c,1.218800900000133,incorrect,n
196,2F4K,197,1,35.848760080235856,47.797322843934936,1.05369899803954,50.83386903279239,1,c,0.8424435000001722,correct,c
197,2F4K,198,2,52.68164877890494,34.72335511940053,1.4953150328988831,39.13708027531363,1,v,0.6535902999999053,correct,v
198,2F4K,199,2,37.1188939499074,52.50816346445961,1.081899746116098,54.99011821099789,2,b,0.9153638000002502,correct,b
199,2F4K,200,1,55.34859726254972,42.410321548920166,1.5805842286398375,45.99803197674595,2,n,1.217757200000051,correct,n
200,2F4K,201,2,47.31948112318151,61.66813752143484,1.337542222110483,62.62126744167374,2,v,3.8047786000001906,incorrect,b
201,2F4K,202,2,36.39541613464377,56.71960978345586,1.0657451456774298,58.59146269927867,2,b,0.9576301000001877,correct,b
202,2F4K,203,2,64.39342563614116,53.364008204704845,1.9076582872016856,55.73237678710213,1,v,0.7384726999998747,correct,v
203,2F4K,204,1,38.68222704823784,57.53768230513317,1.1176487160917128,59.27438254201612,1,c,1.2247992999996313,correct,c
204,2F4K,205,2,56.50044413130437,40.81287086949455,1.6188993842914592,44.56106287450169,1,v,0.6907664999998815,correct,v
205,2F4K,206,2,59.282855297818166,42.0772912822266,1.7153294127811898,45.69830893815481,1,v,0.5284028000000944,correct,v
206,2F4K,207,1,52.0256275487904,38.601154539878166,1.4750550793240942,42.577696480253046,2,n,0.9760612999998557,correct,n
207,2F4K,208,2,40.53428480463403,31.452044415200103,1.1615317129395633,36.29433366272082,1,b,3.04092270000001,incorrect,v
208,2F4K,209,1,70.22416617435138,50.68791824669934,2.153562188929629,53.396852031271166,2,n,0.9592801999997391,correct,n
209,2F4K,210,1,40.26303598776809,23.80751210256103,1.1549985813576258,29.99147030848522,2,c,1.6800044999999955,incorrect,n
210,2F4K,211,2,57.1988872974909,37.39556485401589,1.6425833949727835,41.50182123397866,1,v,1.3332500999999866,correct,v
211,2F4K,212,2,68.13909485008773,51.447287228829154,2.0621836875999637,54.06378322460339,1,v,0.8789080999999896,correct,v
212,2F4K,213,2,62.16017815676272,48.04515578662614,1.8210939399253,51.05488215418248,1,v,0.623228299999937,correct,v
213,2F4K,214,2,46.36770059006688,58.12601190216982,1.311330207292635,59.76170324626549,2,b,1.1459626999999273,correct,b
214,2F4K,215,2,74.36899747409268,62.70090474948655,2.3474101275582084,63.42867845827645,1,v,0.6475915999999415,correct,v
215,2F4K,216,2,48.438752566926006,57.43912593338906,1.3690380810195688,59.19243041458626,2,b,0.5087107999997897,correct,b
216,2F4K,217,1,58.220953204190565,43.24073356998578,1.6778672725717094,46.745480653226,2,c,0.6482657000001382,incorrect,n
217,2F4K,218,2,26.08472642980309,41.31214150496841,0.8600794217340797,45.009936333033885,2,b,0.9760138000001461,correct,b
218,2F4K,219,1,34.48362294348643,47.81654663710316,1.0242079682627894,50.85101964329097,1,c,1.1026142000000618,correct,c
219,2F4K,220,2,53.15729724449792,60.873280313559874,1.5101783263528763,61.99138082524616,2,v,0.9083808000000317,incorrect,b
220,2F4K,221,2,37.22371692061023,47.888749488482446,1.0842605700916317,50.91542515384494,2,b,1.5336975000000166,correct,b
221,2F4K,222,2,60.51335886438718,73.40292526883988,1.7597869347699282,70.9280627543776,2,v,2.1973422000000937,incorrect,b
222,2F4K,223,2,52.37025014246822,64.20477931841125,1.4856636226693354,64.58099862836978,2,b,0.47228880000011486,correct,b
223,2F4K,224,1,52.39502670388222,32.55879989785502,1.4864292547466915,37.24845536818889,2,n,1.128233100000216,correct,n
224,2F4K,225,2,45.14120249565313,34.413351424356094,1.278308521632099,38.86493841419927,1,v,1.6864173999997547,correct,v
225,2F4K,226,1,50.903525061267125,40.09959389379095,1.4410353751484646,43.92038013800314,2,n,0.830343399999947,correct,n
226,2F4K,227,1,31.08898267091587,44.28662711550646,0.9544023365488636,47.68659215811131,1,c,1.0791245999998864,correct,c
227,2F4K,228,1,55.339463344938856,46.48893089153285,1.5802840497087938,49.66403850754801,2,n,0.7818283999999949,correct,n
228,2F4K,229,1,27.111881655729697,37.96765919858593,0.8786475306996828,42.01178937888239,1,c,0.7393296000000191,correct,c
229,2F4K,230,1,61.17024572885001,44.886409289101685,1.7839898064593167,48.225874423772986,2,n,0.5749069999997118,correct,n
230,2F4K,231,2,55.21496871487279,41.492921937298014,1.576198312182667,45.17253451769289,1,v,1.2915628999999171,correct,v
231,2F4K,232,2,51.71513077022246,66.74669487878666,1.4655619199160028,66.46103631211126,2,b,0.7021654999998646,correct,b
232,2F4K,233,1,51.5483761325201,66.18271155531711,1.4604887891798783,66.05157745387021,1,n,1.2187607000000753,incorrect,c
233,2F4K,234,2,52.89048872680851,40.4694554888004,1.5018228649876817,44.25249986905535,1,v,2.506863799999792,correct,v
234,2F4K,235,2,30.016866787573782,43.91591945949116,0.9333602962467348,47.35310150798881,2,b,1.1279966000001878,correct,b
235,2F4K,236,2,42.984045359151246,60.13427226657464,1.22223471275011,61.39941025474707,2,b,1.923447500000293,correct,b
236,2F4K,237,1,49.60698220427213,38.0148871960919,1.4027028954926923,42.05393670276462,2,n,1.1155994000000646,correct,n
237,2F4K,238,1,46.0142908011624,31.419286660746536,1.3017286311783984,36.26622539091188,2,n,1.376555400000143,correct,n
238,2F4K,239,1,65.54939679807144,49.30610807979228,1.954069667514834,52.17597223130728,2,n,1.3340413999999328,correct,n
239,2F4K,240,2,55.486557597945584,43.65220895964936,1.5851251261869208,47.11580652662133,1,v,1.0907271000000947,correct,v
240,2F4K,241,1,61.43135578239991,48.72417517893058,1.793702557142847,51.65933257778263,2,n,2.591633600000023,correct,n
241,2F4K,242,1,62.989930535561726,51.64787805578148,1.8527881303995384,54.23943498620384,2,n,0.5729840999997577,correct,n
242,2F4K,243,2,48.86621996557084,41.90816902090248,1.3812616176995889,45.54612107315227,1,v,2.4840487000001303,correct,v
243,2F4K,244,1,36.99510610228872,55.78277073832833,1.079118413630333,57.80220555079604,1,c,0.8546654000001581,correct,c
244,2F4K,245,2,58.07266272671008,74.72473840591562,1.672701346863701,71.72845329363619,2,b,0.7516573999996581,correct,b
245,2F4K,246,1,41.46160806358623,53.71175259850009,1.184147044052837,56.03258294635603,1,c,1.7769678999998177,correct,c
246,2F4K,247,2,35.368798175535275,58.48352153042218,1.0432348323042602,60.05621660212086,2,v,0.9456756999998106,incorrect,b
247,2F4K,248,1,51.89393927735658,42.87470279415526,1.4710213425528724,46.416017794885214,2,n,1.7285627000001114,correct,n
248,2F4K,249,1,68.08305365759769,51.1896025292429,2.059781934254703,53.83781009454961,2,n,1.0550085999998373,correct,n
249,2F4K,250,2,56.98479004871955,48.71256711673768,1.6352868234531968,51.64901344078479,1,v,0.9092851999998857,correct,v
250,2F4K,251,2,30.82700189238807,46.54601473256072,0.9492171401110024,49.71517180141298,2,b,0.9160774000001766,correct,b
251,2F4K,252,2,34.87597449064018,49.4945448986321,1.032598376341736,52.34296962513714,2,b,0.6913948999999775,correct,b
252,2F4K,253,2,47.429058813883564,28.242937472600183,1.340593426118567,33.581190296570895,1,v,1.1944668000001002,correct,v
253,2F4K,254,2,44.907215135774976,68.22719046327516,1.272103851930822,67.51407497454909,2,b,0.812070699999822,correct,b
254,2F4K,255,1,69.0894992553227,58.20238291978079,2.103344228646736,59.824721055788814,2,c,1.0246002999997472,incorrect,n
255,2F4K,256,2,44.70225424600498,34.93687483650897,1.266693629517449,39.324816248336255,1,v,1.4736210999999457,correct,v
256,2F4K,257,1,33.365859001846026,49.221792234094245,1.000676581040529,52.10120121030738,1,c,1.1395987999999306,correct,c
257,2F4K,258,2,30.17406777021777,48.42299255297418,0.9364163523405092,51.39142963907455,2,b,1.230929599999854,correct,b
258,2F4K,259,1,73.67649901828341,58.60749684793777,2.3138494044817555,60.158054851677,2,c,2.220900899999833,incorrect,n
259,2F4K,260,1,55.53786353749846,39.73444135837202,1.5868171621952003,43.59272933475462,2,n,1.8742175999996107,correct,n
260,2F4K,261,1,47.65427890388503,62.8672238817446,1.3468865791953433,63.557506360209615,1,c,1.4317879000000175,correct,c
261,2F4K,262,2,58.82631125781897,44.866675383341146,1.6991218744620116,48.208137858183285,1,v,2.124581500000204,correct,v
262,2F4K,263,1,45.73130723510744,61.94493033320493,1.2940911312973171,62.83890324026238,1,c,2.2338112000002184,correct,c
263,2F4K,264,2,58.15454609049973,51.34631114630862,1.6755519095132057,53.97527677140072,1,v,1.036654500000168,correct,v
264,2F4K,265,1,47.5145170173741,30.922187500234465,1.3429778502001846,35.840656580104685,2,n,1.667743700000301,correct,n
265,2F4K,266,2,64.6585421081647,49.069843525855966,1.9182041394226488,51.96637993133352,1,v,1.2916104999999334,correct,v
266,2F4K,267,2,55.79514026267656,75.48488866971861,1.5953292548411389,72.1748353028866,2,b,0.8483917000003203,correct,b
267,2F4K,268,1,58.97352655498344,44.35237559911018,1.704331291182275,47.74572746222006,2,c,1.1453370999997787,incorrect,n
268,2F4K,269,1,45.12164547884601,65.33244090108093,1.277788768993105,65.42588706500305,1,c,1.1940463000000818,correct,c
269,2F4K,270,1,44.74858072728369,52.25446425417402,1.2679144640873556,54.769199735278775,1,c,1.049501699999837,correct,c
270,2F4K,271,1,49.56232412532764,56.74395957951602,1.401400896013164,58.611876093695926,1,c,0.769669199999953,correct,c
271,2F4K,272,2,66.00907586827671,48.52090238924563,1.9728377023359251,51.47855749254867,1,v,1.4918699999998353,correct,v
272,2F4K,273,2,45.99420781799711,28.25268623811295,1.3011851247106527,33.58929861704776,1,v,2.2277195000001484,correct,v
273,2F4K,274,1,46.71751643744656,56.11131789908932,1.3209038848171843,58.07984192873397,1,c,1.1946276000003309,correct,c
274,2F4K,275,2,48.13333390414231,63.461182293683386,1.3603708685530658,64.01478753352266,2,b,3.084229399999913,correct,b
275,2F4K,276,1,42.27505123281591,48.32230076603837,1.2043473434778047,51.30179014042296,1,c,3.1687102999999297,correct,c
276,2F4K,277,1,35.750388324561,44.74220075261536,1.0515457721731565,48.09625023053628,1,c,0.7757316000001993,correct,c
277,2F4K,278,1,37.680718309484064,46.40271248435061,1.0946134958916656,49.58679316688365,1,c,0.6914543999996567,correct,c
278,2F4K,279,2,63.37070636263798,49.89208006098062,1.86751676046913,52.69477010290435,1,v,1.5102264000001924,correct,v
279,2F4K,280,1,32.99997166934392,42.6022038290935,0.993091910387122,46.17073979165496,1,c,1.3583545999999842,correct,c
280,2F4K,281,2,56.26232856259357,71.59062123386232,1.6109032586369143,69.78210498989237,2,b,3.2412570000001324,correct,b
281,2F4K,282,1,32.78950663377898,50.69940180247898,0.988755143090426,53.40696008519656,1,c,2.757049299999835,correct,c
282,2F4K,283,1,49.96825265198035,43.59759228559717,1.4132802525845127,47.06665583870112,2,n,1.4069110999998884,correct,n
283,2F4K,284,2,62.96221337005401,51.05945912361556,1.8517205609399152,53.72354642927477,1,v,1.4129989999996724,correct,v
284,2F4K,285,1,49.36106656499263,65.97854946942807,1.395548241893578,65.90225149595987,1,c,4.9571852999997645,correct,c
285,2F4K,286,1,31.65945994252809,49.15283548324844,0.9657915849238756,52.04002880798174,1,c,0.5997239999996964,correct,c
286,2F4K,287,1,67.85091239462648,51.52806846253597,2.0498628289058574,54.134548136496285,2,n,0.7817478000001756,correct,n
287,2F4K,288,2,61.51300124061192,43.08998733025788,1.7967504373379095,46.60979678851239,1,v,1.1762523000002147,correct,v
288,2F4K,289,1,59.63738887564378,47.970458671363794,1.7280220973067186,50.98828986058712,2,n,1.0306679000000258,correct,n
289,2F4K,290,2,45.67185666645492,56.24065224677688,1.292492312773568,58.18888718199007,2,v,2.9863390999998956,incorrect,b
290,2F4K,291,2,61.655197359750645,49.703967136559086,1.802071084458586,52.528385831480136,1,v,0.7883191999999326,correct,v
291,2F4K,292,2,58.7248686776593,66.12611059166984,1.695541457917735,66.01023725563581,2,v,0.7696603999997933,incorrect,b
292,2F4K,293,2,43.99688994449938,32.01607073794862,1.2482498197459122,36.779512254135135,1,b,1.242372499999874,incorrect,v
293,2F4K,294,2,64.34616754552202,45.257478354672166,1.905784543888596,48.55928504190888,1,v,1.419060200000331,correct,v
294,2F4K,295,1,39.59980736403677,58.384823061554016,1.1391788139448853,59.975033863527614,1,c,1.218630800000028,correct,c
295,2F4K,296,1,66.5073710167984,60.59677000998988,1.9933860404506305,61.770589354375296,2,n,0.7454473000002508,correct,n
296,2F4K,297,1,32.460909915370536,41.01326408134052,0.9820220320605668,44.74119280069913,1,c,0.6725444999997308,correct,c
297,2F4K,298,1,37.39639502818915,31.88170755893261,1.088160866504026,36.66372793266076,2,c,1.3097671999998965,incorrect,n
298,2F4K,299,1,62.06105042031352,54.011449616468425,1.8173439791518808,56.29063723704849,2,n,1.5341604999998708,correct,n
299,2F4K,300,2,37.60376992083165,52.1311781579851,1.0928634089118618,54.66170261571983,2,v,0.8606927000000724,incorrect,b
300,2F4K,301,1,49.509136409497486,57.76939561064689,1.3998517929881271,59.466702752821966,1,c,2.2149280000003273,correct,c
301,2F4K,302,2,57.95103576254435,44.47487954570624,1.668476160159866,47.855898237553966,1,v,1.6256702000000587,correct,v
302,2F4K,303,2,58.42408617197708,52.82409531657671,1.6849696261986202,55.2646694308166,1,v,0.6241071000004013,correct,v
303,2F4K,304,1,61.57297376661383,40.91494417151489,1.7989925511160565,44.65280842433139,2,n,1.589278099999774,correct,n
304,2F4K,305,1,64.2003123145581,45.24830538511207,1.900013105152271,48.55104545740662,2,n,0.6487711999998282,correct,n
305,2F4K,306,2,43.71116704608442,54.394611518023616,1.240855406020793,56.61962407669468,2,b,1.0488118000002942,correct,b
306,2F4K,307,1,37.14859584107801,47.489823022149565,1.0825681700028629,50.55937360133541,1,c,0.8174438999999438,correct,c
307,2F4K,308,1,60.24414927577191,48.86965470552676,1.7499630718487595,51.78861474798611,2,n,0.7150243999999475,correct,n
308,2F4K,309,2,59.43052224852365,44.6665078707245,1.720604680568349,48.02820212322583,1,v,0.6543609999998807,correct,v
309,2F4K,310,2,42.46882879950255,29.57158299083149,1.2092100410433666,34.694107889093466,1,b,0.7939756000000671,incorrect,v
310,2F4K,311,1,42.7346251893738,64.87612873439596,1.2159119462626082,65.0860363604848,1,n,3.1803219999997054,incorrect,c
311,2F4K,312,1,37.38037907227678,58.22513215885741,1.0877985230945624,59.84348180129625,1,c,0.6738744999997834,correct,c
312,2F4K,313,1,48.44300129103151,26.435442216294906,1.3691590405132097,32.09356621335298,2,n,0.9274233000001004,correct,n
313,2F4K,314,1,50.83451829652135,58.926789865708606,1.4389690366585794,60.419632548276326,1,c,0.872829300000376,correct,c
314,2F4K,315,2,35.79350440370867,52.263636237152106,1.0524889831816502,54.77719342944883,2,b,2.457580600000256,correct,b
315,2F4K,316,2,63.238193412342014,49.12609134369399,1.862377846714567,52.01629852039228,1,v,0.897106999999778,correct,v
316,2F4K,317,2,69.99413925956699,53.49274976092557,2.143285705487876,55.84361504287448,1,v,0.6968298000001596,correct,v
317,2F4K,318,2,42.79537857684388,27.765110024291324,1.2174490164427545,33.18485260470177,1,v,2.9983824000000823,correct,v
318,2F4K,319,1,51.960224690156736,36.69392796590477,1.4730503469941478,40.877971780863824,2,n,0.933502999999746,correct,n
319,2F4K,320,2,43.46475610960286,54.18032659921626,1.2345135600321695,56.43576784117737,2,b,1.789263199999823,correct,b
320,2F4K,321,1,40.87655377777087,47.8786996353459,1.1698281521317893,50.90646161925864,1,c,3.0777929000000768,correct,c
321,2F4K,322,2,32.58517613403961,51.58848109910218,0.9845629010288962,54.18744623043184,2,b,1.3293785999999272,correct,b
322,2F4K,323,2,36.52122151436484,48.7525049787842,1.068536837558866,51.68451456853408,2,b,0.8607139000000643,correct,b
323,2F4K,324,2,62.389669063824726,50.400166329649856,1.8298052047024185,53.14335212970261,1,v,0.677824899999905,correct,v
324,2F4K,325,1,66.38194739820293,54.5867741002816,1.988193842590788,56.78421192702815,2,n,1.0549338999999236,correct,n
325,2F4K,326,1,58.11583285338794,39.80428757123796,1.6742036009448924,43.655382275867474,2,n,0.5324735999997756,correct,n
326,2F4K,327,1,52.999408612211866,42.22067424329483,1.505228236657669,45.82734630010311,2,n,0.5703451999997924,correct,n
327,2F4K,328,2,61.88139711785273,44.25133960972602,1.8105674377768235,47.65485230593793,1,v,0.6786490999998023,correct,v
328,2F4K,329,2,61.76521838684808,42.040793428094894,1.806198623768032,45.6654643179584,1,v,0.5815424000002167,correct,v
329,2F4K,330,1,40.40966158086819,27.65068493294558,1.1585255386199198,33.090261354304495,2,c,0.9583243000001858,incorrect,n
330,2F4K,331,1,28.256066376888064,48.55539577801895,0.8998035670848933,51.50924406958212,1,c,2.567539900000156,correct,c
331,2F4K,332,2,44.859607275016494,58.83036269085419,1.2708451207303153,60.3407428778311,2,v,1.1884118999996645,incorrect,b
332,2F4K,333,2,34.84771009423697,52.28650569349903,1.0319916536350968,54.7971227207344,2,b,1.1330662999998822,correct,b
333,2F4K,334,2,48.20009894677486,64.65923553459722,1.3622608375442322,64.92352306040931,2,b,1.0307458000002043,correct,b
334,2F4K,335,1,43.393656921044986,31.3820757368232,1.232689722203145,36.23430552116752,2,c,2.6949945999999727,incorrect,n
335,2F4K,336,2,52.95252792529759,32.10329198691604,1.5037615701700275,36.85474024365911,1,v,0.6977349999997386,correct,v
336,2F4K,337,1,52.54517180791698,33.94880746383393,1.49107740634731,38.45811510770884,2,n,0.5935220000001209,correct,n
337,2F4K,338,2,52.45578167082928,41.60342381684445,1.4883083427235315,45.271937042146526,1,v,0.5087044000001697,correct,v
338,2F4K,339,1,57.87234556097439,38.0518977285979,1.6657482371692791,42.086970630595815,2,n,0.5759023000000525,correct,n
339,2F4K,340,1,43.77645177989959,52.379446328391154,1.242541082992517,54.87808195076421,1,c,0.9577898000002278,correct,c
340,2F4K,341,2,54.2953924997869,41.14101522415647,1.5463445121224124,44.85605151767896,1,v,0.5572669999996833,correct,v
341,2F4K,342,1,49.489256592575856,38.93422405844024,1.399273229009513,42.87568551414181,2,n,1.0300148999999692,correct,n
342,2F4K,343,1,35.81174496456087,51.73102294078532,1.052888269867529,54.31217619047572,1,c,0.8243204000000333,correct,c
343,2F4K,344,2,24.446317735061044,33.62765158832127,0.8312702768005679,38.17758287078944,2,b,0.8366041999997833,correct,b
344,2F4K,345,1,63.59947371079527,46.37350104021635,1.8764218575601792,49.56061796166546,2,n,0.636162300000251,correct,n
345,2F4K,346,1,29.637128734710167,43.88514618265396,0.926019103990712,47.3254129880708,1,c,0.727185599999757,correct,c
346,2F4K,347,1,65.75829128298547,53.27762067177425,1.9625762932835435,55.65767162155506,2,n,0.6239858000003551,correct,n
347,2F4K,348,1,66.68737750094564,80.98884243585545,2.000861524886264,75.09022844686278,1,n,0.5087766999999985,incorrect,c
348,2F4K,349,1,53.55405561604723,34.659187264758,1.5226893781537536,39.08070749068307,2,n,0.8364363999999114,correct,n
349,2F4K,350,1,58.26199098142122,35.650391966495775,1.6792997027616792,39.95382636282861,2,n,0.6232303000001593,correct,n
350,2F4K,351,2,54.22609088434327,37.89522908313293,1.5441177006964295,41.94716488370484,1,v,1.1818647000000055,correct,v
351,2F4K,352,1,46.0924845985677,35.558459059956824,1.303846956246531,39.87264386541018,2,c,0.7826104999999188,incorrect,n
352,2F4K,353,2,51.82448906121039,40.6792393506184,1.4688984611620026,44.440973205106,1,v,0.8971029999997882,correct,v
353,2F4K,354,2,68.34586883492449,49.68839496821398,2.0710696397926576,52.51460530522909,1,v,0.6240379999999277,correct,v
354,2F4K,355,1,46.4227091554682,28.835491042166183,1.3128310580624591,34.075605102465325,2,c,0.7878804000001765,incorrect,n
355,2F4K,356,1,40.97452608618795,55.11077307961169,1.1722138453139956,57.23160194816133,1,c,2.9013294999999744,correct,c
356,2F4K,357,1,44.301085080475545,54.57852661623898,1.2561707245753209,56.777153575374925,1,c,1.266504800000348,correct,c
357,2F4K,358,2,68.32685607085898,56.12054647435428,2.0702509849622794,58.0876274632362,1,v,0.7393248000003041,correct,v
358,2F4K,359,2,49.17215558688977,61.05844614124405,1.3900768726154535,62.13875728519447,2,v,0.6967706999998882,incorrect,b
359,2F4K,360,2,57.066374364278005,44.08626262374404,1.6380634391183442,47.506356914097154,1,v,0.7636272999998255,correct,v
360,2F4K,361,1,66.31756899480388,57.08811643097146,1.9855340058723212,58.89983507454155,2,n,2.2578655000002072,correct,n
361,2F4K,362,1,59.63533644422081,48.7885360685278,1.7279483484325189,51.71653770783779,2,n,0.926368999999795,correct,n
362,2F4K,363,1,37.00708831613126,46.22502716868605,1.0793873236541875,49.427546682044,1,c,0.7452452000002268,correct,c
363,2F4K,364,1,30.490425284538105,43.32016353583838,0.9425968456265196,46.81697193631396,1,c,1.2982053000000633,correct,c
364,2F4K,365,1,47.61958569705584,63.06799964954168,1.3459152520175888,63.71257120899676,1,n,5.0,correct,c
365,2F4K,366,1,39.26113379654736,51.90240768747846,1.1311843094370002,54.46199112058825,1,n,0.7757466000002751,incorrect,c
366,2F4K,367,2,44.745314776045184,33.63083016012005,1.2678283584429837,38.18035641488449,1,v,1.9834390999999414,correct,v
367,2F4K,368,1,35.612882810536874,24.6693795007698,1.0485433327081524,30.672431181652783,2,c,0.8601158000001305,incorrect,n
368,2F4K,369,2,52.07351979313478,62.414602293623744,1.4765248054549207,63.206125481869854,2,v,1.0305183999998917,incorrect,b
369,2F4K,370,2,55.71127688037112,65.92526449703888,1.5925496005012565,65.86318295211359,2,b,0.46621019999975033,correct,b
370,2F4K,371,1,52.31493004351327,43.10407472542696,1.4839555734453251,46.62247676909958,2,n,0.994261500000448,correct,n
371,2F4K,372,1,35.0439431773098,25.80633403732785,1.0362113529938903,31.583490874714418,2,c,1.3705343999999968,incorrect,n
372,2F4K,373,2,44.42488559092983,59.0279444645871,1.259408725391558,60.50228919954191,2,v,0.7032020999999986,incorrect,b
373,2F4K,374,2,51.309362442398566,38.35611193848609,1.45324794981308,42.35865725525169,1,v,0.8788027999999031,correct,v
374,2F4K,375,2,58.94575058588764,69.75161192401552,1.7033471791568648,68.56404691770534,2,v,0.605767300000025,incorrect,b
375,2F4K,376,1,30.46063175949864,44.55909298410367,0.9420130510397366,47.93162434160649,1,c,1.6192913999998382,correct,c
376,2F4K,377,2,65.70392927420988,53.70509926137866,1.9603589991149464,56.026846947670194,1,v,0.6364267999997537,correct,v
377,2F4K,378,1,45.37485124455709,64.24873692803945,1.284534409810021,64.61424747801198,1,n,1.552568699999938,incorrect,c
378,2F4K,379,2,35.66290778039832,46.978133381781376,1.0496346369400509,50.10198367175618,2,b,1.5040064999998322,correct,b
379,2F4K,380,1,64.91806276262446,46.8133215295529,1.9285838644080384,49.95450810662018,2,n,1.0852727999999843,correct,n
380,2F4K,381,2,34.36418557238565,50.36478843816722,1.0216673705667645,53.11215724707087,2,b,0.9578114999999343,correct,b
381,2F4K,382,2,59.22690941209982,46.94759725507288,1.7133350240675704,50.0746649878738,1,v,0.6420987999999852,correct,v
382,2F4K,383,1,55.27996314847941,72.39330392474483,1.578330017897562,70.29646699397765,1,c,0.9396350000001803,correct,c
383,2F4K,384,1,34.63074408930552,43.25661444473311,1.02734612370894,46.75977443936558,1,c,0.9032081999998809,correct,c
384,2F4K,385,2,25.092435864730547,43.50519790795763,0.8425142985142496,46.983504988415184,2,b,0.8056783000001815,correct,b
385,2F4K,386,1,40.12684734156199,58.28717496023717,1.1517322949663873,59.89462155669441,1,c,1.2190138999999363,correct,c
386,2F4K,387,2,25.20063085589833,37.37814496773576,0.8444119645833893,41.4863106085301,2,b,0.7639411999998629,correct,b
387,2F4K,388,2,38.585023284634815,51.10570759644979,1.1153918994528345,53.76416211795375,2,b,0.7455752000000757,correct,b
388,2F4K,389,2,62.30427206064505,54.176862497747095,1.8265587551707532,56.43279290132105,1,v,0.5453686999999263,correct,v
389,2F4K,390,2,56.500118623454746,66.32109049588315,1.6188884264107088,66.15245769495756,2,v,0.6968675000002804,incorrect,b
390,2F4K,391,2,25.385881016597057,33.992847476649985,0.8476710552591891,38.49663096758024,2,b,0.933876500000224,correct,b
391,2F4K,392,1,33.9690315047413,45.44940701758448,1.013306728723267,48.73165334153016,1,c,0.8424810000001344,correct,c
392,2F4K,393,2,47.22997130651415,40.620873168176445,1.335054964495182,44.38852953447274,1,v,1.103461199999856,correct,v
393,2F4K,394,2,64.03106509351585,49.85545769569502,1.893337957824069,52.66239041075827,1,v,1.8377740000000813,correct,v
394,2F4K,395,1,24.657459142757045,38.963147703684776,0.8349280445611753,42.90157645901086,1,c,0.9338390000002619,correct,c
395,2F4K,396,2,60.69288773499285,48.95591593894624,1.7663688458292066,51.86523307678458,1,v,1.0670422000002873,correct,v
396,2F4K,397,2,48.00122073625781,27.757325143014768,1.3566387646030444,33.178413159772404,1,v,0.8425210000000334,correct,v
397,2F4K,398,1,49.17987909790741,63.69188736783583,1.3903001450868486,64.19121279526095,1,c,1.3037441999999828,correct,c
398,2F4K,399,2,31.194131749181658,51.43028638838206,0.9564914333380884,54.048885763992665,2,b,1.2552106000002823,correct,b
399,2F4K,400,1,49.89939501496034,69.47242916534643,1.4112580892324311,68.37443168415439,1,c,1.0063334999999825,correct,c
