,condition,trial,sub_task,x,y,xt,yt,cat,resp,rt,acc,correct_resp
0,4F4K,1,1,58.095928212722406,48.62722804089807,1.6735107824800086,51.29594365794412,2,c,5.0,NA,n
1,4F4K,2,1,66.06754831746377,50.87843435376844,1.9752379354114944,53.2823083747626,2,c,2.579714499999909,incorrect,n
2,4F4K,3,2,39.938697086850574,61.70721601235645,1.1472349752269773,62.34725104694692,2,b,2.0577674000001025,correct,b
3,4F4K,4,2,38.656430288983145,53.40001891964703,1.1170493382117983,55.475870501143504,2,b,1.546428800000058,correct,b
4,4F4K,5,1,46.238411908499394,31.847325830757832,1.307809453771695,36.394154543345145,2,n,1.540370400000029,correct,n
5,4F4K,6,1,50.814627875086416,63.30687015030247,1.4383739881943591,63.588509352840056,1,n,1.8371542999998383,incorrect,c
6,4F4K,7,2,32.14808214936746,50.00437723643354,0.9756546421034886,52.51378652129449,2,v,1.9728033000001233,incorrect,b
7,4F4K,8,2,49.834095889831815,33.65950714984363,1.40934310280089,37.96150066453732,1,b,1.603976399999965,incorrect,v
8,4F4K,9,2,32.200401275596455,44.94431435170596,0.976716678936857,48.00893581382951,2,b,1.6374702000000525,correct,b
9,4F4K,10,2,25.713391883246317,38.73716711158505,0.8534637345166514,42.4442685844107,2,b,2.3550167999999303,correct,b
10,4F4K,11,1,39.735179852862295,43.83026248862197,1.1423901106955396,47.00954593464738,1,n,2.216916000000083,incorrect,c
11,4F4K,12,1,47.24564618351959,34.51628358363128,1.3354901964608277,38.70949227815874,2,c,4.429284199999984,incorrect,n
12,4F4K,13,1,47.48785883293,60.31647129766522,1.3422335883367482,61.24387171848503,1,n,2.3065798000000086,incorrect,c
13,4F4K,14,1,48.89411249383656,58.24616389888564,1.3820629940004765,59.56297965414663,1,c,2.2398184999999557,correct,c
14,4F4K,15,2,68.65143190186228,44.48503611706029,2.084271124099258,47.59708050960919,1,b,1.905594199999996,incorrect,v
15,4F4K,16,2,51.14726452791663,60.94222812735365,1.4483576878673177,61.74301470833482,2,b,2.057780999999977,correct,b
16,4F4K,17,2,56.615147567771096,52.54600648896815,1.6227653771158486,54.7372502544954,1,v,1.7132444999999734,correct,v
17,4F4K,18,1,51.8028365774456,37.391061671363474,1.4682372374090458,41.24572617353012,2,c,4.588485900000023,incorrect,n
18,4F4K,19,1,35.861322830161306,50.52702022333813,1.053974297097522,52.97377465652276,1,c,1.9591229999998632,correct,c
19,4F4K,20,2,30.71705454812631,40.22114348391078,0.9470494326922512,43.77110720957493,2,b,3.13802829999986,correct,b
20,4F4K,21,2,44.85528149015584,53.9479347123909,1.27073081059858,55.94719085554402,2,b,4.174439399999983,correct,b
21,4F4K,22,1,50.92961926336857,31.244366239851843,1.4418175128342885,35.87758989420684,2,n,2.2277341999999862,correct,n
22,4F4K,23,1,55.43499444675513,67.75448492111477,1.583426425327534,66.86526315923567,1,n,2.798148500000025,incorrect,c
23,4F4K,24,2,27.35148968262918,44.52621337278133,0.8830363243182102,47.63401601692375,2,v,1.1823398999999881,incorrect,b
24,4F4K,25,2,57.46624172345569,71.34626621955827,1.6517407342897144,69.3012385046264,2,b,2.1548903000000337,correct,b
25,4F4K,26,1,51.8129400726601,35.530601636090964,1.4685457409924596,39.600077370823215,2,n,2.18082830000003,correct,n
26,4F4K,27,1,27.49574141682037,45.12022353988209,0.8856890836561309,48.166609218925394,1,c,1.7223060999999689,correct,c
27,4F4K,28,2,79.68416343401681,66.94595740253853,2.6217405152982245,66.2899768224082,1,b,1.977340599999934,incorrect,v
28,4F4K,29,1,51.61450871304511,40.882344382315,1.4624986179808557,44.36363171482642,2,n,5.0,incorrect,n
29,4F4K,30,2,38.221500182978886,50.58025403386337,1.106992160665177,53.020552605008106,2,b,1.7042715000000044,correct,b
30,4F4K,31,1,36.4228333027522,55.02704875711252,1.066352925783503,56.86914690046807,1,c,2.7860441000000264,correct,c
31,4F4K,32,2,42.73656613385985,31.362480724057068,1.2159610224390869,35.9785729019489,1,b,2.167007799999965,incorrect,v
32,4F4K,33,2,39.99257730383398,59.17980692674762,1.1485210663676884,60.32643687600907,2,b,1.6863727999998446,correct,b
33,4F4K,34,2,45.810207271888345,32.9443174413735,1.296216063607828,37.34041726096151,1,v,1.3355748999999832,correct,v
34,4F4K,35,2,41.59457689049852,50.98161034440248,1.1874257520554623,53.372774823318174,2,b,0.9881041000001005,correct,b
35,4F4K,36,2,41.07521921155947,57.374422239284605,1.1746708621787678,58.842536636775655,2,b,1.7892147999998542,correct,b
36,4F4K,37,2,36.71151360832324,56.7467992556679,1.0727734281519337,58.31952048680437,2,b,1.2310093000000961,correct,b
37,4F4K,38,1,37.34215820932896,55.97231718393062,1.0869343055157334,57.66937813201734,1,n,2.1123771000000033,incorrect,c
38,4F4K,39,1,70.73499801633005,60.18548865960344,2.176560226085273,61.1388499503072,2,n,2.339041599999973,correct,n
39,4F4K,40,1,54.50018664162097,61.886651368631256,1.5529437771257577,62.48800565247855,1,n,1.4543573999999353,incorrect,c
40,4F4K,41,2,60.02536404105095,43.111223050941774,1.7420196784815944,46.36403998441925,1,v,3.1620726999999533,correct,v
41,4F4K,42,1,38.49488905702392,55.29596351879127,1.1133032911009662,57.09752626274527,1,n,2.0865925000000516,incorrect,c
42,4F4K,43,2,59.51557575314642,48.01724602565801,1.723650499912519,50.75416533233179,1,v,2.6333759000001464,correct,v
43,4F4K,44,1,60.68599139004511,48.53438544304766,1.766115557051268,51.21356791718316,2,n,2.9376796000001377,correct,n
44,4F4K,45,1,34.72388723912721,47.64238717811104,1.0293378748465367,50.42059525991445,1,c,1.9667643000000226,correct,c
45,4F4K,46,2,38.27513237738098,55.6315840933114,1.1082274225013198,57.38175403432696,2,v,1.8077860999999302,incorrect,b
46,4F4K,47,2,55.18002315713974,44.01318957045658,1.5750533483593931,47.173723210059535,1,b,1.8073866000002,incorrect,v
47,4F4K,48,1,50.454254926128215,37.2138852549711,1.427635466714421,41.08841521945155,2,n,4.052972899999986,correct,n
48,4F4K,49,2,22.873127751382142,42.15056922830416,0.8045164540705566,45.50153777687504,2,v,2.695941599999969,incorrect,b
49,4F4K,50,2,48.907745108723766,37.89311144473187,1.382454839875635,41.692075392930434,1,v,1.6064121000001705,correct,v
50,4F4K,51,1,66.40840017234079,48.51493465082447,1.9892877891727845,51.19630593870141,2,n,5.0,correct,n
51,4F4K,52,1,45.2024278946443,62.49016247265178,1.2799370319458443,62.95863299306785,1,c,1.8984036000001652,correct,c
52,4F4K,53,1,38.94732730249055,50.80885601655107,1.1238268850407862,53.22126986858652,1,c,1.4796808000000965,correct,c
53,4F4K,54,1,56.34501375305869,43.56356691200981,1.6136754124360069,46.77014955562154,2,n,1.7164126999998643,correct,n
54,4F4K,55,1,43.189321078064175,61.918567310081,1.2274630808170943,62.513002086713215,1,c,1.804381899999953,correct,c
55,4F4K,56,2,46.71795740365811,59.2948425067939,1.320915997078666,60.419898353183605,2,b,1.6587933000000703,correct,b
56,4F4K,57,2,35.81421164795087,18.36845028915069,1.0529422773024113,25.69614529105305,1,v,1.1837131999998292,correct,v
57,4F4K,58,1,57.81505893519036,43.91504325001585,1.663765109510562,47.08563963813072,2,n,2.609995300000037,correct,n
58,4F4K,59,1,33.89048117706811,50.89866771565168,1.0116529362861428,53.30005367823513,1,c,3.307897500000081,correct,c
59,4F4K,60,1,57.76541277705656,53.28709929113205,1.662048386536502,55.37848175704843,2,n,3.6951404000001276,correct,n
60,4F4K,61,1,47.13841035143643,59.786171729027394,1.3325154961556325,60.8175435443924,1,c,1.8923753000001398,correct,c
61,4F4K,62,2,54.522044705337706,38.51222689932345,1.5536497903549544,42.243607917992136,1,b,2.7489559999999074,incorrect,v
62,4F4K,63,2,35.4969120322505,18.12374093052354,1.0460177702364704,25.52244598278729,1,v,1.3477399000000787,correct,v
63,4F4K,64,2,73.69084070644482,64.04006656643314,2.3145395598040053,64.14689706436684,1,b,1.9045960000000832,incorrect,v
64,4F4K,65,1,58.06092743804898,41.02792239884284,1.6722932099180583,44.4941708735148,2,n,1.6632873999999447,correct,n
65,4F4K,66,1,47.98570168258251,43.5423683316068,1.3562010348171114,46.75111931972549,2,c,2.068385199999966,incorrect,n
66,4F4K,67,1,51.04418447277282,32.08260982298072,1.4452564732865485,36.59642588649805,2,n,2.185420000000022,correct,n
67,4F4K,68,2,56.24628587721381,43.74193025538074,1.6103659537330337,46.93025983796612,1,v,2.2762729999999465,correct,v
68,4F4K,69,1,38.995362038840376,55.768754955525225,1.1249499851280431,57.497658919175365,1,c,2.4878398000000743,correct,c
69,4F4K,70,2,54.35329165443844,63.6477895995628,1.5482073997702073,63.848993869563024,2,v,2.6600883000000977,incorrect,b
70,4F4K,71,1,50.71738571714374,63.63448141337906,1.435468399706385,63.83885301474559,1,n,2.15588270000012,incorrect,c
71,4F4K,72,2,50.72493365638664,61.93777778555943,1.4356937213085312,62.52804189317504,2,b,2.282186299999921,correct,b
72,4F4K,73,1,38.08054023527263,51.16569504074542,1.1037521185976036,53.53404481899676,1,n,3.434058099999902,incorrect,c
73,4F4K,74,2,53.34799062838835,34.98020319179306,1.5161786119940628,39.11617537410293,1,v,1.9773549999999886,correct,v
74,4F4K,75,1,66.13353738807481,51.7843094382099,1.977950225580599,54.07464226238048,2,n,1.3278450999998768,correct,n
75,4F4K,76,2,60.13103185084559,46.0536753572522,1.7458516273307865,49.00244927504807,1,v,1.9060612999999194,correct,v
76,4F4K,77,1,54.32638190453304,45.78934298255447,1.5473413077999063,48.765918723066655,2,n,1.5320888000001105,correct,n
77,4F4K,78,2,47.89272650046728,33.793949594924115,1.3535815368379078,38.07859663155959,1,v,1.212686000000076,correct,v
78,4F4K,79,1,51.13036069001268,28.4005405949673,1.447848671745258,33.4796943962735,2,c,2.6696079000000736,incorrect,n
79,4F4K,80,2,38.23735802530719,59.015746743448034,1.1073572565718468,60.1929118923498,2,b,1.4190197999998873,correct,b
80,4F4K,81,2,63.43150524360861,48.6782622893131,1.869879312452785,51.34121077249718,1,v,3.6703357999999753,correct,v
81,4F4K,82,1,34.44771891268264,50.12419000138024,1.023443576565561,52.61935045481198,1,c,1.1944215000000895,correct,c
82,4F4K,83,2,55.64465540598635,38.943049826746254,1.5903448820751511,42.62804727217535,1,v,1.0670145999999932,correct,v
83,4F4K,84,1,31.762287482814585,42.57140390992842,0.9678588871647564,45.87935692972933,1,c,1.7345894999998563,correct,c
84,4F4K,85,1,47.31244095101576,58.84051487225815,1.3373464252577076,60.04999441209974,1,n,0.7696157999998832,incorrect,c
85,4F4K,86,1,48.37948846999057,31.550622068847154,1.3673519693319616,36.13963647485609,2,n,1.72176300000001,correct,n
86,4F4K,87,2,47.565626886987815,30.744694841053366,1.3444059256169825,35.451544516047456,1,v,2.0811886999999842,correct,v
87,4F4K,88,2,56.79337234127478,44.05360053956817,1.6287906335333096,47.20998885687155,1,v,2.142765400000144,correct,v
88,4F4K,89,2,42.343028648317,54.40876176814029,1.2060509531937411,56.34195725689774,2,b,0.9279901999998401,correct,b
89,4F4K,90,1,39.39532274143556,52.16855846930926,1.134345152188195,54.40933715883752,1,c,1.576812400000108,correct,c
90,4F4K,91,1,47.609130001209984,63.69391326112615,1.3456226548213377,63.884122799542695,1,n,1.6253726999998435,incorrect,c
91,4F4K,92,1,50.1807289338612,42.77143106531814,1.419538392142466,46.05895283411154,2,n,1.9591270999999324,correct,n
92,4F4K,93,2,65.50733857063342,53.370616987999895,1.9523614316869675,55.450520722990674,1,v,1.6231333999999151,correct,v
93,4F4K,94,1,37.115678391688746,48.40881892132221,1.0818274066012068,51.10210726829003,1,c,1.8620158000001084,correct,c
94,4F4K,95,1,31.072635766898895,48.258566296358566,0.9540779671240254,50.96865946752055,1,c,1.834733900000174,correct,c
95,4F4K,96,1,34.343023121529995,50.765347165613846,1.0212178737223545,53.1830885633229,1,c,1.4696581000000606,correct,c
96,4F4K,97,2,75.88392363084051,62.30622900432749,2.422535335069373,62.815657928654055,1,b,2.4156110999999783,incorrect,v
97,4F4K,98,1,66.62608243050877,49.58597538955914,1.9983128610778025,52.14463203057368,2,n,1.78933139999981,correct,n
98,4F4K,99,1,48.28262709740419,61.24412088577397,1.364600654078395,61.98226493074929,1,c,1.2126843999999437,correct,c
99,4F4K,100,2,48.72717456700744,29.841193792622413,1.3772736504813283,34.6861044888617,1,v,1.8735063999999966,correct,v
100,4F4K,101,1,50.13611230814743,38.871300973664255,1.4182219883278298,42.56398905030606,2,c,1.6041462000000593,incorrect,n
101,4F4K,102,1,71.97802746439041,61.05429737686784,2.2335535188888094,61.831949509481085,2,n,1.2429901999998947,correct,n
102,4F4K,103,2,61.17977708407082,52.49950321765044,1.784343426425909,54.6968969736136,1,v,1.795443700000078,correct,v
103,4F4K,104,1,51.71370532151783,33.49049978248437,1.4655184792930074,37.81445095317837,2,n,1.7422489999999016,correct,n
104,4F4K,105,2,58.8675064858998,69.70997990217543,1.700578017998337,68.21639106953829,2,b,1.1398435999999492,correct,b
105,4F4K,106,1,42.3008433869789,57.23635642591074,1.2049934476702946,58.7277862295976,1,n,3.2821965000000546,incorrect,c
106,4F4K,107,2,36.17322082147292,57.5105814997893,1.0608323121587142,58.95553183145661,2,v,2.464392099999941,incorrect,b
107,4F4K,108,1,30.07227389075592,46.18593943564782,0.934436294819508,49.12074855385381,1,c,1.26043790000017,correct,c
108,4F4K,109,1,50.4228493982802,36.61047857951191,1.4267034400459564,40.55354414382354,2,n,1.3277811999998903,correct,n
109,4F4K,110,2,49.278383348392566,62.49761580504545,1.393150868755865,62.96441804836664,2,v,1.0295145000000048,incorrect,b
110,4F4K,111,2,49.44511066888018,38.2961263325093,1.3979893014359026,42.050966709552974,1,v,0.8788871000001564,correct,v
111,4F4K,112,2,49.62488824357759,52.5864989085329,1.4032252830200105,54.77237668355512,2,b,1.2237585000000308,correct,b
112,4F4K,113,2,40.40194717525662,53.21704339866361,1.158339706849802,55.318018527155154,2,v,1.4979577999999947,incorrect,b
113,4F4K,114,1,52.03314812522935,38.08897324386579,1.4752857753122708,41.86643097898055,2,n,1.5585928000000422,correct,n
114,4F4K,115,2,42.98618568827992,30.90474112810083,1.222289111830286,35.58780259883206,1,v,2.1670561999999336,correct,v
115,4F4K,116,1,53.53846137334423,69.27724429149703,1.5221956909051548,67.92242274594722,1,n,1.5250696000000517,incorrect,c
116,4F4K,117,2,65.25443225739832,46.4587955930987,1.9421208383368456,49.36467491497243,1,v,3.5446360999999342,correct,v
117,4F4K,118,1,56.34658534142888,34.41451785317612,1.6137281486320667,38.62043408650644,2,n,2.71322350000014,correct,n
118,4F4K,119,2,58.57547504070813,41.65941495722832,1.6902823410191077,45.06069285003552,1,v,3.273075700000163,correct,v
119,4F4K,120,2,38.75565403507843,50.69815577805419,1.1193565252736946,53.12410568478894,2,v,1.728852599999982,incorrect,b
120,4F4K,121,2,43.7175341606824,59.46694244901129,1.2410197066815996,60.55946845704133,2,b,1.8375840999999582,correct,b
121,4F4K,122,2,43.92652540336208,64.12341568133161,1.246424729269729,64.20994015656457,2,b,1.639022999999952,correct,b
122,4F4K,123,1,56.85771841260794,53.75756835941558,1.6309714775241204,55.78367215632787,2,n,0.9166850000001432,correct,n
123,4F4K,124,1,39.75607012667919,53.40857605133844,1.1428864739410276,55.48324720186388,1,c,0.7019857999998749,correct,c
124,4F4K,125,1,42.83515663117304,56.94747143471444,1.21845645986052,58.487128958232326,1,c,1.133023200000025,correct,c
125,4F4K,126,2,52.91942302466627,71.56408192708395,1.5027267413595269,69.44239537647343,2,b,1.1459052999998676,correct,b
126,4F4K,127,2,46.70141325953473,34.43670102839501,1.3204616460473395,38.63984247219024,1,v,0.7391583999999511,correct,v
127,4F4K,128,1,63.46020420831069,54.010443502046414,1.870995548691552,56.00082824500555,2,n,0.9456210000000738,correct,n
128,4F4K,129,1,29.727467187324265,49.697998399157576,0.9277602985125866,52.243545939227,1,c,0.6181626000000051,correct,c
129,4F4K,130,1,34.31185297997597,48.94506619569339,1.0205561706393858,51.57770307597866,1,c,0.8546159999998508,correct,c
130,4F4K,131,2,50.15496987813614,32.48166666387568,1.4187782278094805,36.94035740104824,1,v,1.1580535999999029,correct,v
131,4F4K,132,1,43.22285617614686,60.279667374032655,1.2283193418293843,61.21438109387015,1,c,2.1913149000001795,correct,c
132,4F4K,133,2,56.46104057664461,40.68548034418581,1.6175734437090743,44.18714816477179,1,v,1.1531354000001102,correct,v
133,4F4K,134,2,44.22777816184712,26.186225090081848,1.254257308683144,31.66286148198997,1,v,2.3551753000001554,correct,v
134,4F4K,135,1,65.60114522554431,49.58081232850641,1.956173531234931,52.14007183906451,2,n,2.635851399999865,correct,n
135,4F4K,136,1,64.05478201301783,56.77581872126075,1.8942719435393676,58.34378051687296,2,n,0.7286526999998841,correct,n
136,4F4K,137,1,65.28038450890764,53.078533356286144,1.9431692098139564,55.19837904521539,2,n,0.841632699999991,correct,n
137,4F4K,138,1,37.58004259287088,55.51529847284024,1.092324327572167,57.28337708304363,1,c,0.7639027000000169,correct,c
138,4F4K,139,1,33.99109133875778,49.11985104440609,1.013771660785409,51.73247967472634,1,c,0.8303602999999384,correct,c
139,4F4K,140,2,46.64239174278501,60.310667022895366,1.3188420138880448,61.23922178420969,2,v,1.782455999999911,incorrect,b
140,4F4K,141,1,40.29866223943376,51.63174759711846,1.1558545526046426,53.94151878072724,1,c,2.531014500000083,correct,c
141,4F4K,142,2,62.56867004922468,67.94324197272977,1.836628835439469,66.99819231817871,2,b,1.012425500000063,correct,b
142,4F4K,143,1,46.20983282121557,70.24054035141783,1.3070324725872164,68.57282113447215,1,c,2.191279900000154,correct,c
143,4F4K,144,1,53.713037230682936,61.90241865639811,1.5277316122949014,62.50035601965975,1,n,1.384144600000127,incorrect,c
144,4F4K,145,1,40.04511609627773,48.81794985550317,1.1497765267885125,51.465062581592456,1,c,1.7042779999997038,correct,c
145,4F4K,146,1,61.97106146693889,54.64009236175338,1.8139464219622488,56.53954095053594,2,n,0.9152808999997433,correct,n
146,4F4K,147,1,69.69797033011484,57.17714503120069,2.130126501199156,58.67852096770596,2,n,0.7992982999999185,correct,n
147,4F4K,148,1,66.6612633242764,80.0815639850356,1.9997752939315452,74.31423163821553,1,n,0.7574986999998146,incorrect,c
148,4F4K,149,2,39.123284464694336,48.2458930507136,1.1279464167523896,50.95740001091267,2,v,1.6799786999999924,incorrect,b
149,4F4K,150,1,39.05629607464179,22.803461251515696,1.1263762988063732,28.987739085366663,2,n,2.1556251000001794,correct,n
150,4F4K,151,2,53.64987277847544,42.2426708825336,1.5257263031681527,45.584220017239474,1,b,3.7949741000002177,incorrect,v
151,4F4K,152,1,62.04433709909047,49.842981892460514,1.8167124823630456,52.37148094085692,2,c,3.5628585999997995,incorrect,n
152,4F4K,153,1,51.20699134943566,61.89817275090224,1.450157642958392,62.4970305286873,1,c,3.9953301000000465,correct,c
153,4F4K,154,1,30.91063696496656,48.60670647059824,0.9508694002680518,51.27773838956581,1,n,1.2553500999997595,incorrect,c
154,4F4K,155,2,40.31122076375862,29.96219686897972,1.1561564401689322,34.7882369424177,1,v,2.5372425000000476,correct,v
155,4F4K,156,2,35.43054291351467,49.93489233392101,1.0445751494771165,52.45253480950724,2,v,1.4861147000001438,incorrect,b
156,4F4K,157,2,60.29452183940501,45.83667273654303,1.7517970625474557,48.80828055787808,1,v,2.458245099999658,correct,v
157,4F4K,158,1,59.47158598254413,50.11093036861503,1.72207452607273,52.60767102198295,2,n,2.5980890000000727,correct,n
158,4F4K,159,2,60.12763841462351,47.90554957014351,1.7457284364908638,50.654819176067626,1,v,2.192814499999713,correct,v
159,4F4K,160,1,59.286518811668486,77.49519697924576,1.7154600926321804,72.97372149264332,1,n,1.667804299999716,incorrect,c
160,4F4K,161,1,64.25902854137316,43.90947277107897,1.902334380231045,47.08064008529088,2,n,3.143860500000301,correct,n
161,4F4K,162,1,44.43322431145016,58.96585390456016,1.2596271243111152,60.15225119483628,1,c,2.122162799999842,correct,c
162,4F4K,163,1,46.58887794998056,64.02237766323532,1.3173752385272377,64.13350613319224,1,c,2.064483999999993,correct,c
163,4F4K,164,2,57.705109729806495,45.297632293125154,1.659965539529812,48.32558072131568,1,v,2.053244100000029,correct,v
164,4F4K,165,1,53.62826856722401,39.72802027025956,1.5250410292299512,43.32967896062463,2,n,2.179189899999983,correct,n
165,4F4K,166,2,50.02253841080557,58.29327114822488,1.414876521538506,59.60170562129823,2,v,1.8559799999998177,incorrect,b
166,4F4K,167,1,59.60243199859087,51.42620503438497,1.7267664409541783,53.76195810689237,2,n,1.8695932999999059,correct,n
167,4F4K,168,2,56.53518469786376,69.31228373057935,1.6200693155619452,67.94633385648729,2,b,2.017674999999599,correct,b
168,4F4K,169,1,56.12563208647224,71.6457313252328,1.6063307304111587,69.49510850335908,1,n,2.5251447000000553,incorrect,c
169,4F4K,170,2,35.176632606891864,46.0616146494347,1.0390744145093485,49.00955135265309,2,v,1.7336324999996577,incorrect,b
170,4F4K,171,1,71.04358541772757,54.68772846181548,2.1905718912939647,56.580178251819966,2,n,3.998305800000253,correct,n
171,4F4K,172,2,40.28734245175004,26.54402538676404,1.155582509907508,31.953147458913083,1,v,1.0663841000000502,correct,v
172,4F4K,173,1,61.779604113870334,39.41760271499116,1.806739015875564,43.05205105945804,2,n,0.9763480000001437,correct,n
173,4F4K,174,1,44.78121064719583,29.54098059486443,1.2687750614818822,34.433233566193174,2,c,2.2701493999998092,incorrect,n
174,4F4K,175,2,43.299843411358246,50.57178627803894,1.230287338720801,53.01311270499116,2,v,1.452278799999931,incorrect,b
175,4F4K,176,2,61.32484219037928,51.43260258876483,1.7897341035509122,53.767550504035626,1,v,2.2034214999998767,correct,v
176,4F4K,177,2,56.93369619675454,39.67084128083502,1.633550308180843,43.278524575859535,1,v,4.193900599999779,correct,v
177,4F4K,178,1,54.75028467244408,66.58117987474058,1.5610411197378569,66.02734702782894,1,n,2.5008569999999963,incorrect,c
178,4F4K,179,1,60.21973715434341,39.598631902821325,1.7490749533944097,43.213933126454734,2,n,1.4700213999999505,correct,n
179,4F4K,180,2,46.012756351173294,65.67687557523253,1.301687096296239,65.36820265419992,2,b,1.3583451999998033,correct,b
180,4F4K,181,1,38.16460514099289,52.72488380019237,1.1056832536299537,54.89234567075019,1,c,1.6799557999997887,correct,c
181,4F4K,182,2,47.49663614834388,57.15434443456365,1.3424785940193775,58.65954189639397,2,v,3.9802725999998074,incorrect,b
182,4F4K,183,2,46.93733402387374,28.014121530569103,1.3269555281176468,33.159245153581395,1,v,1.558597099999588,correct,v
183,4F4K,184,1,50.91592467289957,65.30604821512058,1.4414069834709664,65.09464678898324,1,n,1.1762564000000566,incorrect,c
184,4F4K,185,1,32.703951434268,45.32531185632507,0.9869976419450064,48.35037927802117,1,c,1.6366914999998698,correct,c
185,4F4K,186,2,44.828263153564976,33.02790473291391,1.2700170757706868,37.41284285436638,1,v,2.7936408999999003,correct,v
186,4F4K,187,1,50.63722340558817,63.53669311675953,1.43307756987788,63.76426956283861,1,n,1.1580048000000716,incorrect,c
187,4F4K,188,1,39.42690992440116,52.13487087089023,1.1350904768115515,54.380028766681,1,c,2.9617763000001105,correct,c
188,4F4K,189,1,45.80679134482965,59.91078308313223,1.2961239937909983,60.91799291014936,1,c,1.8150123000000349,correct,c
189,4F4K,190,1,45.49249604801977,58.49080930791333,1.2876806837589851,59.7638633815706,1,c,1.4920858000000408,correct,c
190,4F4K,191,2,20.654811086837977,36.80740821281746,0.768248171188275,40.727951732759394,2,v,2.5493109999997614,incorrect,b
191,4F4K,192,2,75.81828382943127,64.68923914048014,2.4192309721874525,64.63552801974163,1,b,4.097022500000094,incorrect,v
192,4F4K,193,2,69.41886815417482,55.116620262479216,2.117799550153286,56.94527935872237,1,b,1.0066563000000315,incorrect,v
193,4F4K,194,1,45.26519916397408,58.17551338084432,1.2816088141675224,59.5048590885114,1,n,1.8074056000000382,incorrect,c
194,4F4K,195,1,39.30777524178144,21.86028282224455,1.132281956478958,28.265983347468552,2,c,1.0669958999997107,incorrect,n
195,4F4K,196,2,61.08020518973193,39.40926623027177,1.7806526953952853,43.044598039124914,1,v,3.602961499999765,correct,v
196,4F4K,197,2,65.28493241749456,49.38640374914517,1.9433529861542864,51.96828021669245,1,v,2.2223517000002175,correct,v
197,4F4K,198,2,41.36388639027861,27.690226645225053,1.1817432233940632,32.89171792065263,1,v,1.8286800000000767,correct,v
198,4F4K,199,2,59.50377310034744,39.50937153317451,1.7232275175449023,43.13410477243552,1,v,1.695015400000102,correct,v
199,4F4K,200,1,49.06359228136976,60.32038683545904,1.3869422990134634,61.24700833709348,1,n,3.166156300000239,incorrect,c
200,4F4K,201,2,58.71790857913908,41.12082708044031,1.695296077959334,44.57749136049225,1,b,1.6433501000001343,incorrect,v
201,4F4K,202,2,54.62863093755758,38.38482982821476,1.5570971161621434,42.13002445822917,1,v,3.889104100000168,correct,v
202,4F4K,203,2,79.76427700518397,61.51057537019598,2.6261117518755954,62.19257078145642,1,v,2.6161474999998973,correct,v
203,4F4K,204,2,38.713190486863766,19.803352541522493,1.1183685644950123,26.731934157093967,1,v,1.5382686999996622,correct,v
204,4F4K,205,2,36.82363162155046,25.056950360980967,1.075277440571021,30.75552085348461,1,v,1.3052308000001176,correct,v
205,4F4K,206,1,54.25508430747428,36.48747911561487,1.545048931934327,40.4446906541294,2,n,2.852744299999813,correct,n
206,4F4K,207,1,53.754247392740496,40.23377275963318,1.5290413496044568,43.782418326154,2,n,1.6193069000000833,correct,n
207,4F4K,208,2,42.11615025257171,55.63939763709273,1.2003744425127627,57.38836033050488,2,v,3.609737199999927,incorrect,b
208,4F4K,209,2,45.911015107322605,59.24278343800777,1.2989360935001584,60.37761935438339,2,b,1.2673373000002357,correct,b
209,4F4K,210,1,38.42220213004619,53.64719634262624,1.1116218241172156,55.68875036089685,1,c,3.004563599999983,correct,c
210,4F4K,211,2,39.91027534869853,52.85188555481239,1.1465571442725804,55.00233995766121,2,v,2.405907600000319,incorrect,b
211,4F4K,212,2,40.57933715426236,49.58448834591475,1.162620389019341,52.14331863479645,2,b,1.1777735000000575,correct,b
212,4F4K,213,1,65.03693938378915,49.759652550744,1.933357162856432,52.297961671777074,2,n,1.024549499999921,correct,n
213,4F4K,214,2,45.40455250334868,64.85843543655257,1.2853280094015722,64.76197345937047,2,b,1.667859099999987,correct,b
214,4F4K,215,1,62.71175210334521,49.33494002505509,1.842101508710468,51.92277679769198,2,n,2.0274082999999337,correct,n
215,4F4K,216,2,47.12822514816431,60.50299905002903,1.3322333054568756,61.39310823367132,2,b,1.3158516000003146,correct,b
216,4F4K,217,1,54.186039229233,42.6209233024406,1.5428322164869306,45.92381780336744,2,n,1.9493231999999807,correct,n
217,4F4K,218,2,53.30406979844576,39.61188021534199,1.5147945061173391,43.22578295387045,1,v,1.8951161999998476,correct,v
218,4F4K,219,1,60.20688789244458,45.02148554036408,1.748607675432724,48.07811234872533,2,n,0.7590445999999247,correct,n
219,4F4K,220,1,56.08473445359699,64.27550631359982,1.6049652194281818,64.32474620040989,1,c,0.9577629000000343,correct,c
220,4F4K,221,2,48.899743791921566,35.532465004503955,1.382224842433521,39.6017181039833,1,v,1.1827997000000323,correct,v
221,4F4K,222,2,59.116443745826295,42.35984468923597,1.7094038921454575,45.68941505605421,1,v,1.406898799999908,correct,v
222,4F4K,223,1,44.655176553040285,54.52724437325548,1.265454202625929,56.44320506792128,1,c,1.443821299999854,correct,c
223,4F4K,224,1,56.39542162508431,41.560197280100944,1.6153677574086545,44.97165840483149,2,n,1.2733666999997695,correct,n
224,4F4K,225,1,48.65679776347117,60.750332864977885,1.375259561061948,61.59040645519947,1,c,0.848417100000006,correct,c
225,4F4K,226,2,54.96327920575368,67.07590234382936,1.5679704559999998,66.38307420572633,2,b,1.1458723000000646,correct,b
226,4F4K,227,1,55.50015094442679,35.26572587172086,1.5855732500118445,39.36701763793031,2,n,1.3825495000000956,correct,n
227,4F4K,228,1,59.144888641913525,41.007495345350335,1.7104152950666318,44.47585246288762,2,n,1.5889243999999962,correct,n
228,4F4K,229,2,52.9108606462267,66.72661606314983,1.5024592052008952,66.13228415061577,2,v,1.0675062000000253,incorrect,b
229,4F4K,230,1,73.26467849031184,60.43955731577898,2.294119200801777,61.342392524993016,2,n,2.5979152999998405,correct,n
230,4F4K,231,2,46.77846529774898,58.40685256137484,1.3225790543391964,59.69499028271397,2,b,0.977515499999754,correct,b
231,4F4K,232,2,50.971040509592285,61.79967385519851,1.4430599293681114,62.41982471602288,2,b,0.9386368999998922,correct,b
232,4F4K,233,2,65.49245613192588,53.02969846438913,1.9517573247275388,55.15616741934233,1,v,0.9277756999999838,correct,v
233,4F4K,234,2,52.047320131239495,58.84020893915948,1.4757206040042914,60.04974462659792,2,b,0.8060281999996732,correct,b
234,4F4K,235,2,48.36700056677186,62.064775758079286,1.3669969433206313,62.62735893253031,2,b,0.7400588000000425,correct,b
235,4F4K,236,2,48.20351484735716,66.19029863325967,1.3623576046237826,65.7438337942409,2,b,0.8307429000001321,correct,b
236,4F4K,237,1,47.05897999255476,51.59919768060491,1.3303163864547218,53.91309910006403,1,c,2.597841100000096,correct,c
237,4F4K,238,2,35.340090927909955,49.45253896447608,1.04261225866111,52.02673954587224,2,v,0.9775177000001349,incorrect,b
238,4F4K,239,1,59.570686628223584,77.55394626463075,1.7256269329581475,73.00556050441877,1,n,1.0002893999999287,incorrect,c
239,4F4K,240,2,69.4631520084003,52.561659117100206,2.1197506385980303,54.750829829955286,1,b,1.084380699999656,incorrect,v
240,4F4K,241,1,43.48983257876112,54.964910248427465,1.2351574656339877,56.81629499835973,1,n,3.4778086999999687,incorrect,c
241,4F4K,242,2,59.23275779301495,49.88138736990047,1.7135434016850593,52.40535457155067,1,b,2.142722699999922,incorrect,v
242,4F4K,243,1,45.76184697722522,33.732915033213345,1.2949132127501966,38.0254239571612,2,c,2.7680092000000514,incorrect,n
243,4F4K,244,1,57.38960970930393,48.947698347012576,1.6491107518218238,51.58003481460318,2,n,2.2140079999999216,correct,n
244,4F4K,245,1,39.20801635048093,57.1239376722162,1.1299355538430675,58.63422421432978,1,c,0.7775490999997601,correct,c
245,4F4K,246,2,60.58141862496753,46.69605510712129,1.7622792592228402,49.57663805078531,1,v,0.9641258000001471,correct,v
246,4F4K,247,2,41.498525992755845,60.50582380068914,1.185056447078765,61.39536533332357,2,b,0.7575147000002289,correct,b
247,4F4K,248,2,29.109130265146423,42.01338502655669,0.9159075627717632,45.37839103385453,2,b,1.2129473999998481,correct,b
248,4F4K,249,2,31.778510265135758,47.5753263350799,0.968185442928898,50.36087397286541,2,b,1.4008440000002338,correct,b
249,4F4K,250,2,44.25348590005838,59.354340224757706,1.2549279855272035,60.4681844929488,2,v,0.6966996000001018,incorrect,b
250,4F4K,251,1,51.53884109987035,42.4067568829137,1.460199238843601,45.73153268110034,2,n,2.3240701999998237,correct,n
251,4F4K,252,1,49.40426139631481,63.36487534296048,1.396802302168433,63.63293204335992,1,c,0.8537937000000966,correct,c
252,4F4K,253,1,56.66228619169783,47.54550895936297,1.624356824258531,50.33431557553913,2,n,1.0232511999997769,correct,n
253,4F4K,254,2,42.90440850057763,26.91839116121413,1.220212364687811,32.25826870449737,1,v,2.068819600000097,correct,v
254,4F4K,255,1,76.0686271006474,57.47522041626313,2.4318577016476937,58.92620291639932,2,n,2.0904232999996566,correct,n
255,4F4K,256,1,61.38994404069754,48.01715346783506,1.7921586056194725,50.75408302575564,2,n,1.5332412000002478,correct,n
256,4F4K,257,2,42.02331093161244,51.39981751954824,1.1980593077967276,53.73888918504835,2,b,2.0805316999999377,correct,b
257,4F4K,258,1,67.79691895018802,51.70947418054959,2.0475626121235835,54.00935851105539,2,n,2.0396043000000645,correct,n
258,4F4K,259,1,55.25451039206897,35.879557812680986,1.5774948680085357,39.907621565070365,2,n,1.0259141000001364,correct,n
259,4F4K,260,1,61.96443996520622,68.37968555850841,1.8136966764060924,67.30352538581803,1,c,0.6848624000003838,correct,c
260,4F4K,261,2,46.37137118095611,61.03298974360669,1.3114303020516038,61.81505126633064,2,b,1.6920866999998907,correct,b
261,4F4K,262,2,44.38334964517216,58.51463741670703,1.2583214239163778,59.78339797686979,2,b,1.1701099000001705,correct,b
262,4F4K,263,1,51.9884807468427,41.184881565081405,1.4739161188317955,44.63494357706334,2,n,1.7952857000000222,correct,n
263,4F4K,264,2,35.95925247021386,54.890408537641726,1.0561227862506204,56.75288842261984,2,b,2.044683199999781,correct,b
264,4F4K,265,2,53.43167355329918,65.0799815468402,1.518819268145446,64.9269658892543,2,v,2.241363099999944,incorrect,b
265,4F4K,266,1,48.19947908472493,41.72086393237947,1.362243278566154,45.11583887096414,2,n,2.300516400000106,correct,n
266,4F4K,267,2,55.29753122507013,65.57609726813278,1.5789067154104484,65.29404484749695,2,b,1.1095157999998264,correct,b
267,4F4K,268,1,34.09829914172136,58.667453733489175,1.0160342069010948,59.90854608241702,1,n,3.187550999999985,incorrect,c
268,4F4K,269,2,39.246559096917146,62.5801185157395,1.130841530686237,63.02840945688813,2,b,1.886326100000133,correct,b
269,4F4K,270,2,49.638021046375925,35.014437213392334,1.4036085406782872,39.14622972423356,1,v,1.1641177999999854,correct,v
270,4F4K,271,1,39.65114358048482,48.38075286820543,1.1403955441778326,51.07718631547817,1,n,0.9640247000002091,incorrect,c
271,4F4K,272,1,53.45497456664824,44.505835532961726,1.5195553614057435,47.61573756430632,2,n,0.5997835000002851,correct,n
272,4F4K,273,1,62.3301895072824,53.31367544977555,1.8275434226842493,55.40141033000893,2,n,0.690811400000257,correct,n
273,4F4K,274,1,49.18525276987721,36.53974495850806,1.3904555091964688,40.49093795553397,2,n,0.8066039000000274,correct,n
274,4F4K,275,1,44.26423549325381,24.425055789626224,1.2552085328247284,30.253896995548107,2,n,0.611843300000146,correct,n
275,4F4K,276,2,60.50656264904343,51.571074150640186,1.7595382534014563,53.88853935558826,1,b,1.6126364000001558,incorrect,v
276,4F4K,277,1,59.97831290202556,39.49248269776032,1.7403161183251408,43.119002486827966,2,n,0.8727945000000545,correct,n
277,4F4K,278,2,44.16167493552102,59.33699844180619,1.2525344186393477,60.45411430216596,2,v,0.9577543000000333,incorrect,b
278,4F4K,279,2,28.81861470765152,43.83518715432872,0.9103911518814988,47.01396612264367,2,v,1.9409239000001435,incorrect,b
279,4F4K,280,1,48.75469132292922,34.372060802352124,1.37806194488357,38.58329523863431,2,n,1.055268900000101,correct,n
280,4F4K,281,2,54.134480263613405,37.24928791125712,1.54117897300354,41.11983940457417,1,b,4.168119000000388,incorrect,v
281,4F4K,282,1,65.11854998386747,54.243125923554274,1.936640941994316,56.20024239457126,2,n,0.8853173000002243,correct,n
282,4F4K,283,1,72.12196032938942,63.91255278571555,2.240248558222694,64.05027611539747,2,n,1.4251380999999128,correct,n
283,4F4K,284,2,69.13292698907208,51.0142649242646,2.1052445206772625,53.40139535724081,1,b,0.8424629999999524,incorrect,v
284,4F4K,285,1,64.0718121630829,53.30516099998651,1.894942884673667,55.394065004186736,2,n,1.2612263000000894,correct,n
285,4F4K,286,2,52.92270298006953,71.18206166845616,1.5028292379643982,69.19431281821062,2,v,1.0305859000000055,incorrect,b
286,4F4K,287,1,58.26595804269751,51.796020345058864,1.6794382384761446,54.08485556555837,2,n,2.4035908999999265,correct,n
287,4F4K,288,1,44.33044274480663,54.20002102972056,1.2569378201086807,56.1633299241298,1,n,1.4938531000002513,incorrect,c
288,4F4K,289,2,42.3634389765502,63.32570708909544,1.2065629349974816,63.6029400405104,2,b,1.3583294000000024,correct,b
289,4F4K,290,2,41.463987838372816,56.029349453908566,1.1842056442336006,57.71742741634964,2,b,1.6740858000002845,correct,b
290,4F4K,291,2,54.2689275854763,65.03845899803483,1.545493758180987,64.89609265104643,2,v,1.0610346999997091,incorrect,b
291,4F4K,292,1,60.91174856061085,46.03313900137608,1.7744260575374602,48.98407791485986,2,n,0.8259124000001066,correct,n
292,4F4K,293,1,51.78221625862029,65.28013582701217,1.4676078106251218,65.0754616818895,1,c,1.3340530999998919,correct,c
293,4F4K,294,1,40.200254742342366,55.64999115339841,1.1534917153410216,57.39731628372031,1,n,1.091392800000449,incorrect,c
294,4F4K,295,2,45.18214545845456,54.70016390116424,1.279397317729796,56.59078384123835,2,b,0.6301714999999604,correct,b
295,4F4K,296,1,45.46828595877294,31.543794240395115,1.287032583832353,36.13378683987936,2,c,0.7271660999999767,incorrect,n
296,4F4K,297,2,61.91506996060029,76.61917966831584,1.8118356538713472,72.49144041854983,2,v,1.2615886999997201,incorrect,b
297,4F4K,298,1,32.42681123593955,49.23779645653284,0.9813259642579242,51.83685387734096,1,n,2.4340125999997326,incorrect,c
298,4F4K,299,2,53.58693978357665,40.8232341552056,1.523730959950534,44.31063547470689,1,b,0.7772549999999683,incorrect,v
299,4F4K,300,2,61.52447228780415,49.56932715012869,1.7971790740248028,52.12992732361497,1,b,2.8649100000002363,incorrect,v
300,4F4K,301,2,31.4671412943213,46.423837068572745,0.9619369485552746,49.3334323241718,2,v,1.251984700000321,incorrect,b
301,4F4K,302,1,49.09377862783435,61.65492226233984,1.3878131662935134,62.306159715174594,1,n,0.030742599999939557,incorrect,c
302,4F4K,303,1,46.46895054715349,27.82846742847589,1.3140940345682413,33.005779537761,2,n,1.0487875999997414,correct,n
303,4F4K,304,2,59.15671295176649,49.67205586289924,1.710835903021542,52.22064412975595,1,b,1.7830941000001985,incorrect,v
304,4F4K,305,1,50.80058308762748,70.19119124615973,1.4379539678847313,68.53985557100059,1,n,1.2612382000002071,incorrect,c
305,4F4K,306,1,44.953821091053975,33.20261202739573,1.2733373008290632,37.56436242774102,2,c,1.5758864999997968,incorrect,n
306,4F4K,307,1,55.31381427356639,47.97711162542755,1.5794414181772671,50.718473345645705,2,n,1.1095942000001742,correct,n
307,4F4K,308,2,50.48678597734113,38.385240396200885,1.4286015377074972,42.13039043375607,1,b,1.936406100000113,incorrect,v
308,4F4K,309,2,54.69483675354147,69.80883503779955,1.5592422655514582,68.28313698209467,2,b,2.215558500000043,correct,b
309,4F4K,310,1,30.02788909391572,47.60977289367188,0.9335742492008272,50.39155221277322,1,n,1.9197060999999849,incorrect,c
310,4F4K,311,1,60.38738450960685,53.452344489832605,1.755183094570588,55.52097018741235,2,n,0.5041234000000259,correct,n
311,4F4K,312,2,49.9011566760486,32.89822660469889,1.4113097883912018,37.300500028343066,1,b,0.8257777000003443,incorrect,v
312,4F4K,313,2,45.78004956733082,63.95693427831577,1.2954034459992585,64.08392894587404,2,b,1.0063270000000557,correct,b
313,4F4K,314,1,68.9076116923438,50.408227160112105,2.095403889932157,52.86933776874509,2,n,1.7103491000002577,correct,n
314,4F4K,315,1,40.99428364478848,54.23110413947933,1.1726955446619582,56.18994900604389,1,c,2.367314300000089,correct,c
315,4F4K,316,1,71.99111512759866,59.91833202541065,2.2341614638839773,60.92407284051006,2,n,0.795445700000073,correct,n
316,4F4K,317,1,67.23138869987365,52.31101334725053,2.0236245700484097,54.533198494359816,2,n,1.0670082999999977,correct,n
317,4F4K,318,1,31.12545514238066,45.87762655003694,0.9551264524807496,48.84493220699029,1,c,0.690820000000258,correct,c
318,4F4K,319,1,50.42642198816732,63.03055713554744,1.426809433664931,63.37632324509431,1,n,0.8303415000000314,incorrect,c
319,4F4K,320,1,56.57476487985855,37.366721299196655,1.621403257214369,41.224108253360114,2,n,0.9699237000004359,correct,n
320,4F4K,321,1,55.198501467218826,64.62742463084209,1.5756586720554973,64.58923779774706,1,n,1.830836200000249,incorrect,c
321,4F4K,322,2,39.22447896197876,29.434229213984505,1.130322431329405,34.343498560778336,1,v,3.526440299999649,correct,v
322,4F4K,323,2,49.35317206410237,52.39959314805162,1.395319165360868,54.6101547770664,2,b,0.9759690000000774,correct,b
323,4F4K,324,1,64.45232800169211,53.56577814189774,1.9099962954219265,55.618675514123126,2,n,1.99108810000007,correct,n
324,4F4K,325,2,50.29953563942564,64.21892653419769,1.423049720048335,64.28207178974611,2,b,2.3855247000001327,correct,b
325,4F4K,326,2,45.91474003373394,35.35144423362013,1.299036709956503,39.4424028268869,1,v,0.7908910000001015,correct,v
326,4F4K,327,2,37.13651200205676,57.17544131183052,1.082296180378232,58.67710296463303,2,v,1.1036579999999958,incorrect,b
327,4F4K,328,2,50.81387767596038,38.70878149494982,1.4383515498038129,42.41893925415528,1,v,0.9577701999996862,correct,v
328,4F4K,329,2,69.58671557810666,54.3520079899742,2.1252041974168465,56.29342239519925,1,v,2.391545600000427,correct,v
329,4F4K,330,2,46.4046211691245,63.19772473437242,1.3123373569489003,63.504807693587445,2,b,0.7709912000000259,correct,b
330,4F4K,331,2,63.86896901004312,55.18561990674306,1.886966839834868,57.00388392052192,1,v,1.3582014999997227,correct,v
331,4F4K,332,2,74.65383250699593,61.0691545196899,2.361355043045683,61.84372910051513,1,v,1.789083799999844,correct,v
332,4F4K,333,1,60.15668898629239,43.62556240361192,1.7467833315739714,46.82580249369445,2,n,0.7394572000002881,correct,n
333,4F4K,334,2,68.09955151009714,51.33946807364826,2.0604886908571483,53.68611516911236,1,v,1.2369582000001174,correct,v
334,4F4K,335,2,31.201446985441457,45.66526047932949,0.9566369421147682,48.65484037321452,2,v,1.1342323999997461,incorrect,b
335,4F4K,336,2,50.38443940964077,34.32298118958272,1.4255643680469243,38.54037562385762,1,v,0.5754268000000593,correct,v
336,4F4K,337,1,44.641391223464176,59.043490415578205,1.2650915022077434,60.21551102191031,1,c,2.191258800000014,correct,c
337,4F4K,338,1,61.719442871203874,43.22456905777782,1.8044801663018624,46.46580635949865,2,n,0.6603955000000497,correct,n
338,4F4K,339,2,36.44355015458888,49.74381404491394,1.0668124040669833,52.28398427205413,2,v,1.8863031000000774,incorrect,b
339,4F4K,340,1,62.990602651812026,49.75329078984296,1.8528140256375016,52.292347584585,2,n,0.7757010999998784,correct,n
340,4F4K,341,1,52.39439362882284,36.49635884589697,1.4864096868878989,40.4525470721296,2,n,0.9823054999997112,correct,n
341,4F4K,342,1,22.72572856589407,40.95414511950996,0.802054322105057,44.42801184711989,1,n,1.0727861000000303,incorrect,c
342,4F4K,343,1,31.387161113091736,48.34702421090765,0.960338441307466,51.04723359478431,1,n,0.8660325999999259,incorrect,c
343,4F4K,344,2,47.99500122949991,58.02402954972551,1.356463320490623,59.38007967096174,2,b,1.4130752999999459,correct,b
344,4F4K,345,2,39.80153034266735,25.872730925400973,1.14396737661926,31.40961391379204,1,v,0.6907515999996576,correct,v
345,4F4K,346,1,52.72005184049359,39.89802424036071,1.49650962237001,43.48180933720506,2,n,2.8588442999998733,correct,n
346,4F4K,347,1,47.870322541254126,65.37692683668897,1.3529510808833105,65.14707776440504,1,c,2.238194999999905,correct,c
347,4F4K,348,1,46.61226073764343,34.4114080467383,1.3180159434869525,38.61771348436943,2,n,1.214343899999676,correct,n
348,4F4K,349,1,48.65173546888251,39.98986917345494,1.3751147986052583,43.56402130101781,2,n,1.286174200000005,correct,n
349,4F4K,350,2,34.52287722067848,50.963759396423136,1.0250443395475812,53.35712677005334,2,v,0.878899100000126,incorrect,b
350,4F4K,351,1,43.80811192820544,59.67599087625308,1.24335938456426,60.72859027289277,1,c,1.4372103999999126,correct,c
351,4F4K,352,2,50.81010260291487,65.94027822639505,1.438238643010071,65.56136911052087,2,b,0.93288849999999,correct,b
352,4F4K,353,1,63.45030592477687,47.24014748147817,1.870610483142064,50.06217726173843,2,n,3.453566099999989,correct,n
353,4F4K,354,2,45.19358181997959,57.425593669760126,1.279701610524403,58.88502249244909,2,b,1.6435810000002675,correct,b
354,4F4K,355,2,36.9520952299962,18.66234714243458,1.0781536967661425,25.905907631737644,1,v,1.048843300000044,correct,v
355,4F4K,356,2,40.89918501432977,46.00301793429927,1.1703788067206395,48.95713071955189,2,v,1.710310500000105,incorrect,b
356,4F4K,357,1,40.13573815256523,53.23311323325746,1.151945246016233,55.3318908201306,1,n,1.4310406999998122,incorrect,c
357,4F4K,358,1,67.31600895968914,49.35759498401646,2.027188532899961,51.94280932670995,2,n,0.7089461000000483,correct,n
358,4F4K,359,1,45.00010869708139,56.08239249651695,1.274563508202045,57.76209146433983,1,n,1.5093474000000242,incorrect,c
359,4F4K,360,1,41.12511866776024,55.10418198070021,1.1758903685193012,56.93471100594284,1,n,0.7575009000001955,incorrect,c
360,4F4K,361,1,43.471333348849136,56.60489857200827,1.234682415807577,58.20078665403695,1,n,1.6676245000003291,incorrect,c
361,4F4K,362,2,50.057560772741375,31.20286045472741,1.4159073083159557,35.8421285989995,1,b,1.4265894000000117,incorrect,v
362,4F4K,363,2,34.74341017630682,47.06030645254468,1.029755837986817,49.9017778806496,2,v,1.0062957999998616,incorrect,b
363,4F4K,364,1,48.96352271929924,35.635425840103984,1.3840592280796016,39.692402524110726,2,n,1.0852174999999988,correct,n
364,4F4K,365,2,75.56783507749476,62.81870508201153,2.406664524621083,63.2129997223494,1,v,5.0,correct,v
365,4F4K,366,1,29.06984581059451,46.826409186680415,0.9151596659056108,49.69303487869143,1,n,4.794866000000184,incorrect,c
366,4F4K,367,2,50.370567105086174,46.78098681847608,1.4251531998418725,49.65248085278073,1,b,1.0973837999999887,incorrect,v
367,4F4K,368,2,52.10801237348453,37.16611034509368,1.4775842272583846,41.04601639703732,1,b,1.2553003000002718,incorrect,v
368,4F4K,369,2,29.785421880165945,44.381591348091234,0.9288790479395508,47.50428398527031,2,b,2.9449091999999837,correct,b
369,4F4K,370,2,50.43448173798917,31.395453079286472,1.4270485838069449,36.00678118210908,1,b,0.671607799999947,incorrect,v
370,4F4K,371,2,62.20654741554901,44.35356041211278,1.822850724920957,47.47913660355092,1,v,0.6968098000002101,correct,v
371,4F4K,372,1,35.655157600490604,46.86454935249397,1.0494654909687335,49.72708311042554,1,c,2.695052300000043,correct,c
372,4F4K,373,1,40.9603162957434,52.78792686513975,1.1718675257119917,54.94695912317256,1,c,2.74355259999993,correct,c
373,4F4K,374,1,72.31679231420536,57.89399876768287,2.249343150381954,59.27279709312485,2,c,1.473516799999743,incorrect,n
374,4F4K,375,2,48.62170688284162,43.33766449660301,1.3742564079737047,46.56734471198985,1,v,1.5584454999998343,correct,v
375,4F4K,376,2,60.19504578582419,51.01102493136204,1.7481771343568568,53.39855587260304,1,v,1.6939962999999807,correct,v
376,4F4K,377,2,47.635849101004496,61.10063378812946,1.346370501350545,61.86867944679721,2,b,2.0699282999999014,correct,b
377,4F4K,378,2,61.251176605914594,55.00825912937091,1.7869946289541114,56.85316852698721,1,v,1.4023502000000008,correct,v
378,4F4K,379,1,48.72532651558794,61.31879210042314,1.377220724044064,62.04128282843708,1,n,1.5949654999999439,incorrect,c
379,4F4K,380,1,48.946017772369736,61.0763495540012,1.383555515091487,61.84943284125095,1,c,1.0428133999998863,correct,c
380,4F4K,381,1,46.563135224000185,59.90597023240152,1.3166702297710289,60.914116316737406,1,n,2.5848801000001913,incorrect,c
381,4F4K,382,1,60.86736286157044,50.21338853013525,1.7727890628110212,52.69789739628144,2,n,2.1183169000000817,correct,n
382,4F4K,383,2,55.91869492507593,48.15208918341729,1.5994333196262775,50.87404331104543,1,v,3.8344662999998036,correct,v
383,4F4K,384,2,65.3444375245382,72.77534695669173,1.945759128789612,70.21305130667686,2,b,1.8006262999997489,correct,b
384,4F4K,385,2,53.65871273156375,65.31854223002892,1.5260067904840309,65.10389391007979,2,b,0.8200271000000612,correct,b
385,4F4K,386,1,33.72602814288443,54.91369441237931,1.0081992905656327,56.772711031753694,1,n,3.0106031999998777,incorrect,c
386,4F4K,387,2,47.96899912096551,36.88489195586514,1.3557300808578043,40.79661577378493,1,v,3.0945393000001786,correct,v
387,4F4K,388,2,62.782613459264496,51.94784313923405,1.8448178838206943,54.217191521957766,1,b,2.690451100000246,incorrect,v
388,4F4K,389,2,68.53720216340572,51.39272875413137,2.0793261455343663,53.732691277836736,1,v,3.011961600000177,correct,v
389,4F4K,390,2,68.44852323065695,46.74491167124671,2.0754953460155794,49.62026847953963,1,v,0.6786034000001564,correct,v
390,4F4K,391,2,68.49082624699793,54.999415137037694,2.077321892990672,56.84564680558925,1,v,0.7210344999998597,correct,v
391,4F4K,392,1,31.16320867346911,49.13313130449437,0.9558765809557496,51.7442346906628,1,c,1.3340483000001768,correct,c
392,4F4K,393,1,57.98500415922874,72.23421162001573,1.6696551095486043,69.87177881198143,1,n,0.9893126000001757,incorrect,c
393,4F4K,394,1,46.31040251010842,63.09427907977989,1.3097687139048202,63.42534049324408,1,c,2.6221855000003416,correct,c
394,4F4K,395,1,52.75696614636249,60.55545497237382,1.497658801237882,61.43500855625329,1,c,0.8363951999999699,correct,c
395,4F4K,396,2,63.28361453945024,73.52547564966831,1.8641377043331333,70.6779372827449,2,b,4.307842900000196,correct,b
396,4F4K,397,1,49.0861523635168,52.8245196033694,1.3875930991851693,54.978647398544425,1,n,2.71929450000016,incorrect,c
397,4F4K,398,1,62.4084008806001,48.14157818532557,1.8305180840952304,50.86470106223942,2,n,1.0669702000000143,correct,n
398,4F4K,399,1,57.18032943334785,62.36497753014991,1.6419496444354074,62.86136837196885,1,c,1.3098009000000275,correct,c
399,4F4K,400,1,51.94955394433751,37.779384499211226,1.4727235252832651,41.59089222085212,2,n,1.0065599999998085,correct,n
