,condition,trial,sub_task,x,y,xt,yt,cat,resp,rt,acc,correct_resp
0,4F4K,1,1,52.2007105145259,64.41865782066316,1.4804351708746324,64.11467831840046,1,n,4.040783500000089,incorrect,c
1,4F4K,2,1,62.924986100069134,53.19954315659399,1.8502876629727476,55.12110436644364,2,n,3.4900155999998788,correct,n
2,4F4K,3,2,26.47243267226302,35.96987402027249,0.867041516180865,40.03373258937379,2,v,0.8424804999999651,incorrect,b
3,4F4K,4,2,47.026433863220966,58.71321766138569,1.3294163625381843,59.69498476610287,2,b,0.6665901000001213,correct,b
4,4F4K,5,1,41.087325214578215,35.90971145644323,1.1749666078216277,39.98143662352494,2,n,1.5222016999996413,correct,n
5,4F4K,6,1,67.2280835849686,48.41132967914992,2.0234854952951014,50.98509711924666,2,n,2.870880500000112,correct,n
6,4F4K,7,2,52.99108725231789,41.48079222869601,1.5049677977868587,44.873618424197424,1,b,1.086170200000197,incorrect,v
7,4F4K,8,2,56.40793020921465,66.0860300764931,1.6157879832572952,65.33158428884573,2,v,1.1937238000000434,incorrect,b
8,4F4K,9,1,57.52220117508836,71.65156770390598,1.6536638913412085,69.10552490659866,1,n,3.3746101000001545,incorrect,c
9,4F4K,10,1,38.61690931252932,55.53037692181428,1.1161317067509584,57.08463191738648,1,c,1.8497954000004029,correct,c
10,4F4K,11,1,36.131617126079945,42.28961158736703,1.0599149569791328,45.58875282303307,1,c,1.273626400000012,correct,c
11,4F4K,12,1,49.64541487022227,57.563872957424095,1.4038243624256086,58.76281702438668,1,c,0.994207500000357,correct,c
12,4F4K,13,2,65.51051991588687,53.01942013561886,1.952490592896688,54.96779511468005,1,v,1.0609625999995842,correct,v
13,4F4K,14,2,61.93297051111564,44.42039253262197,1.8125102016810144,47.47298101575514,1,v,0.8842445000000225,correct,v
14,4F4K,15,1,55.70524069760818,40.50277257693357,1.5923497179848771,44.00968228673378,2,c,1.6123868999998194,incorrect,n
15,4F4K,16,1,55.649341298404,42.55336596531711,1.5904998534564243,45.8220244777157,2,c,1.4797189999999318,incorrect,n
16,4F4K,17,2,52.80029171737575,44.94538994708269,1.4990086948530623,47.936772850413774,1,v,3.2533079999998336,correct,v
17,4F4K,18,2,59.04421720228102,75.71572358588638,1.7068384504934129,71.54917328529928,2,v,3.586906900000031,incorrect,b
18,4F4K,19,1,52.28040461969474,66.1229145111469,1.4828905706565167,65.35808163849742,1,c,1.4750604000000749,correct,c
19,4F4K,20,2,55.37986302639191,43.20457080197805,1.5816121847913478,46.39800128030122,1,b,1.0791724999999133,incorrect,v
20,4F4K,21,1,62.99611653421948,48.77250332712023,1.8530264776958512,51.30076178722653,2,c,3.22228159999986,incorrect,n
21,4F4K,22,2,53.16312917445242,75.18746335529134,1.5103614791611593,71.24755485988392,2,v,5.0,incorrect,b
22,4F4K,23,2,46.76062975055194,55.986958779478414,1.3220886274639905,57.46446283227259,2,b,1.1338058000001183,correct,b
23,4F4K,24,1,52.32595925764764,42.71697857849748,1.4842959518406793,45.96673552740654,2,c,2.6039599999999155,incorrect,n
24,4F4K,25,1,46.85983389265386,55.438236054604936,1.3248187687298263,57.00777784517514,1,c,1.9378853999996863,correct,c
25,4F4K,26,2,36.2767490340006,57.26805673930229,1.0631185411695432,58.52091426288085,2,v,2.586654400000043,incorrect,b
26,4F4K,27,2,29.79844011941865,40.66995485955738,0.9291305357362876,44.157277737419165,2,b,1.3283050999998522,correct,b
27,4F4K,28,1,32.38409566150884,40.07032405358383,0.9804546929934131,43.62810114140645,1,n,0.9699224999999387,incorrect,c
28,4F4K,29,1,25.165479202341544,36.11847544065486,0.8437949603590013,40.162971088321335,1,c,1.6123697000002721,correct,c
29,4F4K,30,2,55.44525825736733,44.76169014348139,1.5837644120040215,47.774526357404014,1,v,1.0851846000000478,correct,v
30,4F4K,31,2,31.00628987598672,42.770073505106005,0.9527626058073227,46.01369724352324,2,b,1.510049600000002,correct,b
31,4F4K,32,2,39.68699096971768,26.84749592857896,1.1412459410146982,32.36283919636595,1,v,2.3672789000002012,correct,v
32,4F4K,33,1,44.72238167278434,55.95272525797839,1.2672238999905925,57.43604242961709,1,c,1.1752919999998994,correct,c
33,4F4K,34,1,50.82102392939652,31.96786036809378,1.4385653078367882,36.59615212004376,2,c,0.8788724000000911,incorrect,n
34,4F4K,35,1,52.03132300607033,33.88214876946477,1.4752297859070969,38.22919313690828,2,n,1.1034280000003491,correct,n
35,4F4K,36,1,75.21181168359138,65.18292106027404,2.3889130598875243,64.67704600129768,2,n,0.8910237000000052,correct,n
36,4F4K,37,2,53.00472430294818,38.23298860298178,1.5053946287877435,42.01121790737182,1,b,2.555398999999852,incorrect,v
37,4F4K,38,1,52.36943088522287,31.564109879338176,1.4856383131558557,36.25478016635172,2,n,1.711834600000202,correct,n
38,4F4K,39,2,52.45880843316306,74.45758957480918,1.4884020194314749,70.82280239956272,2,v,0.7453959999998006,incorrect,b
39,4F4K,40,1,73.58590683862784,57.72043967260605,2.3094946516101618,58.89052716134089,2,n,1.7164085999997951,correct,n
40,4F4K,41,2,55.9713519023311,46.490970523473415,1.60118561200273,49.29968324277572,1,v,1.5280446000001575,correct,v
41,4F4K,42,1,30.842311914906333,47.65326088805256,0.9495193838063226,50.32108275866183,1,c,0.9870702000002893,correct,c
42,4F4K,43,1,68.24933778486934,55.95046864817338,2.066916537383422,57.434168673165374,2,c,0.9754383999998026,incorrect,n
43,4F4K,44,2,58.33708162338273,51.40767973617873,1.6819239204363068,53.58716197694447,1,v,0.6543627999999444,correct,v
44,4F4K,45,1,49.21952030772795,58.52718478207428,1.3914466639236869,59.544957144588906,1,c,1.5273149999998168,correct,c
45,4F4K,46,1,28.667694313082507,41.573501065685726,0.90753854857933,44.95556603294583,1,n,3.114566300000206,incorrect,c
46,4F4K,47,2,26.32516379028619,38.951473605001325,0.8643903754435855,42.64252821974707,2,b,1.624432600000091,correct,b
47,4F4K,48,1,60.14653866894537,47.65682978362612,1.7464146770710396,50.32421318904318,2,n,1.849881500000265,correct,n
48,4F4K,49,1,68.3156474606312,54.97382827154835,2.0697685143425937,56.61941187726946,2,c,1.091301200000089,incorrect,n
49,4F4K,50,2,72.84400083490111,58.67088218227087,2.274138350034759,59.66087259907257,1,v,2.858727799999997,correct,v
50,4F4K,51,1,57.66725371430085,49.979369126071234,1.658659339277976,52.35183005937858,2,c,2.2944609999999557,incorrect,n
51,4F4K,52,2,32.16946151318646,45.84479891405233,0.9760884866572002,48.73042059120141,2,b,4.550593899999967,correct,b
52,4F4K,53,2,61.51594859888425,50.87617607195815,1.796860561017551,53.12866237316581,1,v,4.568851800000175,correct,v
53,4F4K,54,2,54.40300927480398,41.088940164371614,1.549808839893088,44.5273403751634,1,v,0.7817761999999675,correct,v
54,4F4K,55,2,49.85303044239244,63.48457451935865,1.409898116877176,63.41716880440045,2,b,2.2461002999998527,correct,b
55,4F4K,56,2,52.21936238956562,69.13704296733125,1.481009476184168,67.45813161948772,2,v,3.2594168000000536,incorrect,b
56,4F4K,57,2,25.585393354612204,33.89196389927672,0.8511951293222474,38.23762348105059,2,b,3.1987638000000516,correct,b
57,4F4K,58,1,46.493681102548905,29.272078779490425,1.3147699909984212,34.339933736470215,2,n,3.6711631000002853,correct,n
58,4F4K,59,1,43.71818448309638,58.8100247018398,1.241036489196939,59.77292194722857,1,c,3.186600300000009,correct,c
59,4F4K,60,1,66.88194228185492,44.35434762237248,2.008973130404332,47.41461438573667,2,n,1.8407760000000053,correct,n
60,4F4K,61,1,53.48676228727301,69.06647267442018,1.5205601302826637,67.41048527350938,1,n,1.5586035999999694,incorrect,c
61,4F4K,62,1,39.76662648537646,50.34758690769928,1.143137380269268,52.67125336748437,1,c,1.0901702999999543,correct,c
62,4F4K,63,2,39.65070525789164,44.18335476540635,1.1403851499051696,47.26348195469465,2,b,4.6173329999996895,correct,b
63,4F4K,64,2,58.23469502990129,40.88189660394879,1.6783467970779844,44.34444446267903,1,v,2.062420799999927,correct,v
64,4F4K,65,2,49.19429600502621,34.98625771519911,1.3907170072567234,39.180815098313616,1,b,1.8877888000001803,incorrect,v
65,4F4K,66,2,52.74462261292605,42.68242810084972,1.4972744366565482,45.93617624538926,1,v,0.9992401999998037,correct,v
66,4F4K,67,2,37.6154827935889,44.99031136557164,1.0931296217014352,47.97644143777663,2,b,1.0366715000000113,correct,b
67,4F4K,68,1,61.07181407868995,39.985126771480274,1.7803420195301496,43.55296293458745,2,n,3.623540300000059,correct,n
68,4F4K,69,2,42.97579736493335,55.644904627909234,1.2220251025393298,57.18006494183067,2,b,3.0348637000001872,correct,b
69,4F4K,70,2,38.82754418285916,51.06383669693825,1.1210311179373948,53.290715810710616,2,b,2.4773826999999073,correct,b
70,4F4K,71,2,41.26098460270637,50.179060103338216,1.179217253381024,52.52513700266745,2,b,1.3583063999999467,correct,b
71,4F4K,72,2,53.95871577419552,35.73533760565452,1.5355563687895597,39.829953848364894,1,v,0.7817509999999857,correct,v
72,4F4K,73,1,39.517601872228525,52.17176027612511,1.1372331478754047,54.24359148979792,1,c,2.743566699999974,correct,c
73,4F4K,74,2,77.34447303000319,63.11615966012368,2.497239500057693,63.13906665334141,1,v,2.344389400000182,correct,v
74,4F4K,75,2,32.28919770758306,41.8431950062732,0.9785218229388823,45.19399336267615,2,b,1.6739049000002524,correct,b
75,4F4K,76,2,38.21371247116837,50.33282732824158,1.10681290785687,52.65846184283744,2,v,1.6800091999998585,incorrect,b
76,4F4K,77,2,61.725416958007926,41.00258817846131,1.8047043465436956,44.45105347269381,1,v,3.046858600000178,correct,v
77,4F4K,78,2,38.80235787275637,50.442891564813465,1.1204441488801722,52.753825013842494,2,b,1.1353163999997378,correct,b
78,4F4K,79,2,53.99003859356876,44.004796514582,1.536556863437471,47.10563642588659,1,v,2.125177999999778,correct,v
79,4F4K,80,2,45.29692811833272,37.34105738005391,1.2824546795268714,41.229649065947946,1,v,1.2976391000001968,correct,v
80,4F4K,81,1,33.102614730973386,50.41392022819506,0.995213831918518,52.72872893926389,1,c,4.672172500000215,correct,c
81,4F4K,82,1,30.07546939461966,46.88257671603555,0.934498388898625,49.64421921149493,1,c,1.7103157999999894,correct,c
82,4F4K,83,1,51.877927600061504,35.72656986391206,1.470531642421814,39.82234070131469,2,n,0.7271599000000606,correct,n
83,4F4K,84,2,24.51258747078692,43.77618257169622,0.8324165904890513,46.90350800418113,2,b,3.980891100000008,correct,b
84,4F4K,85,1,59.074592289074175,47.49355856294584,1.7079168851241764,50.1809616231199,2,n,2.852835199999845,correct,n
85,4F4K,86,1,37.105624583282015,47.72495593680024,1.0816012600842286,50.38396203729244,1,n,1.943973399999777,incorrect,c
86,4F4K,87,1,35.60943281804432,53.21783530989895,1.0484681123025856,55.13666172493278,1,c,4.322993400000087,correct,c
87,4F4K,88,1,59.25094923397472,78.05964257670325,1.7141917241508946,72.82737778560366,1,n,3.1265314000002036,incorrect,c
88,4F4K,89,1,49.9153581456116,69.18644683504606,1.4117266256050374,67.49144238758095,1,c,2.993864200000189,correct,c
89,4F4K,90,1,56.09053989009534,36.01126305990738,1.6051589835813287,40.06971897687832,2,c,2.0105992999997397,incorrect,n
90,4F4K,91,1,56.76202096303699,70.25653010258125,1.6277291162766605,68.2037864043486,1,n,1.4675750999999764,incorrect,c
91,4F4K,92,2,47.17452511706229,26.863343604066586,1.3335165717401711,32.37558265945148,1,b,2.895290599999953,incorrect,v
92,4F4K,93,1,58.54089282819663,47.85914913510342,1.6890672673761018,50.50161152995744,2,c,2.3930583000001207,incorrect,n
93,4F4K,94,2,59.11709972004415,41.19862617936056,1.709427209599885,44.62425361711704,1,v,1.6498367000003782,correct,v
94,4F4K,95,2,52.154496097862186,64.97323820868475,1.4790131534327735,64.52351624742829,2,v,1.060946999999942,incorrect,b
95,4F4K,96,2,45.1040584609069,55.43973350720513,1.2773215520559322,57.00902739513412,2,v,0.6665062000001853,incorrect,b
96,4F4K,97,1,50.62035770531913,33.94436832165587,1.4325750599593092,38.28264355324098,2,n,5.0,incorrect,n
97,4F4K,98,2,67.93544817089631,50.86858348177644,2.053469394489457,53.122102034591066,1,b,2.0873646999998527,incorrect,v
98,4F4K,99,1,65.27816845123041,50.38569329316263,1.9430796674843451,52.70427382463948,2,n,3.3929447000000437,correct,n
99,4F4K,100,1,56.60612447027786,50.44058446926616,1.6224609261500575,52.751826667628464,2,n,2.8655361999999514,correct,n
100,4F4K,101,1,39.66523626125267,24.94000072165899,1.1407297849901414,30.84772541084543,2,c,1.1125040000001718,incorrect,n
101,4F4K,102,1,28.86860741749775,46.33361497950825,0.9113380585636428,49.16113918762437,1,c,2.5910917999999583,correct,c
102,4F4K,103,1,56.61051166524791,44.46344069490178,1.6226089486407995,47.511022129761486,2,n,0.8561288000000786,correct,n
103,4F4K,104,1,61.291778994029016,44.7344289736992,1.7885040308535047,47.75044527710354,2,n,2.2573430999996162,correct,n
104,4F4K,105,1,74.19506747294197,59.34126983514134,2.338935413494717,60.19896190233813,2,n,1.080692900000031,correct,n
105,4F4K,106,1,45.777763671394254,29.940135871160876,1.29534187192408,34.89378252928246,2,c,1.188440499999615,incorrect,n
106,4F4K,107,1,38.35438232126612,57.6891985229377,1.1100552384808178,58.865061969198685,1,c,1.4554588000000876,correct,c
107,4F4K,108,1,37.92072142534789,46.25843427118803,1.1000900649319412,49.09492660840377,1,c,1.8073993999996674,correct,c
108,4F4K,109,2,39.6822856602467,53.49687576521553,1.1411342822271386,55.37371101667773,2,v,3.9065511999997398,incorrect,b
109,4F4K,110,2,53.26283590259676,31.281775892913807,1.5134962253293167,36.01675042115349,1,v,0.9941873000002488,correct,v
110,4F4K,111,1,47.686688551578605,67.51780336247336,1.3477946054454513,66.34623481586343,1,c,3.01059529999975,correct,c
111,4F4K,112,1,35.26309416448489,51.371883259522505,1.0409442650458258,53.55632924545338,1,n,1.849932699999954,incorrect,c
112,4F4K,113,1,52.36115370483192,71.43249506286689,1.4853826283903218,68.96597601597783,1,n,2.943793899999946,incorrect,c
113,4F4K,114,2,54.29950711501316,39.84145867412774,1.546476824593819,43.42628780624123,1,v,3.0910171000000446,correct,v
114,4F4K,115,1,76.43260764062694,59.91413530848269,2.4503336871236754,60.65517345220026,2,n,1.468782800000099,correct,n
115,4F4K,116,1,51.63094952324198,66.3673125869867,1.4629986981531138,65.5331816386425,1,n,2.203365500000018,incorrect,c
116,4F4K,117,2,55.73375964839722,39.40623939442988,1.5932943170189224,43.042796366436434,1,b,2.2027917999998863,incorrect,v
117,4F4K,118,2,68.54309670546702,57.11228122856534,2.0795810315555863,58.39321387712876,1,b,2.7860475000002225,incorrect,v
118,4F4K,119,1,46.81025496220396,24.86140703796212,1.3234536309380762,30.78612550474548,2,c,4.253200300000117,incorrect,n
119,4F4K,120,1,64.14311422804273,45.92572698058023,1.897754571515188,48.80176356464782,2,n,2.2762407999998686,correct,n
120,4F4K,121,2,60.014862564462405,64.40336086666987,1.7416393115764863,64.10334488351195,2,b,4.337553200000002,correct,b
121,4F4K,122,2,57.55910075301253,78.45438960129795,1.6549332430926005,73.03283181102213,2,b,1.1094837999999072,correct,b
122,4F4K,123,1,55.81052650076965,38.6450044428239,1.5958397586318862,42.3730723272149,2,n,0.987214700000095,correct,n
123,4F4K,124,1,61.04521903554444,44.50743872316796,1.7793577120758597,47.54990066180788,2,n,1.3211507999999412,correct,n
124,4F4K,125,1,68.46883555166592,50.51009469598418,2.0763721848043954,52.81202335222033,2,n,1.418146899999556,correct,n
125,4F4K,126,1,25.381990942023016,44.30016534928149,0.8476024883723804,47.36672813548387,1,c,0.921384499999931,correct,c
126,4F4K,127,2,35.47262070499001,52.73856123624787,1.0454895350318727,54.72833276915279,2,v,1.1580541000002995,incorrect,b
127,4F4K,128,1,46.89251039074607,56.70192327501744,1.3257192739874426,58.05579163955797,1,c,0.9994466000002831,correct,c
128,4F4K,129,1,51.673701279905295,41.23104949874186,1.464299879047179,44.65290376934989,2,n,0.5813435000000027,correct,n
129,4F4K,130,1,53.8143785462792,33.14386819470009,1.5309544467719582,37.596682159935554,2,n,0.988275799999883,correct,n
130,4F4K,131,1,56.62795520811129,47.24796245186128,1.6231976215461037,49.96533199401121,2,n,0.5329847999996673,correct,n
131,4F4K,132,2,48.58357749677064,60.30395609457971,1.373167221751171,60.96365915300071,2,b,0.7581537000000935,correct,b
132,4F4K,133,1,79.99441722418825,60.46164796027252,2.6387094745051214,61.08799024256254,2,n,0.5644658999999592,correct,n
133,4F4K,134,2,68.20656985096588,48.43705847580086,2.0650791749867263,51.00759961830521,1,b,0.5390508999998929,incorrect,v
134,4F4K,135,2,50.74791426478595,35.681094820564226,1.4363799578039824,39.78285970690917,1,v,2.2216671000001043,correct,v
135,4F4K,136,2,35.21763155747,55.89198553658663,1.0399606543083837,57.385593240218114,2,v,1.7808188999997583,incorrect,b
136,4F4K,137,1,40.75590075628873,53.75787391193407,1.1668968384313334,55.5949616227207,1,c,1.7103455000001304,correct,c
137,4F4K,138,1,46.33485945068361,63.668705117438215,1.3104349894835592,63.555533458201175,1,c,2.3004299999997784,correct,c
138,4F4K,139,1,57.154276445756224,67.62277030720797,1.6410603482145962,66.4194779540727,1,n,1.7080009000001155,incorrect,c
139,4F4K,140,1,43.62529353809687,64.85865891560569,1.2386416008497985,64.43937674224769,1,c,1.322031799999877,correct,c
140,4F4K,141,1,41.42378565400646,63.53481673493378,1.1832160845909725,63.45496503492132,1,c,0.7033071999999265,correct,c
141,4F4K,142,2,59.91253831063175,49.02268622824701,1.737937438171404,51.51913484853861,1,v,3.06519709999975,correct,v
142,4F4K,143,1,49.52004435397354,57.50537208752826,1.4001693494448646,58.71504091176615,1,c,2.726850900000045,correct,c
143,4F4K,144,2,44.19326221900066,33.58207968772351,1.2533574024671836,37.97172638360342,1,b,1.9014727000003404,incorrect,v
144,4F4K,145,2,68.35018445664089,49.6599285943166,2.0712555076425225,52.074222587419584,1,v,1.1337975999999799,correct,v
145,4F4K,146,1,38.37396559086483,43.42063531727696,1.1105073701620716,46.589093616204366,1,c,0.8002733000002991,correct,c
146,4F4K,147,2,42.497122501214136,34.19436357870711,1.20992169029383,38.497623212249216,1,b,1.1155665999999655,incorrect,v
147,4F4K,148,1,52.82481692256507,68.18756151170022,1.499773365226874,66.81083017001357,1,n,0.7210948000001736,incorrect,c
148,4F4K,149,1,71.0129400941855,55.09813376172941,2.189176390566669,56.723526496759945,2,c,3.2290107000003445,incorrect,n
149,4F4K,150,2,42.07281824076655,33.19675950993164,1.1992933156462822,37.641887889720905,1,b,2.2019193999999516,incorrect,v
150,4F4K,151,1,48.23525167517642,30.40643218717156,1.3632569876058829,35.28250565405127,2,c,2.166979999999967,incorrect,n
151,4F4K,152,2,63.55726245012173,50.04899202979235,1.8747755349869344,52.41227480982205,1,b,1.3825944000000163,incorrect,v
152,4F4K,153,2,57.66932746143234,73.3044117937368,1.6587308661241889,70.13304029676594,2,v,0.7575381000001471,incorrect,b
153,4F4K,154,1,38.13645386793137,48.47300780268501,1.1050361879322066,51.03903708990784,1,n,1.534183899999789,incorrect,c
154,4F4K,155,2,46.89597137849309,59.13173635785781,1.3258146883989146,60.03126016537256,2,v,1.5220438000001195,incorrect,b
155,4F4K,156,2,32.591338964796364,42.520099563347976,0.9846890832746528,45.792601765919,2,b,1.1641210000002502,correct,b
156,4F4K,157,2,46.55261697399065,39.16726208575204,1.316382278017507,42.83239672630062,1,v,0.781002400000034,correct,v
157,4F4K,158,2,66.3033410639026,54.60521260463607,1.9849466496840869,56.30998555712047,1,b,0.7213282000002437,incorrect,v
158,4F4K,159,1,43.41753390164297,60.63332572796028,1.233301914297605,61.22304418833856,1,n,1.4189556000001176,incorrect,c
159,4F4K,160,2,51.66322903105279,38.96581547295419,1.4639810415362695,42.6551438489831,1,v,1.9652534000001651,correct,v
160,4F4K,161,1,49.22456056983846,33.06358048671008,1.3915925081230551,37.52809376911097,2,n,3.599045799999658,correct,n
161,4F4K,162,1,59.33769576807693,49.64860316811936,1.717286648232217,52.06437209398439,2,n,1.4979398000000401,correct,n
162,4F4K,163,2,44.82145414555156,56.0787298428452,1.2698372676193657,57.540603040529234,2,v,0.7138132999998561,incorrect,b
163,4F4K,164,2,33.455821576300465,44.56513892926085,1.0025503179501172,47.6008839185058,2,b,0.921395300000313,correct,b
164,4F4K,165,1,36.30514537547752,44.65165885823796,1.06374648243938,47.67732511089175,1,c,1.0063227000000552,correct,c
165,4F4K,166,1,36.65185609308275,52.87392323850723,1.071443431548812,54.84380558923832,1,c,1.134002099999634,correct,c
166,4F4K,167,1,32.75836416784557,50.26729203359581,0.9881150430499094,52.60165263105282,1,c,0.447881900000084,correct,c
167,4F4K,168,1,47.48143634486789,34.250189769202834,1.3420543424807976,38.54567722531603,2,n,1.0367003000001205,correct,n
168,4F4K,169,2,53.74769754769921,33.02406555438506,1.5288331080504065,37.49435145072966,1,v,1.5278250000001208,correct,v
169,4F4K,170,2,41.697421720362286,66.6564484441842,1.1899678958743851,65.73926627618667,2,v,1.3158241000000999,incorrect,b
170,4F4K,171,1,52.162820729186,33.14864328053436,1.4792692014109987,37.6007626801544,2,n,0.7750308000004225,correct,n
171,4F4K,172,2,42.94048083888844,31.77195429869355,1.2211279932374814,36.43037126680691,1,v,1.2070345000001907,correct,v
172,4F4K,173,2,45.73401332641799,30.3539907983756,1.294163953907729,35.238702828494205,1,v,0.7514554999997927,correct,v
173,4F4K,174,2,34.29646802328719,49.91825350769122,1.0202297253256207,52.29875303800222,2,b,0.9145894999996926,correct,b
174,4F4K,175,1,73.66599459703136,55.282164430886624,2.3133440379188697,56.87744750673191,2,n,1.5282847999997102,correct,n
175,4F4K,176,1,46.111832815948986,62.608589210616245,1.3043716448851026,62.75321627393483,1,c,1.8195841000001565,correct,c
176,4F4K,177,2,58.35037737182979,42.48128009924331,1.6823889985371718,45.75826791100901,1,b,0.7817697000000408,incorrect,v
177,4F4K,178,2,44.32268443605956,33.08526311197407,1.2567350553213033,37.546612947221895,1,b,1.0184730000000854,incorrect,v
178,4F4K,179,2,49.12967339272252,34.46841808269827,1.388849431515928,38.73368540697592,1,v,1.6192762000000585,correct,v
179,4F4K,180,1,49.555054432282624,67.4468743962289,1.4011890636287578,66.29665268875698,1,n,0.9456450000002405,incorrect,c
180,4F4K,181,1,51.38534580028563,38.67888244845462,1.4555459394248167,42.40284670466408,2,c,1.1398635000000468,incorrect,n
181,4F4K,182,2,36.29318393531992,22.480252090161454,1.0634819284502894,28.953198521002143,1,b,2.919520100000227,incorrect,v
182,4F4K,183,1,75.14432647528548,63.22695001561675,2.385563012404014,63.222873214438216,2,n,1.449377800000093,correct,n
183,4F4K,184,1,48.92783683206353,58.3899617348277,1.3830325441551596,59.43407793653704,1,n,0.7575262000000293,incorrect,c
184,4F4K,185,1,67.67727585619312,58.98908372423173,2.042474795948507,59.91683519109933,2,n,0.8242927999999665,correct,n
185,4F4K,186,1,29.873353342415854,37.72531519476041,0.9305790415481706,41.56604473582262,1,c,1.0786001999999826,correct,c
186,4F4K,187,1,57.01006982050612,42.46280042973636,1.636146683869622,45.74192370183223,2,n,1.3704725000002327,correct,n
187,4F4K,188,1,55.76503379078839,34.56079410169566,1.594330817138453,38.813345800871815,2,n,0.8002538000000641,correct,n
188,4F4K,189,1,58.34219450113952,49.006489726322194,1.6821027509233908,51.50500499643615,2,n,0.9335356999999931,correct,n
189,4F4K,190,2,31.98483107085397,47.97614556027129,0.9723481922034628,50.60413753867011,2,v,1.01285659999985,incorrect,b
190,4F4K,191,1,52.24568318877204,42.76660489371192,1.48182029250294,46.0106292996816,2,n,0.5208803000000444,correct,n
191,4F4K,192,1,21.82107139398617,34.92878205564676,0.7871072544822204,39.13112004917755,1,c,0.6239908000002288,correct,c
192,4F4K,193,2,48.86381404561557,40.63012722170989,1.3811925153252018,44.12211259138351,1,v,0.9516085000000203,correct,v
193,4F4K,194,2,55.19119827815685,37.69111704332129,1.575419401957932,41.53608612111309,1,v,0.8121415000000525,correct,v
194,4F4K,195,1,41.02479992537995,25.89100972985345,1.1734399361397772,31.59837667346978,2,n,1.1641349000001355,correct,n
195,4F4K,196,2,28.74374313564671,41.88264031435982,0.9089748570814896,45.22886988244104,2,b,0.848345899999913,correct,b
196,4F4K,197,1,54.78782346054389,45.85033071715446,1.5622601397130491,48.73529761110019,2,n,1.7642404000002898,correct,n
197,4F4K,198,1,52.297062534958016,71.05384493691484,1.4834043204828624,68.72295662239357,1,n,0.9692257000001518,incorrect,c
198,4F4K,199,2,56.805947796063165,46.70628594992886,1.6292166167260271,49.489164672670455,1,v,1.861859099999947,correct,v
199,4F4K,200,2,32.13418680812233,41.75045817638744,0.9753727718113828,45.112001902270805,2,b,0.7020662999998422,correct,b
200,4F4K,201,2,52.64874268625206,58.877703728329344,1.494292194193019,59.82735413252854,2,b,2.1734301999999843,correct,b
201,4F4K,202,2,54.20310866200055,71.57888057273117,1.5433799402490866,69.05930926979549,2,b,0.763605699999971,correct,b
202,4F4K,203,2,30.86995330355565,43.40192951213536,0.9500653116279172,46.572550352466095,2,v,0.7635151000004043,incorrect,b
203,4F4K,204,1,53.598939285980016,72.67633352165808,1.5241112127577825,69.7479092346875,1,n,2.6463613000000805,incorrect,c
204,4F4K,205,1,49.430763705684654,64.50027063125219,1.3975722921110707,64.17509390084396,1,c,0.6511546000001545,correct,c
205,4F4K,206,2,46.000507194470174,41.33797437630751,1.301355580522872,44.74739320789243,1,b,1.2309896000001572,incorrect,v
206,4F4K,207,1,52.447090085921815,67.18627708090042,1.488039375497921,66.11386618358303,1,c,0.5572531000002527,correct,c
207,4F4K,208,1,62.24457764573218,50.40841577691832,1.8242928353248973,52.72396031882931,2,c,0.5329706999996233,incorrect,n
208,4F4K,209,2,36.292797589870446,28.04975075011462,1.0634733846539586,33.33646651402361,1,v,0.6117390000003979,correct,v
209,4F4K,210,1,49.0192178831682,41.21207638669189,1.3856631026074595,44.63613846264791,2,n,0.9092614999999569,correct,n
210,4F4K,211,1,55.297717629026046,75.19538300964886,1.5789128355194078,71.252112872278,1,c,1.0180774999998903,correct,c
211,4F4K,212,2,60.01825553618113,40.76576045824496,1.741762197035268,44.24187668967368,1,b,1.2615427999999156,incorrect,v
212,4F4K,213,1,63.5474867736763,56.336471207795405,1.8743944703293391,57.75407198176259,2,c,0.7757526999998845,incorrect,n
213,4F4K,214,1,41.258669152672375,65.13020607018142,1.1791604772886324,64.6385027477546,1,c,0.5566451999998208,correct,c
214,4F4K,215,1,30.98346280601001,45.13897520955243,0.9523104599885468,48.10770152519546,1,c,1.0488084000003255,correct,c
215,4F4K,216,1,30.582183313390612,41.78188497888095,0.9443970887801963,45.13978664096709,1,c,0.5693838000001961,correct,c
216,4F4K,217,1,40.40560519299465,28.541421767321918,1.1584278208635088,33.73851492306782,2,c,0.8903427999998712,incorrect,n
217,4F4K,218,1,33.89580416284127,50.26484312561232,1.01176492070575,52.59952940491949,1,n,2.7141091000003144,incorrect,c
218,4F4K,219,2,42.481634907692936,53.09696363237454,1.2095320911548104,55.0338208758094,2,v,1.0054560999997193,incorrect,b
219,4F4K,220,2,58.69836165090379,54.44363414060327,1.6946071361657384,56.17403485317289,1,b,1.0730905999998868,incorrect,v
220,4F4K,221,2,46.036284531675214,58.89924664875999,1.302324108721271,59.84467097341297,2,b,0.928059200000007,correct,b
221,4F4K,222,2,46.70909148313623,29.96510281036697,1.320672493293628,34.91455207712208,1,b,0.9213792000000467,incorrect,v
222,4F4K,223,1,48.10720212352729,63.60841913067073,1.3596318504941949,63.51027808231913,1,c,1.8863043000001198,correct,c
223,4F4K,224,1,44.27873053669306,62.545727489501104,1.25558692972764,62.70521416390383,1,n,2.2883630000001176,incorrect,c
224,4F4K,225,2,60.13120739992178,46.01277836796562,1.7458580004697604,48.878490278950366,1,v,2.041046300000289,correct,v
225,4F4K,226,2,45.39387443915311,32.09019811523087,1.2850426415803045,36.699811070486696,1,b,1.4385988999997608,incorrect,v
226,4F4K,227,1,31.411661541457924,41.80766547470931,0.9608278315905456,45.162579933373095,1,n,0.7081592999998065,incorrect,c
227,4F4K,228,1,62.08917165004046,42.82898363134034,1.8184070082356625,46.065802601535296,2,n,0.5025918999999703,correct,n
228,4F4K,229,2,67.0860202647603,46.22281545069697,2.01751668948122,49.063552371850456,1,v,0.8424815999997008,correct,v
229,4F4K,230,2,49.95840237721944,42.108117125311296,1.4129907990390205,45.428248062755806,1,v,1.2967201999999816,correct,v
230,4F4K,231,1,53.3210445775314,49.10595767178057,1.5153292935822242,51.59176468164288,2,n,0.8667956999997841,correct,n
231,4F4K,232,2,24.78121755389516,43.840041079122585,0.8370794855303503,46.95997175580565,2,b,1.4797244000001228,correct,b
232,4F4K,233,1,50.42182974706476,30.56986949315132,1.4266731899009195,35.419157216728095,2,n,0.6968549999996867,correct,n
233,4F4K,234,2,47.33011677004997,35.49864465265048,1.3378380684163873,39.62455352900855,1,v,1.4363828000000467,correct,v
234,4F4K,235,1,69.23506654587763,49.88926376477578,2.1097206695074093,52.27357048057223,2,n,0.7271881000001486,correct,n
235,4F4K,236,1,48.49098932969415,63.79573530320128,1.3705259832440817,63.65074361329053,1,n,1.2551481999998941,incorrect,c
236,4F4K,237,2,61.15216859453863,75.81457506090548,1.783319324579519,71.60506806250044,2,b,0.6664568000001054,correct,b
237,4F4K,238,2,30.413469546915124,38.46384664221587,0.9410896616800456,42.21391102612163,2,v,0.8973747000000003,incorrect,b
238,4F4K,239,2,67.30179240254122,57.9345919028473,2.0265893338732623,59.06484350813906,1,b,0.5208290999999008,incorrect,v
239,4F4K,240,2,48.592357175326846,61.97260898126491,1.373417941419321,62.26542225605423,2,v,1.2612278999999944,incorrect,b
240,4F4K,241,2,37.43642368576346,61.16271127050359,1.089066998789566,61.63747034188134,2,b,1.1693154999998114,correct,b
241,4F4K,242,2,47.36811721376418,64.73206610041858,1.3388956418520686,64.34621548559178,2,v,0.8181853999999475,incorrect,b
242,4F4K,243,2,29.43450821865792,48.43772350422189,0.9221256461384364,51.0081812234515,2,b,0.8171772000000601,correct,b
243,4F4K,244,1,43.22021641893456,55.22012673684722,1.228251918519018,56.82558915156008,1,n,0.6786483999999291,incorrect,c
244,4F4K,245,1,46.06955191145781,66.63210044310779,1.303225336600619,65.7219568769071,1,n,0.9577840000001743,incorrect,c
245,4F4K,246,1,36.35393056022144,49.18355016564499,1.0648261576060305,51.65941651215585,1,c,1.2432574999997996,correct,c
246,4F4K,247,2,29.23805345477877,40.85471620641482,0.9183662975187924,44.32043803182079,2,b,1.4736563000001297,correct,b
247,4F4K,248,1,59.617619731932045,50.79065416292473,1.727311874519195,53.0547507410034,2,n,0.976404100000309,correct,n
248,4F4K,249,1,47.81295842586479,38.98715018539017,1.3513381709692436,42.67391158316144,2,n,1.4860891000002994,correct,n
249,4F4K,250,1,36.030865531465096,50.75820896484453,1.0576966849367568,53.02670059365576,1,n,0.8062487000001965,incorrect,c
250,4F4K,251,2,39.78113235406353,56.42763575696448,1.143482249450499,57.829444127978704,2,b,1.1409555999998702,correct,b
251,4F4K,252,2,30.983550320634635,45.99467482301023,0.9523121930194208,48.86253513671377,2,b,0.5090277999997852,correct,b
252,4F4K,253,1,80.44604475022322,61.708991449812935,2.6636071953527924,62.06184729409854,2,n,0.6784921999997096,correct,n
253,4F4K,254,2,41.25432424885001,52.067164677331576,1.179053945264596,54.15392904493792,2,v,2.3369622000000163,incorrect,b
254,4F4K,255,1,49.01825297207654,34.62570649179487,1.385635299885911,38.8693497984773,2,n,0.6846721000001708,correct,n
255,4F4K,256,2,65.86500429483405,48.41827927569906,1.9669361537290648,50.99117549282044,1,v,1.0198358999996344,correct,v
256,4F4K,257,2,59.85508485288775,40.58977446457483,1.73586234489474,44.08648610226258,1,v,1.054914700000154,correct,v
257,4F4K,258,1,40.002355946044,53.34730367010834,1.1487546317061192,55.24671111656984,1,c,0.9692699999995966,correct,c
258,4F4K,259,2,29.03914223489504,44.477633520068366,0.9145755568899582,47.523563734457824,2,b,0.6546435999998721,correct,b
259,4F4K,260,1,51.30723090447076,34.92150375999158,1.4531835373547342,39.124828214390085,2,n,0.6300571000001582,correct,n
260,4F4K,261,1,60.672548437429526,47.535982381095664,1.765621929035422,50.21819129228102,2,n,0.4600970999999845,correct,n
261,4F4K,262,2,42.98613237348774,56.76336057415028,1.2222877567402912,58.10640254919002,2,b,1.2369785000000775,correct,b
262,4F4K,263,2,60.58329231889462,72.66422665569382,1.7623479231368226,69.74042081527611,2,v,0.575751500000024,incorrect,b
263,4F4K,264,2,56.602035385166985,69.50056533719159,1.622322973944465,67.70237092383945,2,v,1.000285200000235,incorrect,b
264,4F4K,265,2,35.901812515579515,49.936127900143056,1.0548620742833947,52.31427813296166,2,v,0.6179333000000042,incorrect,b
265,4F4K,266,1,64.03897789206354,51.303268110438886,1.8936495171079948,53.49720939035719,2,n,0.4972741000001406,correct,n
266,4F4K,267,1,63.01875496487036,50.89176968802883,1.8538990006973417,53.142135038343625,2,n,0.9457859999997709,correct,n
267,4F4K,268,2,28.04522935350568,45.920840357212974,0.895867254069155,48.7974560719836,2,v,0.696903100000327,incorrect,b
268,4F4K,269,1,52.37443359386981,65.20034313605376,1.485792869774246,64.68977628526055,1,n,0.5632927000001473,incorrect,c
269,4F4K,270,1,48.5283966086847,61.96428589061868,1.3715924787499263,62.25900712029226,1,n,2.1488287000001947,incorrect,c
270,4F4K,271,2,46.14341371072628,33.37183054531499,1.3052285152156575,37.79164064626384,1,b,0.8316568000000188,incorrect,v
271,4F4K,272,1,66.4715672898383,52.80974377292181,1.9919024818522304,54.78907055070181,2,n,0.8000056000000768,correct,n
272,4F4K,273,2,49.84925723695068,61.36048900791798,1.4097874983528127,61.79150241377575,2,v,0.6967131000001245,incorrect,b
273,4F4K,274,2,53.69122787285739,40.78623132004579,1.5270389234660853,44.259954627630925,1,b,0.4902814000001854,incorrect,v
274,4F4K,275,1,40.06612066713165,53.61175108282804,1.1502788333083431,55.47114873099506,1,c,0.7324702000000798,correct,c
275,4F4K,276,2,56.35118970275922,69.46431830067014,1.6138826624341032,67.67810800282415,2,v,0.9702220999997735,incorrect,b
276,4F4K,277,1,64.73213006160786,46.245016302100986,1.9211416577821,49.08310793876299,2,n,0.42976999999973486,correct,n
277,4F4K,278,1,58.32964428380372,77.77970502318497,1.681663822389024,72.6799459269791,1,n,0.6046559999999772,incorrect,c
278,4F4K,279,2,47.29401205020808,67.2431315588625,1.3368340279286075,66.15382740464796,2,v,0.7820526999998947,incorrect,b
279,4F4K,280,2,42.597754508285504,49.22594067708948,1.2124562036888429,51.69636600750873,2,b,0.6243126999997912,correct,b
280,4F4K,281,1,47.35527552134724,59.46883387994282,1.3385381569353123,60.300841273438216,1,n,1.4981084999999439,incorrect,c
281,4F4K,282,2,38.434314299284885,55.63848557904649,1.1119018385416368,57.17471887433368,2,v,0.6360731999998279,incorrect,b
282,4F4K,283,2,53.92648441335228,40.47344884043154,1.5345275341198794,43.98379832577742,1,b,1.079168799999934,incorrect,v
283,4F4K,284,1,60.335701798685584,40.75324347829253,1.753297791916489,44.23082314692429,2,c,0.7627779999997983,incorrect,n
284,4F4K,285,2,48.10049778102055,39.22770727546229,1.3594423135101077,42.88560132421701,1,v,0.6898764000002302,correct,v
285,4F4K,286,1,41.63634715598042,66.39959028426611,1.1884575841681684,65.55624549007419,1,n,0.9334895000001779,incorrect,c
286,4F4K,287,2,57.56339119817316,70.6105045966728,1.6550808983531669,68.43551426257785,2,v,1.6681780000003528,incorrect,b
287,4F4K,288,1,42.80474274190122,56.62381986200172,1.2176861040442937,57.99140459009496,1,c,1.0548908000000665,correct,c
288,4F4K,289,2,66.74732133015847,52.08901338658404,2.003357147616852,54.17266368812677,1,v,1.291647600000033,correct,v
289,4F4K,290,1,80.38557782646163,67.80811870740602,2.6602601487219237,66.54842037672466,2,n,0.5632965999998305,correct,n
290,4F4K,291,1,27.064879257743915,40.302388368867575,0.8777891712267293,43.83283045602401,1,c,1.9667833000003156,correct,c
291,4F4K,292,2,73.80706011652734,57.96538525251744,2.320139906058937,59.089873735583886,1,v,0.9153042000002642,correct,v
292,4F4K,293,1,41.68258553092312,35.48982125597383,1.189600835637776,39.616901659021465,2,c,0.6900166000000354,incorrect,n
293,4F4K,294,1,56.45252981446141,68.89611791344088,1.6172871968368454,67.2951588128496,1,n,2.233742500000062,incorrect,c
294,4F4K,295,2,47.9879812896591,63.366289735720365,1.3562653244694416,63.32806215825601,2,v,1.6890281000000869,incorrect,b
295,4F4K,296,2,57.82441558247687,42.47045607772628,1.664088853144201,45.74869467375326,1,v,1.2733711999999286,correct,v
296,4F4K,297,1,52.25444353686826,41.87271632401552,1.4820902548371102,45.22009525440871,2,n,1.7339538999999604,correct,n
297,4F4K,298,2,64.37267784007747,55.431257309356326,1.90683542789099,57.001954195705714,1,b,2.082136399999854,incorrect,v
298,4F4K,299,1,45.56035092670587,65.59467048097744,1.289498886911596,64.97682884598305,1,c,0.9336735999995653,correct,c
299,4F4K,300,1,57.86317170993956,36.16714827411983,1.6654305012317694,40.20532245315674,2,n,1.4554315000000315,correct,n
300,4F4K,301,2,57.63958424115085,39.81703974208735,1.6577052700909791,43.40476102977886,1,v,2.216196200000013,correct,v
301,4F4K,302,1,27.560277625261733,47.62765021747067,0.8868784698607663,50.298617407808415,1,c,1.5844093999999131,correct,c
302,4F4K,303,2,38.144845040129965,27.72248599487147,1.1052290219900809,33.07008092261472,1,b,0.7818115999998554,incorrect,v
303,4F4K,304,2,31.50634896442356,46.290642096969336,0.9627215361008802,49.12329395706133,2,v,1.9108744000000115,incorrect,b
304,4F4K,305,1,56.59035619527612,67.16235659346131,1.6219290213018804,66.09703947305307,1,n,1.6556995000000825,incorrect,c
305,4F4K,306,2,37.78363577884995,50.93533628480338,1.0969585961502104,53.17976939854014,2,b,1.0669976999997743,correct,b
306,4F4K,307,2,46.70616120975468,30.87304628788954,1.3205920227830557,35.673188152439394,1,v,1.7406662999997025,correct,v
307,4F4K,308,1,30.02953869942781,44.667837858502,0.933606273757596,47.69161847339935,1,c,1.4008069999999861,correct,c
308,4F4K,309,2,60.906593669984254,46.61936919081469,1.7742358617906568,49.41268971586174,1,v,0.7385104999998475,correct,v
309,4F4K,310,1,47.38361009364424,64.22363669823912,1.33932705716542,63.96996329102007,1,n,1.3705611999998837,incorrect,c
310,4F4K,311,1,46.67734659220622,39.761056924157934,1.319800983337264,43.35541314882492,2,n,0.957774900000004,correct,n
311,4F4K,312,2,55.31243633945255,71.39722953343332,1.5793961625625432,68.94343960002635,2,v,1.3401803000001564,incorrect,b
312,4F4K,313,1,55.13068680324273,46.65746646488567,1.5734382972220289,49.44621240593729,2,c,2.3976308000001154,incorrect,n
313,4F4K,314,2,38.85394490932729,51.85454195364056,1.1216467191660158,53.97146709731789,2,v,1.321850600000289,incorrect,b
314,4F4K,315,1,45.80806257757928,57.71868681494581,1.296158256687863,58.889098614980085,1,n,0.7029004999999415,incorrect,c
315,4F4K,316,1,48.956218601196746,37.30281714874271,1.383849026392734,41.19619971795723,2,c,1.704271300000073,incorrect,n
316,4F4K,317,2,64.203206635991,54.59771869356501,1.90012746225454,56.30368447805946,1,v,0.9881248000001506,correct,v
317,4F4K,318,2,72.69188500648796,53.6233209779151,2.2669562522408517,55.48095743143988,1,v,1.6617927000002055,correct,v
318,4F4K,319,1,57.37345762481479,40.09678117515848,1.6485569527994546,43.65143717022244,2,c,1.0852407999996103,incorrect,n
319,4F4K,320,1,68.84804484033822,57.99944984460835,2.0928100082197627,59.11755265202367,2,c,1.6557222999999794,incorrect,n
320,4F4K,321,1,48.800238675863625,31.83659044810973,1.3793677677848046,36.485038751124826,2,n,0.8786842999998044,correct,n
321,4F4K,322,1,56.15544366267085,37.95157496540706,1.6073268265162035,41.76435026761538,2,n,1.1095080999998572,correct,n
322,4F4K,323,2,54.02645776134527,39.6590861640921,1.5377209622047012,43.26554369602043,1,v,1.139750599999843,correct,v
323,4F4K,324,1,42.91326389490152,61.2859563933292,1.220437078635181,61.73350682199822,1,c,1.23691239999971,correct,c
324,4F4K,325,1,45.37423926922732,61.00310233970105,1.2845180633540147,61.51284663060934,1,c,0.7818098000002465,correct,c
325,4F4K,326,2,46.06911562051458,28.141430611330637,1.3032135132530087,33.41126871778531,1,v,0.7393302000000403,correct,v
326,4F4K,327,2,54.215500138297664,67.48199747128179,1.543777679610242,66.32121413112797,2,v,1.3522389999998268,incorrect,b
327,4F4K,328,2,50.57119747929031,64.97410953176254,1.4311113466854364,64.52415542946096,2,b,0.5329332000001159,correct,b
328,4F4K,329,1,52.52201613632032,72.90576201569029,1.490359612497563,69.88935629353881,1,c,0.5770410999998603,correct,c
329,4F4K,330,1,35.618362246341455,44.57720613178552,1.0486628122873674,47.61154590823551,1,n,0.76963939999996,incorrect,c
330,4F4K,331,2,59.41465678931058,47.543680935188206,1.7200371244302002,50.22494670194227,1,v,2.134773000000223,correct,v
331,4F4K,332,1,47.284697528903024,60.07704272379184,1.336575121586345,60.78428577059085,1,n,1.9121588000002703,incorrect,c
332,4F4K,333,2,39.288392448992106,58.11307201835192,1.1318256778411562,59.2097967491009,2,b,0.7332306999996945,correct,b
333,4F4K,334,1,57.887994741336456,43.4884770894334,1.666290385767344,46.64909124582767,2,n,0.6733746999998402,correct,n
334,4F4K,335,2,56.7167225432024,41.88834699523942,1.626196591961754,45.2339156630628,1,v,0.7454023000000234,correct,v
335,4F4K,336,1,65.95656328217382,55.9839376203843,1.9706846014232744,57.46195507530244,2,c,0.5390191999999843,incorrect,n
336,4F4K,337,1,40.01598569412252,29.991705605472173,1.1490802609238189,34.936687984392584,2,c,0.6057882999998583,incorrect,n
337,4F4K,338,1,55.259619692976,37.984457230567486,1.5776624777370272,41.79318344367319,2,n,0.7696615999998357,correct,n
338,4F4K,339,1,49.81379826806764,61.88233310584232,1.408748376758879,62.19579810732735,1,c,0.7516298000000461,correct,c
339,4F4K,340,1,41.216440340068175,31.22664354437709,1.1781254832892163,35.970336630219414,2,n,1.1459219999997003,correct,n
340,4F4K,341,2,34.52081995728527,45.07497629433501,1.0250004895093427,48.05119865275974,2,v,0.5875540000006367,incorrect,b
341,4F4K,342,1,62.26691760611897,47.10902918647896,1.8251405008992772,49.843275320684405,2,n,0.502865099999326,correct,n
342,4F4K,343,1,36.3189499902037,51.88003794023052,1.0640518841594075,53.99336013157655,1,n,1.006347100000312,incorrect,c
343,4F4K,344,2,40.9826703466644,29.47673202375781,1.172412382559909,34.50920738660399,1,b,0.7993792000006579,incorrect,v
344,4F4K,345,2,46.026079635524674,58.0935964718966,1.3020477785496751,59.19399416038204,2,v,1.5342807999995784,incorrect,b
345,4F4K,346,2,52.11883655983978,35.010683979598824,1.4779168432304195,39.20193972049169,1,b,2.6828669999995327,incorrect,v
346,4F4K,347,2,50.54722800360636,42.40148038284754,1.4303982138285312,45.687690271970745,1,b,0.8378029999994396,incorrect,v
347,4F4K,348,2,53.42933786084555,38.12006285640716,1.5187455018583076,41.91212595407887,1,v,0.6604194999999891,correct,v
348,4F4K,349,1,51.0883933853483,70.98542063959087,1.4465857062720844,68.67879698049028,1,c,0.7700199999999313,correct,c
349,4F4K,350,1,49.853641932227895,72.86234678910994,1.4099160446545174,69.86265719488743,1,c,0.7275011000001541,correct,c
350,4F4K,351,2,59.87425705149264,36.54501160139611,1.7365545271973963,40.53444709974124,1,v,0.7575810999996975,correct,v
351,4F4K,352,1,45.251637658496406,57.15735129010066,1.2812474468514208,58.43018322483976,1,c,0.605788400000165,correct,c
352,4F4K,353,1,41.59677167687671,59.2195545289227,1.1874799465719212,60.10159992891429,1,n,0.781776799999534,incorrect,c
353,4F4K,354,1,53.0017936780519,45.210515722110856,1.5053028918836533,48.17085558904932,2,c,0.581523500000003,incorrect,n
354,4F4K,355,2,59.812863834262245,44.14691348044926,1.7343389935788136,47.23126992835804,1,v,1.909727600000224,correct,v
355,4F4K,356,1,41.5474663915319,48.15700923794039,1.1862630774807412,50.76254333573074,1,c,0.5815198999998756,correct,c
356,4F4K,357,1,53.660502261720175,64.62201390187641,1.5260635776615832,64.2650570066365,1,n,0.6368229999998221,incorrect,c
357,4F4K,358,2,35.37977975225298,49.76014932932559,1.04347308788528,52.16136711964402,2,v,0.8672937000001184,incorrect,b
358,4F4K,359,1,29.39750687832233,42.24893596630282,0.9214164159619525,45.55278013295875,1,n,2.4947197000001324,incorrect,c
359,4F4K,360,2,46.45716553642988,64.07270476092643,1.3137720389750198,63.85763101478838,2,v,1.153443000000152,incorrect,b
360,4F4K,361,2,39.4041990480759,50.804855149095104,1.134554546226762,53.06702638714494,2,b,1.3763560999996116,correct,b
361,4F4K,362,1,53.98199887084778,38.6237978508758,1.5363000012830044,42.35443604813968,2,c,0.6778401000001395,incorrect,n
362,4F4K,363,2,54.41376448249459,75.49787055522002,1.5501554907006925,71.42538117755042,2,v,0.7817427999998472,incorrect,b
363,4F4K,364,1,48.90609049815218,36.24971076085534,1.3824072750408556,40.27718498220569,2,n,0.5754494000002524,correct,n
364,4F4K,365,1,51.61859780047844,40.61610244446148,1.4626229797928143,44.10973018440876,2,n,2.0011672999999064,correct,n
365,4F4K,366,2,48.78255260353905,60.20406196474356,1.378860568855886,60.88476087641311,2,v,0.545498200000111,incorrect,b
366,4F4K,367,2,68.48898603042362,50.16674825011627,2.0772424032385826,52.51445715280439,1,b,0.5641215000005104,incorrect,v
367,4F4K,368,2,27.46863849090005,40.6749670608273,0.8851900592234626,44.16170333449581,2,b,0.7272832999997263,correct,b
368,4F4K,369,2,51.61731610487182,61.95980219748814,1.4625839983224498,62.25555092011624,2,v,1.085374199999933,incorrect,b
369,4F4K,370,1,47.90215991068936,31.953085534047588,1.3538470844833856,36.58364005160281,2,n,0.7824081999997361,correct,n
370,4F4K,371,2,56.4643295704375,68.24532503021614,1.617684077712803,66.8505924945839,2,b,0.8000019000000975,correct,b
371,4F4K,372,1,29.225700598795655,45.97757612514933,0.9181304266786658,48.84746499032281,1,n,0.5086913999994067,incorrect,c
372,4F4K,373,1,55.48989639512251,47.20641391981772,1.5852351826064468,49.92883605944472,2,n,0.6486048999995546,correct,n
373,4F4K,374,2,44.81152468845893,51.883247352147045,1.2695751021717614,53.9961157446211,2,b,0.49049099999956525,correct,b
374,4F4K,375,1,46.53885004620936,34.565964533768735,1.316005484333374,38.81780584846515,2,n,0.7514572999998563,correct,n
375,4F4K,376,2,73.57597010483795,59.58083270096603,2.309017493331118,60.39015259570546,1,b,0.7817990999992617,incorrect,v
376,4F4K,377,2,49.55415497398364,66.41605424995258,1.4011628564406169,65.56800416861667,2,b,1.6978681000000506,correct,b
377,4F4K,378,2,51.92543037865162,44.62372143268591,1.4719849402262308,47.65264304435471,1,b,0.4844186999998783,incorrect,v
378,4F4K,379,2,22.907782602375377,33.27497144987993,0.805096419589588,37.70876615021488,2,v,1.2672845999995843,incorrect,b
379,4F4K,380,1,42.98819785688593,60.05983189957097,1.2223402557622332,60.77065850501261,1,c,0.8485381999998935,correct,c
380,4F4K,381,1,61.88170000101929,50.49647408746979,1.810578841270498,52.800229583388536,2,n,1.20660880000014,correct,n
381,4F4K,382,1,29.26415393851909,37.67315755962528,0.9188648708801248,41.52035460997708,1,c,0.6300549000006868,correct,c
382,4F4K,383,1,59.54927422925663,46.69158562044576,1.7248587542421048,49.47623166921186,2,n,0.44346070000028703,correct,n
383,4F4K,384,2,43.61772511113015,61.65554087057563,1.2384466775171998,62.02047355607555,2,v,2.0258982000004835,incorrect,b
384,4F4K,385,2,70.96801783895877,57.84552882231663,2.18713236560961,58.99239928045275,1,v,0.8486083000007056,correct,v
385,4F4K,386,2,42.71710738968286,55.423070248450834,1.215469103757486,56.995121738585695,2,b,0.624015800000052,correct,b
386,4F4K,387,2,64.18989705970446,46.62461516143971,1.899601646513668,49.41730597681581,1,v,0.6604095000002417,correct,v
387,4F4K,388,2,51.774140428698566,61.149012136963655,1.467361372765182,61.626785073571206,2,v,0.7271441000002596,incorrect,b
388,4F4K,389,2,53.065536136602674,65.40541533266267,1.5072994744729369,64.83931892578681,2,v,0.8242840000002616,incorrect,b
389,4F4K,390,2,39.378922702705296,52.01131463992043,1.1339583733029646,54.10602662741186,2,v,0.8849927000001117,incorrect,b
390,4F4K,391,1,42.94317190654605,56.19404247398696,1.221196328469151,57.63617663362745,1,c,1.0124014000002717,correct,c
391,4F4K,392,2,47.18201621998858,53.38569301798304,1.3337243139385964,55.27932123037333,2,b,1.09735610000007,correct,b
392,4F4K,393,1,62.16945844902846,53.76481085989623,1.8214454053630824,55.60083581934798,2,n,1.4190333999995346,correct,n
393,4F4K,394,1,41.91548431831277,60.208348993504735,1.1953760388575647,60.88814903233256,1,c,1.0431842000007236,correct,c
394,4F4K,395,2,48.94848904205227,36.157295028082736,1.3836266159109023,40.1967480993026,1,b,1.2187145999996574,incorrect,v
395,4F4K,396,1,60.85966950741978,52.88798149074377,1.7725054768247532,54.85579161161222,2,n,0.47286069999972824,correct,n
396,4F4K,397,2,57.3774381808904,42.5078343378376,1.648693415006694,45.781753756705086,1,b,0.806095699999787,incorrect,v
397,4F4K,398,2,57.26208064193809,40.7921953114589,1.6447432811355531,44.26522156794155,1,b,0.8059192999999141,incorrect,v
398,4F4K,399,1,57.33608185651944,42.663838292033255,1.6472761801570168,45.919733944138336,2,n,0.4358420999997179,correct,n
399,4F4K,400,2,60.24560824246544,45.61258443367849,1.750016163662908,48.525641316022615,1,v,0.4662102000002051,correct,v
