,condition,trial,sub_task,x,y,xt,yt,cat,resp,rt,acc,correct_resp
0,4F4K,1,1,51.54484740064558,37.601005046032455,1.4603816254872388,41.19648780324307,2,c,5.0,NA,n
1,4F4K,2,1,62.13409300766298,47.35454365563815,1.8201064001256395,49.78006340123787,2,c,1.1035145999999258,incorrect,n
2,4F4K,3,2,45.99015580724186,68.83604815019724,1.3010754925184302,66.93915829309556,2,b,1.8924009000002115,correct,b
3,4F4K,4,2,47.33665778889176,26.944425136332278,1.3380200490620675,32.19921211984155,1,b,4.2971778999999515,incorrect,v
4,4F4K,5,1,68.92865902065343,53.10850874900946,2.096321179551366,54.75423989466413,2,n,3.1988851000000977,correct,n
5,4F4K,6,1,48.07413626619758,63.14763274058927,1.3586973091176924,62.85631154460729,1,n,1.2309893999999986,incorrect,c
6,4F4K,7,2,67.98472538310887,51.54144210355189,2.055574644160671,53.41574310854505,1,b,2.5543213000000833,incorrect,v
7,4F4K,8,2,59.86277536472654,50.61466723838667,1.7361399656745309,52.61766011469884,1,v,1.947105499999907,correct,v
8,4F4K,9,1,36.52588980833561,26.699648438001685,1.068640570213203,32.00287886810726,2,c,1.8379101999998966,incorrect,n
9,4F4K,10,1,59.17246114102102,70.65905225036197,1.7113962497088706,68.14934724308507,1,n,2.4887030999998387,incorrect,c
10,4F4K,11,2,64.74260926502173,52.27583740766654,1.9215603372801693,54.04484102234083,1,v,1.2855625999995937,correct,v
11,4F4K,12,1,57.40837826774354,70.72935399940249,1.6497544943587077,68.19498486433004,1,c,1.358436200000142,correct,c
12,4F4K,13,2,45.33566879848149,51.602484593059685,1.2834882281834572,53.46814935882432,2,v,1.1944704000002275,incorrect,b
13,4F4K,14,1,46.32650350962174,63.89645108946061,1.3102073121303337,63.41831809387275,1,c,1.5709732000000258,correct,c
14,4F4K,15,1,56.01324417035137,48.75589697948587,1.602581052891229,51.0047963874128,2,c,1.3341377000001557,incorrect,n
15,4F4K,16,2,66.4045879409064,51.06928572985627,1.989130098365384,53.00970767426759,1,v,3.3868447999998352,correct,v
16,4F4K,17,1,42.57020910904066,49.785159313886766,1.2117619191831144,51.89974846088944,1,n,1.7711500000000342,incorrect,c
17,4F4K,18,1,45.52650022060758,56.823044761112506,1.2885915207537328,57.85954923177924,1,n,1.6254958999998053,incorrect,c
18,4F4K,19,2,49.51088033977668,58.55887949433369,1.399902558148972,59.27156017327916,2,v,1.3101489999999103,incorrect,b
19,4F4K,20,1,44.69932237869281,66.4872116366267,1.2666164060363383,65.30701035813418,1,n,2.591788700000052,incorrect,c
20,4F4K,21,2,52.14510543417741,62.54634436159465,1.4787243697591004,62.40007432436033,2,v,2.6940334999999322,incorrect,b
21,4F4K,22,1,50.93253974948018,39.26758091839016,1.4419050767843755,42.6569322345463,2,c,1.8865515999996205,incorrect,n
22,4F4K,23,1,48.58298714044469,64.13050549843847,1.373150364696344,63.59254573509294,1,n,3.933046899999681,incorrect,c
23,4F4K,24,2,62.48859285445428,49.22393351599229,1.8335731022542927,51.41229102099438,1,v,1.964037400000052,correct,v
24,4F4K,25,1,59.97885836940008,41.992559271616784,1.7403358582775368,45.057204638498526,2,c,1.3696006000000125,incorrect,n
25,4F4K,26,2,33.70549221599666,45.18818008415863,1.0077688485195675,47.8763070405392,2,b,1.7103096999999252,correct,b
26,4F4K,27,1,42.49311744783465,59.29408749187702,1.209820928891654,59.86100743063899,1,c,3.4475611999996545,correct,c
27,4F4K,28,1,58.52539177476682,42.26119775753429,1.6885229090344078,45.29426403190672,2,n,2.646506600000066,correct,n
28,4F4K,29,1,42.17933620702146,59.88127309233804,1.2019526690815123,60.32787506242554,1,n,2.17913580000004,incorrect,c
29,4F4K,30,2,56.1363075179051,43.1239982491144,1.6066873583178105,46.05576418819067,1,v,2.2277493999999933,correct,v
30,4F4K,31,2,51.62867251265651,64.092962630367,1.4629294281155196,63.56464587013377,2,v,5.0,correct,b
31,4F4K,32,1,19.88881907772015,40.1906792184477,0.7561081824901422,43.46877664806453,1,c,2.3854797999997572,correct,c
32,4F4K,33,1,41.1022449494761,64.82285726260184,1.175331194434172,64.10382936376746,1,c,2.421900099999675,correct,c
33,4F4K,34,1,59.65426598598869,72.33400749627444,1.7286286524747447,69.21518343589594,1,n,2.2874385999998594,incorrect,c
34,4F4K,35,2,42.180310094963886,28.416287402027173,1.201977010588862,33.39184752194914,1,b,1.97651709999991,incorrect,v
35,4F4K,36,1,57.77835872364092,46.37220069163632,1.662495875828676,48.91807744115195,2,n,4.686478599999646,correct,n
36,4F4K,37,1,38.81553231261796,61.57119658631277,1.1207511419544778,61.65109613331739,1,c,2.1231118000000606,correct,c
37,4F4K,38,2,25.27318003187635,35.20031499687724,0.8456868208157015,39.109785194396935,2,v,2.045043500000247,incorrect,b
38,4F4K,39,2,35.78314562686255,53.19491487797515,1.0522622965141215,54.82760426196469,2,b,1.7105951000003188,correct,b
39,4F4K,40,1,38.06848069590449,47.90108707757684,1.1034753641987598,50.25848710698382,1,c,4.685571199999686,correct,c
40,4F4K,41,2,32.88693100592336,47.94809711278164,0.9907602755895708,50.29959466567784,2,b,4.770545200000015,correct,b
41,4F4K,42,1,53.80966410866565,72.62316182152199,1.5308043685797343,69.39457018608593,1,n,2.6283644000000095,incorrect,c
42,4F4K,43,2,78.6260348968459,61.78408350616347,2.5646839423163352,61.81554505929367,1,v,5.0,incorrect,v
43,4F4K,44,2,61.0391926161905,48.461418429669074,1.779134744291532,50.747984955092406,1,b,4.187205400000039,incorrect,v
44,4F4K,45,1,33.91921462194112,51.65714918210605,1.01225757466483,53.51506259776264,1,c,2.27724999999964,correct,c
45,4F4K,46,2,56.554810618294965,35.67865858914626,1.6207306162413293,39.52361407339196,1,v,2.1289701000000605,correct,v
46,4F4K,47,2,38.03315792172649,55.02694033129915,1.102665141000254,56.371077014450165,2,b,1.2615065999998478,correct,b
47,4F4K,48,2,52.55059808881997,41.73943803720976,1.4912456635559883,44.833874613057056,1,v,3.2108742000000348,correct,v
48,4F4K,49,2,57.67813894287323,72.61827395985534,1.6590348225725111,69.39154929795164,2,v,1.7226273000001129,incorrect,b
49,4F4K,50,1,41.02142863473078,58.98472656992187,1.17335767616849,59.613630937922366,1,c,1.8682192999999643,correct,c
50,4F4K,51,2,47.79770259720454,57.18248767813583,1.3509095457922278,58.15418068912379,2,v,5.0,correct,b
51,4F4K,52,2,50.468795954308085,63.69716139371858,1.42806720923371,63.26942578096945,2,b,2.28130979999969,correct,b
52,4F4K,53,2,41.6070442488041,56.83177693691892,1.1877336337847018,57.86672027676474,2,b,2.3672921000002134,correct,b
53,4F4K,54,1,56.44789265836362,42.3995218050426,1.6171312542834293,45.41633924088248,2,n,1.036750000000211,correct,n
54,4F4K,55,1,53.00822841984268,65.71217328566772,1.505504324963177,64.75136814203381,1,c,2.6160712000000785,correct,c
55,4F4K,56,1,28.38036550063273,45.30084408594741,0.9021323225156312,47.9755416904103,1,c,2.056676299999708,correct,c
56,4F4K,57,2,57.33238913819519,39.52092873978779,1.6471496941037314,42.879573175004346,1,v,4.121158299999934,correct,v
57,4F4K,58,2,52.38410786493911,36.17464582987397,1.486091797998343,39.95380468879574,1,b,3.7569412000002558,incorrect,v
58,4F4K,59,2,40.08694140862971,51.06247869211506,1.1507769602763918,53.00384528005807,2,b,1.7833426000001964,correct,b
59,4F4K,60,2,60.3707978459902,74.89847586292535,1.7545778188045602,70.75716585216497,2,v,1.0549946000001,incorrect,b
60,4F4K,61,1,38.29507625698592,56.224702625812405,1.108687123355383,57.36662569036304,1,c,3.5507511999999224,correct,c
61,4F4K,62,1,64.524684034743,57.7428445512038,1.9128722415732944,58.61120251205688,2,n,2.3500380999998924,correct,n
62,4F4K,63,1,80.61899109071103,64.70569261157962,2.6732036195384743,64.01774130937729,2,n,1.4253036000000066,correct,n
63,4F4K,64,2,53.463803874862165,64.39633456323904,1.5198343778432526,63.7895823745287,2,b,3.362504099999569,correct,b
64,4F4K,65,1,60.7201602957428,46.4494638435112,1.767370867660185,48.98596039806607,2,n,2.3186061999999765,correct,n
65,4F4K,66,2,54.86707211561958,32.30144417253593,1.5648367566718326,36.628047053649645,1,v,3.0780515000001287,correct,v
66,4F4K,67,1,40.73791771687987,54.3879222766901,1.1664605626791378,55.83541607879706,1,c,1.8742821000000731,correct,c
67,4F4K,68,1,50.8685842766216,44.21165456805157,1.439988737753112,47.015488813709176,2,c,5.0,correct,n
68,4F4K,69,2,47.83723539080857,63.187656535762194,1.3520205328811168,62.88652514682711,2,b,3.2776248000000123,correct,b
69,4F4K,70,2,25.14665226711353,47.687080638200925,0.8434646834114821,50.0712622652031,2,b,5.0,correct,b
70,4F4K,71,1,57.53378665464084,41.09891902152749,1.654062328916911,44.2689693812106,2,c,4.611730200000238,incorrect,n
71,4F4K,72,1,60.18704528538601,45.24426110878993,1.747886321783629,47.92570571996404,2,n,3.5942857000000004,correct,n
72,4F4K,73,1,49.19358888723852,68.6793506698094,1.3906965581636934,66.83277711559319,1,n,1.3393539999997301,incorrect,c
73,4F4K,74,2,50.34133991399916,39.89658925449785,1.4242873085345735,43.20995000768645,1,v,3.745729300000221,correct,v
74,4F4K,75,1,60.70178079286134,72.76327544257121,1.7666955234524302,69.48099764579979,1,n,3.144071499999882,incorrect,c
75,4F4K,76,2,64.52552986453018,48.91000100690614,1.912905886491396,51.13906034769528,1,v,5.0,incorrect,v
76,4F4K,77,1,56.001197083868725,33.43282383661293,1.6021796371946315,37.59082177634135,2,n,2.585684200000287,correct,n
77,4F4K,78,1,42.32238819581352,57.96684769301506,1.205533419787161,58.79309506511628,1,c,4.037233100000321,correct,c
78,4F4K,79,2,36.454929177329205,54.59456352203836,1.0670648632196251,56.00896442681702,2,b,2.3490961000002244,correct,b
79,4F4K,80,2,60.51242775022778,50.97260235031882,1.7597528621497989,52.92641903186134,1,v,1.7892516000001706,correct,v
80,4F4K,81,2,69.38528764770606,46.85490904996739,2.116321234460191,49.34195152833987,1,v,2.573390300000028,correct,v
81,4F4K,82,2,42.52269611163372,56.523514232102286,1.2105652835794762,57.6131711759091,2,b,4.121226100000058,correct,b
82,4F4K,83,2,44.20237780305533,62.86088793382092,1.2535950029439633,62.6392817144838,2,v,2.5493476999999984,incorrect,b
83,4F4K,84,1,43.8030803091216,28.312400366130124,1.2432292992027434,33.307012035947324,2,c,2.5065577999998823,incorrect,n
84,4F4K,85,2,50.62326933333938,35.91884785427121,1.4326617987053714,39.731805368974186,1,v,2.0759241999999176,correct,v
85,4F4K,86,1,56.60674428216623,33.738580572501135,1.6224818375767098,37.85235428526151,2,c,3.4414700000002085,incorrect,n
86,4F4K,87,2,24.395488075812008,37.925072082593175,0.8303921107014979,41.47983691998724,2,b,2.0320425999998406,correct,b
87,4F4K,88,2,64.07785930331752,42.76493071975568,1.8951811825577805,45.73884622848574,1,v,3.8845366000000467,correct,v
88,4F4K,89,2,50.95902190514438,61.08365897547075,1.4426993251047586,61.272559389580096,2,v,2.872027600000365,incorrect,b
89,4F4K,90,1,51.766031861852944,44.21139765850094,1.4671139775554791,47.01526221061395,2,n,3.7570670999998583,correct,n
90,4F4K,91,1,46.06407072040663,49.37925272676526,1.303076805834663,51.54732687749699,1,c,3.9764593999998397,correct,c
91,4F4K,92,1,35.192888977542715,53.232801640546505,1.0394257243916492,54.85975729187081,1,c,2.3248806999999942,correct,c
92,4F4K,93,2,39.94623626341604,50.92307749402557,1.1474148445301355,52.88373685592382,2,b,3.593221199999789,correct,b
93,4F4K,94,1,75.42797772788575,59.84463785611553,2.399675505959904,60.29885044949599,2,n,3.180482899999788,correct,n
94,4F4K,95,2,47.61759858617178,32.9291221740987,1.345859638859256,37.16119343428309,1,b,3.277600899999925,incorrect,v
95,4F4K,96,1,65.92509902951372,57.2458320610812,1.9693956421593724,58.2059853492641,2,n,2.980338500000016,correct,n
96,4F4K,97,1,66.24482635407944,52.08303252516549,1.9825328767314407,53.87998033255598,2,n,1.5698788999998214,correct,n
97,4F4K,98,2,52.2664073166527,65.10609409138343,1.4824590148324768,64.31119951950424,2,v,2.3733883999998397,incorrect,b
98,4F4K,99,1,46.82616348507639,35.63588663449168,1.3238915129837852,39.48656745592608,2,c,3.775270900000123,incorrect,n
99,4F4K,100,1,40.57172163080234,56.04308401215691,1.1624362906151309,57.21641095067271,1,c,4.205427599999894,correct,c
100,4F4K,101,1,49.98379282952852,33.04653757155114,1.4137370263532476,37.26120319981676,2,c,3.4779551999999967,incorrect,n
101,4F4K,102,2,63.78550912666456,47.64753024842179,1.883694849944613,50.03664577953492,1,v,4.3092054999997345,correct,v
102,4F4K,103,2,54.828904165360186,43.248419815325406,1.563595269438112,46.165576760349815,1,v,4.9767431000000215,correct,v
103,4F4K,104,2,46.923367201245,58.0321696153496,1.3265701938461425,58.84604920226069,2,b,2.5492968999997174,correct,b
104,4F4K,105,2,26.3912105531096,45.6367923705488,0.8655783480862087,48.27132456231681,2,b,4.922163699999601,correct,b
105,4F4K,106,1,53.94829167630034,42.905728121045016,1.5352235530230225,45.86311668864413,2,n,2.06374199999982,correct,n
106,4F4K,107,1,50.44782320325262,61.70668641026304,1.4274445419223958,61.755817866100855,1,n,1.497980799999823,incorrect,c
107,4F4K,108,1,40.85468636388301,64.26168992164263,1.1692963286955151,63.68989437171765,1,c,2.9913492999999107,correct,c
108,4F4K,109,2,47.68474302259622,36.40292310954358,1.3477400799840318,40.15215403183128,1,b,4.248631500000101,incorrect,v
109,4F4K,110,1,34.736662330254106,48.157964147406645,1.029611355344575,50.48302309852146,1,c,1.9472494000001461,correct,c
110,4F4K,111,1,59.77547553562765,46.6333576950585,1.7329911248637129,49.14747298897493,2,n,3.204756399999951,correct,n
111,4F4K,112,1,57.39707007729073,46.67889269958916,1.6493666047997195,49.187453634547104,2,c,2.271308599999884,incorrect,n
112,4F4K,113,1,41.39412704304147,54.96704786727913,1.182486580598862,56.32100118205946,1,c,1.6375583999997616,correct,c
113,4F4K,114,1,62.47224094281989,46.98511005227632,1.8329497412327476,49.45618457800316,2,n,1.230994400000327,correct,n
114,4F4K,115,2,61.794540043896426,45.87338599069254,1.8073002471362956,48.47951288137829,1,v,1.53583320000007,correct,v
115,4F4K,116,1,48.27309500523205,62.421821302962414,1.3643301975412896,62.30505042232398,1,c,2.888357299999825,correct,c
116,4F4K,117,1,67.21380627974065,49.29254847064102,2.0228848354652422,51.47195760563548,2,n,2.245894899999712,correct,n
117,4F4K,118,2,37.976248414474966,46.69796328186119,1.1013610189452911,49.20419649193787,2,b,2.3795310000000427,correct,b
118,4F4K,119,1,37.807953652594136,52.3634159113156,1.0975134420252208,54.11965373889796,1,c,1.7839442999998028,correct,c
119,4F4K,120,1,41.21002571175215,60.17492955078653,1.177968345442289,60.56001987147371,1,c,2.3552122999999483,correct,c
120,4F4K,121,1,42.24132311520819,57.20414124708751,1.203502962794282,58.17189354535226,1,c,3.2167309000001296,correct,c
121,4F4K,122,1,47.96817159033429,63.930022370845606,1.3557067516339922,63.44335066820011,1,c,1.6619049000000814,correct,c
122,4F4K,123,1,52.46337468047484,68.48213147637836,1.4885433535500294,66.69836647376003,1,n,1.0004059000002599,incorrect,c
123,4F4K,124,2,46.442030911208136,31.88926558807268,1.3133586393641858,36.27935581267196,1,v,4.145500699999957,correct,v
124,4F4K,125,2,60.32695860822626,68.107233752181,1.7529790546367534,66.44127829542357,2,v,2.883117200000015,incorrect,b
125,4F4K,126,2,68.82714462830494,57.9979055312603,2.0919006545140912,58.81827751201322,1,v,4.229523500000141,correct,v
126,4F4K,127,1,37.36649937517773,56.160564855144,1.0874846077843687,57.31360918538235,1,c,1.3280786000000262,correct,c
127,4F4K,128,2,39.81189740877171,33.81572980332583,1.1442140163490244,37.91843037154881,1,b,2.4218362000001434,incorrect,v
128,4F4K,129,2,40.79163102005211,53.83724664352589,1.1677641532154135,55.37143863154763,2,v,1.2006179999998494,incorrect,b
129,4F4K,130,2,56.267452686666445,38.073795858912135,1.6110749146220984,41.60998561342829,1,v,3.2036760999999387,correct,v
130,4F4K,131,1,45.32347561053247,37.91379149303391,1.2831628407194258,41.4699680409549,2,c,3.9148332999998274,incorrect,n
131,4F4K,132,2,46.873163471099694,67.45061603262957,1.325186033941861,65.98605933027525,2,v,3.8298414000000776,incorrect,b
132,4F4K,133,1,61.74805993841684,49.21624016183941,1.80555428722785,51.4055998007898,2,n,2.318725600000107,correct,n
133,4F4K,134,1,39.66262375196152,57.63719047317515,1.1406678158394346,58.525249883272174,1,c,2.3562631999998302,correct,c
134,4F4K,135,1,55.793136296117005,39.09707743926155,1.595262776761354,42.50717650870361,2,n,0.9335660000001553,correct,n
135,4F4K,136,2,46.71071411430519,55.54321461741147,1.32071705573638,56.80158770519275,2,b,4.812085600000046,correct,b
136,4F4K,137,1,49.44128680974662,32.52549635090143,1.3978781448543445,36.818063897939794,2,n,4.0484206000000995,correct,n
137,4F4K,138,2,42.78337568894803,46.34438002548446,1.2171451875635806,48.89363107733812,2,b,2.9377558000001045,correct,b
138,4F4K,139,1,57.85061027687173,46.19276259219541,1.664995534842658,48.760373102672325,2,n,4.1021357999998145,correct,n
139,4F4K,140,1,64.39975903302249,77.19623588021803,1.9079095409801727,72.04203575567169,1,n,1.4001745000000483,incorrect,c
140,4F4K,141,1,42.83735706940386,54.769582752929765,1.2185122138371127,56.15570991130316,1,c,1.3765960000000632,correct,c
141,4F4K,142,2,47.53554674136424,57.151040006878986,1.3435652639398497,58.1284487432011,2,b,2.2143851999999242,correct,b
142,4F4K,143,1,23.916824076393,41.25589443382401,0.822167769777886,44.40737759239895,1,c,1.4979558999998517,correct,c
143,4F4K,144,2,62.91820829450703,44.62106565056342,1.850026900872511,47.376523776035,1,v,2.8830880999998953,correct,v
144,4F4K,145,1,64.20697068352267,49.62116280425491,1.9002761932710013,51.757445973043055,2,n,1.2130653000003804,correct,n
145,4F4K,146,1,75.96599111928029,55.225965509665016,2.4266730312943623,56.53728455051175,2,n,1.4812227000002167,correct,n
146,4F4K,147,2,39.276983195026034,58.30548410406498,1.1315571854461244,59.06718024141908,2,b,3.4544104000001425,correct,b
147,4F4K,148,2,41.61974456686179,59.273469013316905,1.1880473505415956,59.84454995869278,2,b,2.2397526999998263,correct,b
148,4F4K,149,1,57.430854375836034,46.6831521601595,1.6505257327528322,49.191193269063184,2,n,1.0246425000000272,correct,n
149,4F4K,150,2,62.93536548137277,75.92274494026321,1.8506870595181224,71.34147429269777,2,v,1.4676448000004712,incorrect,b
150,4F4K,151,1,41.69069517740496,55.100396106248944,1.189801461316181,56.432455832242574,1,c,1.6983330999992177,correct,c
151,4F4K,152,2,51.24255535438278,31.876191577452044,1.451230478594627,36.26831447181936,1,v,3.647765900000195,correct,v
152,4F4K,153,2,72.5899368950672,53.74861920296734,2.26215550567848,55.29656695909223,1,v,3.6902727999995477,correct,v
153,4F4K,154,2,50.697522066717895,64.9095299056552,1.4348755976171887,64.16739787781205,2,b,1.8320972999999867,correct,b
154,4F4K,155,1,61.19466246836736,70.18545009933175,1.7848958248466236,67.83987857165809,1,n,2.4097328999996535,incorrect,c
155,4F4K,156,2,38.02255024585567,57.34187877877809,1.1024219414853167,58.28446656886224,2,b,1.88556619999963,correct,b
156,4F4K,157,2,58.71915673259558,39.24178313059594,1.695340079298348,42.63426931152086,1,b,2.1770039000002726,incorrect,v
157,4F4K,158,2,58.15183309636028,38.31505836809866,1.67545738570548,41.8212574714198,1,v,2.282338300000447,correct,v
158,4F4K,159,2,48.43688315220001,55.56143915143173,1.3689848629076415,56.8167467371597,2,b,2.1957950999994864,correct,b
159,4F4K,160,1,70.49423081071971,50.582872000033625,2.165690264279395,52.59020235541935,2,n,0.8839649000001373,correct,n
160,4F4K,161,1,53.30527129677627,45.95388622407454,1.514832352905917,48.55032419153202,2,n,3.847124900000381,correct,n
161,4F4K,162,2,54.99278493495956,62.48020011283697,1.568932786347928,62.34962230357868,2,v,2.6889661000004708,incorrect,b
162,4F4K,163,2,57.13071996740207,73.53981221600111,1.640256682818809,69.95406052702644,2,b,1.212911399999939,correct,b
163,4F4K,164,2,65.3614005797559,50.616567255914205,1.946445590734306,52.61930077657936,1,v,1.4862224999997125,correct,v
164,4F4K,165,1,41.89121693585896,29.0456418143855,1.1947729731646617,33.9078256068054,2,c,1.5162495000004128,incorrect,n
165,4F4K,166,1,50.03425892299313,55.51926128979467,1.4152213989664963,56.78165951073,1,n,3.8359267000005275,incorrect,c
166,4F4K,167,2,67.77649045861874,49.33023962966166,2.046692995234403,51.50472513437528,1,v,4.157600800000182,correct,v
167,4F4K,168,2,49.44698885162331,63.08616318582442,1.3980439019699276,62.80987073900254,2,b,2.7618037000002005,correct,b
168,4F4K,169,2,43.261537085783374,29.222174346637445,1.2293077341405758,34.053172428407315,1,b,1.249134900000172,incorrect,v
169,4F4K,170,1,56.2346839154398,42.98357586853382,1.6099774901253965,45.93182643904241,2,n,1.2673728999998275,correct,n
170,4F4K,171,1,77.34315359780202,60.62301482444465,2.4971709846837,60.91248324536553,2,n,1.1705548999998427,correct,n
171,4F4K,172,2,35.0046389261745,18.512390125786325,1.0353647942032738,25.82850722405673,1,v,2.1898589000002175,correct,v
172,4F4K,173,2,57.06869946216448,44.93849681829463,1.6381426398462784,47.65631966926746,1,v,5.0,correct,v
173,4F4K,174,1,47.7161741917033,37.87869785231295,1.3486212411085738,41.43926875921904,2,c,3.5021551999998337,incorrect,n
174,4F4K,175,1,58.2856988927421,44.722758867749306,1.6801277884469432,47.46617335892279,2,n,1.4667607000001226,correct,n
175,4F4K,176,2,81.78907774254695,65.6515532757235,2.739043792288584,64.70756368114868,1,v,3.878432999999859,correct,v
176,4F4K,177,2,57.1338844964793,69.44059139534949,1.640364622693987,67.34612169503696,2,v,2.6464992000001075,incorrect,b
177,4F4K,178,1,53.53256217927908,67.11714442761372,1.5220089741677805,65.75249733493901,1,n,2.670641599999726,incorrect,c
178,4F4K,179,2,62.20375122629857,54.17072024141535,1.8227447381265884,55.65266607400125,1,b,3.5991916000002675,incorrect,v
179,4F4K,180,1,39.94109947590374,56.90648148949664,1.1472922882455563,57.9280421587286,1,c,1.528359800000544,correct,c
180,4F4K,181,2,40.03394041041434,57.68848981014597,1.1495093591342898,58.566996148508494,2,b,2.414841400000114,correct,b
181,4F4K,182,2,64.76170429283368,44.609038344781816,1.9223234826303908,47.36592009430589,1,v,1.601118900000074,correct,v
182,4F4K,183,2,39.83446771974075,23.78004444305305,1.1447511637034395,29.709244202328613,1,b,1.7650118999999904,incorrect,v
183,4F4K,184,2,46.196586993771824,59.9669932511575,1.3066725141340143,60.39573301572602,2,b,1.9045539999997345,correct,b
184,4F4K,185,1,44.78324172594182,57.76314466893695,1.268828649449015,58.62770550346351,1,c,3.078332600000067,correct,c
185,4F4K,186,1,50.81285824939562,35.05631376494882,1.4383210594050173,38.98541954178849,2,n,3.757057700000587,correct,n
186,4F4K,187,1,45.31965288974137,26.44517671778036,1.2830608445627212,31.799399913356503,2,c,1.576848599999721,incorrect,n
187,4F4K,188,2,33.68813972695472,48.248029925377054,1.0074052759812713,50.56169742121741,2,b,2.164529599999696,correct,b
188,4F4K,189,1,64.92286232524424,43.709222562067296,1.92877635458834,46.57223091193608,2,n,1.322080800000549,correct,n
189,4F4K,190,2,33.39263140260381,19.568427771175745,1.0012338292275844,26.577213708236627,1,b,1.9895464000001084,incorrect,v
190,4F4K,191,2,45.28646395692149,34.76449570745281,1.2821756527240094,38.73370864306678,1,b,2.6464623000001666,incorrect,v
191,4F4K,192,2,61.18207666806919,47.159468891082405,1.7844287531009555,49.60908990147362,1,v,2.336045500000182,correct,v
192,4F4K,193,1,44.83289428145672,37.66964150111658,1.2701393863328487,41.25647176230221,2,c,1.7107269999996788,incorrect,n
193,4F4K,194,1,49.09450879559334,27.95489706694048,1.3878342381921576,33.015816606198946,2,c,3.3746751999997286,incorrect,n
194,4F4K,195,1,39.253251531195005,25.234222484007173,1.1309989154911984,30.840198005857992,2,c,1.4374496000000363,incorrect,n
195,4F4K,196,1,50.31795490094016,32.085806983758296,1.4235948777825678,36.44548103711154,2,n,1.5951759999998103,correct,n
196,4F4K,197,2,39.946973581995614,53.32917214650992,1.1474324369542788,54.94150096445496,2,v,1.2612764999994397,incorrect,b
197,4F4K,198,2,42.01614497972179,57.20947833865064,1.1978807961466624,58.17625870486546,2,b,3.0036973000005673,correct,b
198,4F4K,199,2,22.893179160572814,41.18232590114911,0.8048519730488084,44.34250753202642,2,b,1.0419308999998975,correct,b
199,4F4K,200,2,48.84538531473872,34.53482928700667,1.3806633234734058,38.535912887933016,1,v,2.23364969999966,correct,v
200,4F4K,201,2,37.26722494038042,46.24838712443843,1.0852419703561464,48.80926781255488,2,v,1.7952043000004778,incorrect,b
201,4F4K,202,2,60.59956831476555,52.29889542837337,1.762944490421588,54.06454244598977,1,v,0.9812526000005164,correct,v
202,4F4K,203,2,38.94559356580698,25.002261112123733,1.1237863695183885,30.658228315003413,1,b,1.067093699999532,incorrect,v
203,4F4K,204,2,57.11302659702973,38.245769962025086,1.6396533051827915,41.76056450255624,1,v,1.6800671999999395,correct,v
204,4F4K,205,1,48.61366406872792,37.26297231091048,1.374026588830395,40.901301881528575,2,n,1.8135714000000007,correct,n
205,4F4K,206,2,62.38674569938243,43.1144431715519,1.8296939748568344,46.04733089819195,1,v,1.5340415000000576,correct,v
206,4F4K,207,2,47.27993976574147,56.90416403704443,1.3364428941965485,57.92614058719381,2,b,3.5871076000003086,correct,b
207,4F4K,208,2,59.99077063300959,49.02841095685895,1.740767007761019,51.24216378561428,1,v,1.5893750999994154,correct,v
208,4F4K,209,2,55.16662650078084,42.263514056749806,1.57461463797859,45.296308181734126,1,v,1.7528418000001693,correct,v
209,4F4K,210,1,20.992061111563658,35.28172079324909,0.7736547677838193,39.18013530682493,1,c,1.2372420000001512,correct,c
210,4F4K,211,2,55.30702144967886,32.88151032384067,1.5792183334077627,37.12066403516337,1,v,2.0685198999999557,correct,v
211,4F4K,212,2,55.981221339336905,42.498873662330695,1.6015142557242326,45.50402384342176,1,v,1.3694101000000956,correct,v
212,4F4K,213,2,35.41382242734111,50.09788191322393,1.0442120214181492,52.17077347912274,2,b,1.5646982999996908,correct,b
213,4F4K,214,1,53.95794980630168,30.014335473993498,1.535531910865799,34.70859584132961,2,n,2.3671497999994244,correct,n
214,4F4K,215,2,31.46022960518725,50.15863590647182,0.961798704549328,52.223375271413,2,b,1.7468589000000065,correct,b
215,4F4K,216,1,50.08701686343832,42.00737895475071,1.4167748486230558,45.070281308593,2,n,1.9046143999994456,correct,n
216,4F4K,217,1,55.597360655793366,44.16868740258881,1.5887815997139323,46.97758950565111,2,n,1.2127321999996639,correct,n
217,4F4K,218,2,50.6633826845833,61.97813191172347,1.4338573287239824,61.96498953118007,2,v,2.3370114999997895,incorrect,b
218,4F4K,219,1,53.454819740712594,35.95669053344617,1.5195504691826085,39.76463000502551,2,n,1.4737645000004704,correct,n
219,4F4K,220,1,54.10898735407466,65.90236563247466,1.5403621948955506,64.8884802752847,1,n,0.7818466999997327,incorrect,c
220,4F4K,221,2,31.554986055603337,48.19653518797772,0.9636957058360376,50.51671907374742,2,b,3.0721364000000904,correct,b
221,4F4K,222,2,56.1937715903175,40.11024406355362,1.6086083876450614,43.39797091125408,1,v,3.3746009999995294,correct,v
222,4F4K,223,2,61.026375879680366,50.92499462691531,1.7786606386307622,52.88538933827932,1,v,2.3126517000000604,correct,v
223,4F4K,224,1,60.89163745443999,44.02751368610993,1.7736841500168714,46.85305623227541,2,n,1.765041000000565,correct,n
224,4F4K,225,1,67.3749547892401,53.79825568073642,2.029674870711999,55.33850605165666,2,n,1.5104824000000008,correct,n
225,4F4K,226,2,64.35321326712695,53.02500692681286,1.9060637840049333,54.68329576067801,1,v,1.449461799999881,correct,v
226,4F4K,227,1,38.09294915838272,48.77800631894805,1.1040369634612175,51.024064786569184,1,c,1.6439253999997163,correct,c
227,4F4K,228,1,57.5538197520769,49.91903047039886,1.6547515160352877,52.01582327298005,2,n,3.3030171000000337,correct,n
228,4F4K,229,2,38.47013390412901,55.23272317863263,1.11273034463387,56.542922593371735,2,b,1.4918766999999207,correct,b
229,4F4K,230,1,60.90784252651025,69.59480128974889,1.7742819379483268,67.44904490471747,1,n,1.5879376000002594,incorrect,c
230,4F4K,231,2,62.539549282200845,47.48470345758548,1.8355170027534224,49.894081833911926,1,v,2.870947899999919,correct,v
231,4F4K,232,2,36.3472639447891,46.42160271535048,1.064678552722046,48.9614833317579,2,b,2.7677669000004244,correct,b
232,4F4K,233,2,46.93098120585072,62.872832844999074,1.3267802447076718,62.64834234742069,2,b,2.494758899999397,correct,b
233,4F4K,234,2,42.33297740791716,30.84807755107004,1.2057989032253846,35.40384053599292,1,b,3.7498673999998573,incorrect,v
234,4F4K,235,1,51.55062303772348,62.42532681823795,1.4605570293088903,62.307727998769664,1,n,3.3747215000003052,incorrect,c
235,4F4K,236,2,73.39755706292036,51.73496273635479,2.300466921282059,53.5818136697605,1,b,1.218877799999973,incorrect,v
236,4F4K,237,1,31.91452209606306,52.470490854256695,0.9709276247701104,54.21105857825509,1,c,1.3401538999996774,correct,c
237,4F4K,238,1,68.22937590020663,47.10037333280874,2.0660587472154868,49.55727475445281,2,c,1.2238545999998678,incorrect,n
238,4F4K,239,2,51.54732623304307,59.53781817984383,1.4604569040696986,60.05522474750755,2,v,1.6860870000000432,incorrect,b
239,4F4K,240,2,35.852898781236284,43.99287905662285,1.0537896852458035,46.82250171741209,2,b,2.810280299999249,correct,b
240,4F4K,241,2,41.23678370039332,48.206519096209774,1.1786239691219742,50.52544027634429,2,b,3.3987182000000757,correct,b
241,4F4K,242,2,43.238242555834674,55.57849875004055,1.2287124064271309,56.83093440103676,2,b,1.9161352000000988,correct,b
242,4F4K,243,1,44.58306836988693,31.394512425006297,1.2635581423425866,35.86235573165599,2,c,1.710422799999833,incorrect,n
243,4F4K,244,1,56.97636853552637,42.86895230164371,1.6350004763723165,45.830657639114094,2,n,1.1935640000001513,correct,n
244,4F4K,245,2,46.482860054683,53.622112211974034,1.314474178202789,55.18960211462688,2,b,2.980279200000041,correct,b
245,4F4K,246,2,41.470010323740325,58.2750006371407,1.1843539564040244,59.04255195358613,2,b,3.470956500000284,correct,b
246,4F4K,247,2,42.703362715083365,33.347146480323055,1.21512175716697,37.5176354752306,1,b,1.4555173000007926,incorrect,v
247,4F4K,248,1,39.83046090219278,62.55308342756456,1.1446557876639938,62.40521168588716,1,c,2.9437874999994165,correct,c
248,4F4K,249,1,44.40288097187165,34.40003606884861,1.2588325855469642,38.41995350678909,2,n,4.400345799999741,correct,n
249,4F4K,250,2,59.27812402780994,41.46157622317113,1.715160660123951,44.58876884910025,1,v,1.5647642000003543,correct,v
250,4F4K,251,1,49.18792559658664,38.36289666641472,1.39053279267911,41.86316939165872,2,c,2.506982599999901,incorrect,n
251,4F4K,252,1,66.2074706677289,58.44417029793381,1.980993463669365,59.17911604436707,2,n,2.452287599999181,correct,n
252,4F4K,253,1,68.03213242991941,56.28912829566957,2.05760203253383,57.41984575030679,2,n,1.4733618000000206,correct,n
253,4F4K,254,2,46.49841884901614,54.57481808001801,1.314899526767637,55.99239461442534,2,b,2.3853712000000087,correct,b
254,4F4K,255,1,43.95876739709336,29.168314165237845,1.2472606791830851,34.00879889800505,2,c,1.8499847000002774,incorrect,n
255,4F4K,256,1,34.674537847327045,51.55650161828958,1.028282118604464,53.42867391938784,1,c,3.5446702999997797,correct,c
256,4F4K,257,2,50.944137614568106,66.66780788588981,1.4422528641571173,65.43529553047816,2,v,2.4824908999999025,incorrect,b
257,4F4K,258,2,74.1231996578439,54.97255855988913,2.3354426038952365,56.32560978407858,1,v,2.7799495999997816,correct,v
258,4F4K,259,1,36.68568921709704,46.54707650335785,1.072197500126402,49.07170275049321,1,c,1.9774410999998508,correct,c
259,4F4K,260,1,73.4579209125353,54.87873115584615,2.303356351667588,56.24711048254415,2,n,1.8560572999995202,correct,n
260,4F4K,261,2,27.67603799144867,50.807393906657936,0.8890159079026064,52.78398828121039,2,b,1.454512899999827,correct,b
261,4F4K,262,1,42.20639177764231,59.30100493783967,1.202629083651447,59.866527909627045,1,c,2.9863585000002786,correct,c
262,4F4K,263,1,53.12432576743631,64.43237968660007,1.5091432688459556,63.81622999618989,1,n,1.0493847999996433,incorrect,c
263,4F4K,264,2,43.68566479147206,40.06772680418071,1.2401975492919235,43.360548226110666,1,v,3.556797899999765,correct,v
264,4F4K,265,1,35.17660162872997,49.8068968035093,1.039073745166123,51.9186016379164,1,c,2.579708799999935,correct,c
265,4F4K,266,2,55.972023722171095,62.199022425506186,1.6012079808834374,62.13457609387895,2,v,1.2789273999997022,incorrect,b
266,4F4K,267,2,55.8391192099034,65.69670221468442,1.596788877087382,64.74019334008321,2,b,1.3466346000004705,correct,b
267,4F4K,268,2,59.67686248180953,39.81067922772432,1.7294410929583377,43.1343712344106,1,v,2.6706930000000284,correct,v
268,4F4K,269,1,55.85592941772323,60.68816959591695,1.597347145691756,60.96355411054132,1,n,5.0,correct,c
269,4F4K,270,2,37.01096095243118,44.79167148948911,1.0794742493604457,47.52691763348219,2,b,2.6403129000000263,correct,b
270,4F4K,271,1,46.05278551668412,62.914866673374334,1.302771049701684,62.68021281282211,1,n,4.703790799999297,incorrect,c
271,4F4K,272,2,46.833478738306844,63.34453105066529,1.324092913931804,63.00475950109596,2,b,2.8223494000003484,correct,b
272,4F4K,273,2,42.50117687663065,32.489791426946944,1.2100237011154558,36.787760833827,1,b,2.6586301999996067,incorrect,v
273,4F4K,274,2,33.1936144737104,41.87680878643541,0.997098844500196,44.95507244591184,2,b,1.6861698000002434,correct,b
274,4F4K,275,2,61.73694204882506,49.60071395192258,1.8051369093542489,51.73969402267642,1,v,2.2884597999991456,correct,v
275,4F4K,276,1,41.54702204025363,24.76044701814092,1.1862521164308044,30.469152300359895,2,c,1.4372172000003047,incorrect,n
276,4F4K,277,1,39.257973007640736,59.7465384392378,1.1311099628034362,60.2210616533867,1,c,3.2472510999996302,correct,c
277,4F4K,278,2,42.053707421569904,26.059810059855668,1.1988168131923624,31.49250005398741,1,v,5.0,correct,v
278,4F4K,279,2,42.05557459215392,55.64104953910256,1.1988633602216603,56.88293517698307,2,v,5.0,correct,b
279,4F4K,280,2,66.82345928603738,54.89283353650965,2.0065314635644,56.25891326481619,1,v,1.7347592000005534,correct,v
280,4F4K,281,1,29.400721865626338,51.00162790662307,0.9214780181928984,52.95142838330074,1,c,2.131322899999759,correct,c
281,4F4K,282,2,68.23976673762756,47.05079383621504,2.0665052116328844,49.51379603570351,1,v,2.2559245000002193,correct,v
282,4F4K,283,2,50.5822108305638,63.99179409442928,1.4314391319026252,63.48937393757024,2,v,2.7556385999996564,incorrect,b
283,4F4K,284,2,34.799279906461024,52.88391456246912,1.030952881268923,54.56332092864224,2,b,3.168353500000194,correct,b
284,4F4K,285,1,52.98197963951493,37.41973718287954,1.5046828027101165,41.03814725289762,2,n,1.6679246999992756,correct,n
285,4F4K,286,2,38.28950635744603,52.38575988952752,1.10855871953923,54.13873343439512,2,b,2.062289200000123,correct,b
286,4F4K,287,1,60.14139864530989,45.37456492720478,1.7462280236324472,48.04046448998805,2,n,2.6222822999998243,correct,n
287,4F4K,288,1,37.127924545106765,57.84937214356325,1.0821029307626169,58.697761818854616,1,c,1.3523629999999685,correct,c
288,4F4K,289,1,38.624123136892734,51.432821948050425,1.116299147169034,53.32244002050206,1,c,1.0734316000007311,correct,c
289,4F4K,290,2,49.65743648953007,35.094821373114506,1.4041753378807218,39.01866642170272,1,v,2.5675614000001588,correct,v
290,4F4K,291,2,48.33687310408442,62.10356167100356,1.3661408112134383,62.06135661231808,2,v,4.4731942999997045,incorrect,b
291,4F4K,292,2,49.53914904378131,37.676748348236494,1.4007257064261338,41.262683592103336,1,v,1.97886329999983,correct,v
292,4F4K,293,1,66.49241818041561,51.09198975688204,1.992766322333758,53.02925922074279,2,n,2.0309127000000444,correct,n
293,4F4K,294,2,44.61835047504804,61.233374679085614,1.2644855181470953,61.38908557632282,2,b,4.2971724999997605,correct,b
294,4F4K,295,2,50.7755557073411,69.45580294682406,1.4372058085706083,67.35629035913927,2,v,4.794812699999966,incorrect,b
295,4F4K,296,1,75.94296871929261,62.01231192513687,2.4255115703194563,61.99126794681718,2,n,1.3462909999998374,correct,n
296,4F4K,297,1,62.29085342700388,41.06032087950537,1.826049156755657,44.234940801678526,2,n,1.0306731000000582,correct,n
297,4F4K,298,1,52.69436251885647,39.24587719521363,1.495710408758171,42.63786577646744,2,n,1.5307819999998173,correct,n
298,4F4K,299,2,63.38392524987783,55.500539014413455,1.868030172229468,56.766080184764334,1,v,2.003068600000006,correct,v
299,4F4K,300,2,27.416812625109664,44.7722022373832,0.8842366138540967,47.50975669447752,2,b,1.5404736000000412,correct,b
300,4F4K,301,2,69.26362440217282,61.44660251356581,2.110973886385904,61.55461204684415,1,v,1.243170600000667,correct,v
301,4F4K,302,2,33.65467414311006,50.77680573294092,1.0067044692904366,52.75760223679788,2,b,0.8667546000006041,correct,b
302,4F4K,303,2,38.02918031355311,57.88316232069544,1.102573941092336,58.7251962086809,2,b,1.0003458000001046,correct,b
303,4F4K,304,2,55.261688143237706,66.44629683081449,1.5777303379525551,65.27788389558229,2,b,3.1492559999996956,correct,b
304,4F4K,305,1,61.82779634687427,53.05733558579206,1.808550509528061,54.71076787797709,2,n,1.7528987000005145,correct,n
305,4F4K,306,1,30.213055883057137,41.6550740914729,0.9371758456980166,44.75944955690844,1,c,0.8546079999996437,correct,c
306,4F4K,307,2,56.46798739468338,45.59053335625089,1.6178071271914054,48.23060752567258,1,v,3.3059288000004017,correct,v
307,4F4K,308,1,55.54201409355852,36.10303967398754,1.5869541237351923,39.89163148373666,2,n,2.4218925000004674,correct,n
308,4F4K,309,2,54.85441084811084,70.34512346176929,1.5644248149601945,67.9446069103275,2,b,3.6711994999996023,correct,b
309,4F4K,310,1,47.74087443243781,59.409023546643546,1.3493141074029809,59.95266960060812,1,c,2.2640943999995216,correct,c
310,4F4K,311,2,37.13883191961165,42.98985035214507,1.0823483930441389,45.93736438807841,2,b,1.4251586000000316,correct,b
311,4F4K,312,1,41.96076529854563,58.76541037366152,1.1965021248644403,59.43768215252632,1,c,3.0407645000004777,correct,c
312,4F4K,313,2,33.60248023949669,47.59827369855208,1.0056124436539704,49.99352731665812,2,b,2.7556800000002113,correct,b
313,4F4K,314,1,45.537551564301175,65.04395873425241,1.2888876811437384,64.26579767969058,1,c,1.3887510999993538,correct,c
314,4F4K,315,2,36.64650481903683,57.78139361653075,1.0713242115833483,58.64253775582945,2,b,1.061071100000845,correct,b
315,4F4K,316,1,64.71012322356906,49.065414817032,1.9202627073473195,51.27437305160368,2,n,2.324758099999599,correct,n
316,4F4K,317,1,26.357013070488083,40.51285840273809,0.8649630397064367,43.75249256480479,1,c,0.9760810000007041,correct,c
317,4F4K,318,2,39.82770267535005,54.90730198529365,1.1445901369958518,56.271020867968105,2,b,1.8378708000000188,correct,b
318,4F4K,319,2,59.94220389032004,70.37529951604655,1.7390098649604904,67.96435442791312,2,v,1.6085069000000658,incorrect,b
319,4F4K,320,2,52.83640015316099,37.70079812387029,1.5001346539108928,41.28370583563488,1,b,2.9437951999998404,incorrect,v
320,4F4K,321,2,51.781070475245805,36.45155797050428,1.4675728439713975,40.194440514432536,1,v,5.0,incorrect,v
321,4F4K,322,2,55.95398092375613,48.10001438673246,1.6006073372335483,50.43238830574803,1,v,3.356540199999472,correct,v
322,4F4K,323,2,56.377516323001416,40.85328247121768,1.6147664190188027,44.05244333584651,1,v,1.279541099999733,correct,v
323,4F4K,324,1,63.79344566687925,58.53388063087414,1.8840057525238103,59.25142440101364,2,n,2.2869927000001553,correct,n
324,4F4K,325,2,46.056268601938605,52.91047575388194,1.3028654111606983,54.58591630540412,2,v,3.4900135999996564,incorrect,b
325,4F4K,326,1,56.88817059904908,71.63899931612698,1.6320045934931682,68.778411613723,1,n,2.2276653999997507,incorrect,c
326,4F4K,327,1,54.050497087739885,44.12899207023461,1.5384898360671857,46.942574753327534,2,n,3.6104018000005453,correct,n
327,4F4K,328,2,55.79838425871552,43.70715452238866,1.5954368745984808,46.57040609726954,1,v,1.9228152999994563,correct,v
328,4F4K,329,2,70.69982836886284,56.71784711110134,2.17496901929855,57.7731069241372,1,v,2.494678799999747,correct,v
329,4F4K,330,2,42.19722717502376,29.244481197520248,1.2023999173925783,34.07155746723654,1,b,1.7106713000002856,incorrect,v
330,4F4K,331,2,51.72549587625966,32.44380644287018,1.4658778357845406,36.74874523604168,1,v,2.4886851000001116,correct,v
331,4F4K,332,1,34.86364372359617,49.19598213081925,1.0323336406061696,51.38797943326816,1,c,4.27290290000019,correct,c
332,4F4K,333,1,52.04411988367505,45.06027135920567,1.4756224020836233,47.76362199559249,2,n,1.6376248000005944,correct,n
333,4F4K,334,2,53.48733390084252,50.10980481276158,1.5205782043304308,52.181097858104025,1,v,2.227679100000387,correct,v
334,4F4K,335,2,57.29446777772375,45.20163297795747,1.6458513420336724,47.8881573825815,1,v,1.1209662999999637,correct,v
335,4F4K,336,2,48.550734815389866,66.61515564394549,1.3722297451003265,65.39794128542164,2,b,1.279530399999203,correct,b
336,4F4K,337,2,39.50602074423521,54.96822886299834,1.1369593091944672,56.321988870223,2,b,1.7967559000007896,correct,b
337,4F4K,338,1,44.503909694699686,33.990510904213274,1.2614799627509146,38.0682504236758,2,c,1.1025161000006847,incorrect,n
338,4F4K,339,1,25.970434135523995,37.3346012134421,0.8580377484570657,40.96381849005825,1,c,1.6850944000007075,correct,c
339,4F4K,340,1,36.38862334553842,49.96006397107437,1.065594617591909,52.0513859442315,1,c,2.9428963000000294,correct,c
340,4F4K,341,2,49.26406239398446,57.280100142200105,1.3927360559415574,58.23399577232963,2,v,2.464427400000204,incorrect,b
341,4F4K,342,1,43.59079179717894,51.62877798965995,1.2377532641470697,53.490716459245846,1,c,3.945994200000314,correct,c
342,4F4K,343,1,31.1782850774823,47.414523784348816,0.9561763000302096,49.832611384580765,1,c,1.4493238000004567,correct,c
343,4F4K,344,1,54.211352760937146,69.90456553473031,1.5436445464323512,67.65468774462374,1,n,2.906307100000049,incorrect,c
344,4F4K,345,2,61.276373451410905,44.669258274716015,1.787931176684974,47.41901038853753,1,v,2.560651699999653,correct,v
345,4F4K,346,1,66.95914325307919,43.34121456432349,2.0122008236372557,46.24747353887815,2,c,1.0489164999999048,incorrect,n
346,4F4K,347,1,48.48149563358375,35.82942281849673,1.370255446382417,39.654263418827874,2,c,4.7694721999996545,incorrect,n
347,4F4K,348,1,48.00166918334958,41.41207174084911,1.356651415583216,44.5451070780691,2,n,3.4180771000001187,correct,n
348,4F4K,349,1,26.19539938310085,42.564713762071946,0.8620610701563887,45.56213337948072,1,c,1.5768934999996418,correct,c
349,4F4K,350,1,46.86628087836045,59.1875918943532,1.3249963875605006,59.7759576667781,1,n,1.5647656000001007,incorrect,c
350,4F4K,351,1,54.29151797205441,39.65367609048928,1.5462199304227002,42.99628607634288,2,n,2.6950161999993725,correct,n
351,4F4K,352,1,52.3043416697799,44.65178487965207,1.483628873496354,47.40360615167222,2,n,2.494770599999356,correct,n
352,4F4K,353,1,33.96796057626713,47.30441007857874,1.0132841633109986,49.7361339784642,1,c,1.3948064000005616,correct,c
353,4F4K,354,2,47.78375153022277,35.998830646585105,1.3505176979890692,39.80118959164689,1,v,2.6343120000001363,correct,v
354,4F4K,355,2,68.07294342120173,58.323638909029874,2.0593489385189168,59.08184371950978,1,v,4.3387940000002345,correct,v
355,4F4K,356,1,74.36817455113277,54.67563805267417,2.347369958545892,56.07696980572294,2,n,1.0250605999999607,correct,n
356,4F4K,357,2,40.50682813454017,60.44467361583146,1.1608687310278316,60.772457837261726,2,v,1.115651400000388,incorrect,b
357,4F4K,358,1,54.21176169796075,38.44158545156596,1.5436576730337273,41.93212413284137,2,n,1.8621511000001192,correct,n
358,4F4K,359,1,61.515292580931565,47.41790757516874,1.7968360492937356,49.835575579911485,2,n,1.3578103999998348,correct,n
359,4F4K,360,1,65.76823474985412,52.23568563098858,1.962982134354464,54.01052668569917,2,n,1.321840799999336,correct,n
360,4F4K,361,1,65.15386084932307,47.64482713672773,1.9380634792229705,50.034279706118674,2,n,3.4343787999996493,correct,n
361,4F4K,362,1,53.87700719601094,39.84464109051239,1.5329495476510648,43.16424726673246,2,n,1.7107994000007238,correct,n
362,4F4K,363,2,53.59325832009447,37.46093447253104,1.523931176530579,41.07412395042346,1,v,1.637616099999832,correct,v
363,4F4K,364,1,60.985340053866295,44.57913710073089,1.7771435264134594,47.33955744282522,2,n,1.097308499999599,correct,n
364,4F4K,365,2,62.26909150701712,71.10088452261179,1.8252230082374687,68.43487168963044,2,v,1.3594950000006065,incorrect,b
365,4F4K,366,1,68.24578094164977,56.47795875563681,2.066763668773047,57.57563253097809,2,n,1.564897899999778,correct,n
366,4F4K,367,2,57.95070961550308,45.63385133079427,1.6684648445310806,48.26873598070631,1,v,2.708137099999476,correct,v
367,4F4K,368,1,33.12096323059422,53.30645217858389,0.995593624546707,54.92223484967093,1,c,1.5465964000004533,correct,c
368,4F4K,369,2,69.80994400374767,51.69460729343716,2.135092124241728,53.54719963473087,1,v,2.2383066000002145,correct,v
369,4F4K,370,2,72.68351099833068,53.9717200174945,2.26656153561227,55.484937113071496,1,v,1.3765138999997362,correct,v
370,4F4K,371,2,62.189892677933535,43.49811668970855,1.8222195344777283,46.385942499088266,1,v,1.5889643999998952,correct,v
371,4F4K,372,1,59.47075535863481,53.53277749052391,1.722044782075252,55.1140021586385,2,n,2.803365599999779,correct,n
372,4F4K,373,1,39.55548320281123,52.13456884833017,1.1381293222333857,53.924068585475865,1,c,1.6729599999998754,correct,c
373,4F4K,374,1,29.732513642037883,49.35072530343735,0.9278576610014474,51.52253230165034,1,c,1.2128904999999577,correct,c
374,4F4K,375,2,40.45336896301565,29.885250420135723,1.1595789657432958,34.60144237954804,1,b,2.4228853000004165,incorrect,v
375,4F4K,376,1,68.86206172711499,59.30632671458388,2.093420094668685,59.870774633703405,2,n,1.2794326999992336,correct,n
376,4F4K,377,1,44.30694121006205,56.41230660940917,1.2563237038175326,57.52150294630441,1,c,1.9532798000000184,correct,c
377,4F4K,378,1,43.11970145504458,56.78034275744095,1.2256873689564314,57.82447194887897,1,c,3.6903244000004634,correct,c
378,4F4K,379,2,38.65361543233557,58.12606651086143,1.1169839555430312,58.92209800311944,2,b,2.5058319999998275,correct,b
379,4F4K,380,1,33.81653870292108,50.326512832419205,1.0100986235718432,52.36863668024895,1,c,1.6366675999997824,correct,c
380,4F4K,381,1,44.288743372067465,63.81333661717848,1.2558483840289292,63.356282494294064,1,c,1.1096152999998594,correct,c
381,4F4K,382,2,47.71996565334336,58.68719589683105,1.3487275722554266,59.37481959217348,2,b,3.0712889000005816,correct,b
382,4F4K,383,1,50.91154881741619,42.47361349220548,1.441275830978226,45.48172982945371,2,c,1.5032578999998805,incorrect,n
383,4F4K,384,2,37.235794952802976,49.39981948866361,1.0845329224260676,51.565200366602106,2,b,1.1935891000002812,correct,b
384,4F4K,385,1,43.03942409608816,51.4740217675565,1.2236430104173626,53.35783761168653,1,c,2.355080700000144,correct,c
385,4F4K,386,1,56.82784746803589,62.20429324452367,1.6299587160689244,62.13861577526161,1,n,1.3222544000000198,incorrect,c
386,4F4K,387,1,50.7156170999993,63.5325313780403,1.43541560793961,63.14605450890242,1,n,1.8136287999996057,incorrect,c
387,4F4K,388,2,59.91455398814549,74.20162607255006,1.7380102850600228,70.34920666625712,2,v,1.995789199999308,incorrect,b
388,4F4K,389,1,48.75529596771572,30.40829451615314,1.3780792716889954,35.03644012545337,2,n,5.0,incorrect,n
389,4F4K,390,1,51.25314037158753,62.8491824386094,1.4515499429967624,62.63040102138631,1,c,1.144745900000089,correct,c
390,4F4K,391,2,59.32092089112841,72.32399903923478,1.716687722312738,69.20894969882607,2,v,2.5956131999992067,incorrect,b
391,4F4K,392,2,61.18619787197078,46.87993325042521,1.7845816816752844,49.36391013364108,1,b,2.0624158000000534,incorrect,v
392,4F4K,393,2,49.64056632596393,59.10492936895322,1.4036828322772563,59.70986312973888,2,b,2.171658400000524,correct,b
393,4F4K,394,2,36.1136535340997,53.4534831477969,1.0595191077464885,55.04685410858497,2,b,1.401144899999963,correct,b
394,4F4K,395,2,45.45583606886208,53.21560734747386,1.2866994294323786,54.84516631810412,2,b,1.1706888000007893,correct,b
395,4F4K,396,2,67.9271343461677,56.26498988266974,2.05311441907532,57.39990980298491,1,v,1.4751341999999568,correct,v
396,4F4K,397,2,51.78105595340885,34.495833966849105,1.467572400803928,38.5023562591938,1,b,2.39150729999983,incorrect,v
397,4F4K,398,2,35.61350205056897,53.00837002325508,1.048556834609158,54.6691555150017,2,b,1.2431061999996018,correct,b
398,4F4K,399,2,60.82928261709834,70.3883609448631,1.7713858240606282,67.9728975466582,2,v,1.928686899999775,incorrect,b
399,4F4K,400,1,54.211414793433775,36.72794279003903,1.5436465376262798,40.43492878972653,2,n,1.5162295999998605,correct,n
