,condition,trial,sub_task,x,y,xt,yt,cat,resp,rt,acc,correct_resp
0,2F4K,1,1,54.40819473850694,49.33093334461198,1.5499759627545728,51.97100362331634,2,n,1.5708220000001347,correct,n
1,2F4K,2,2,67.71959916049936,52.800791467404366,2.044273145502805,55.01686110971638,1,b,1.479774000000134,incorrect,v
2,2F4K,3,1,51.07041946211721,68.10221822500634,1.4460451354382702,67.19645415236798,1,n,0.9154597000001559,incorrect,c
3,2F4K,4,1,44.79070368447648,28.819920022467205,1.269025545142758,33.83916878625967,2,n,1.0185716999999386,correct,n
4,2F4K,5,1,41.93318676727499,60.16831247925544,1.1958161522153117,61.19801171262784,1,c,1.4676988999999594,correct,c
5,2F4K,6,2,60.34429642131113,42.00602592320402,1.7536111695691283,45.40849321745486,1,v,0.9455497000001287,correct,v
6,2F4K,7,2,26.14328342425951,35.51781865047424,0.8611273426007325,39.61222681657636,2,v,0.793979600000057,incorrect,b
7,2F4K,8,2,50.04613172578594,61.09386120452348,1.4155708432729806,61.93795808161011,2,v,0.969208799999933,incorrect,b
8,2F4K,9,1,50.98405788709051,63.26893610460386,1.4434506023372708,63.6379825007911,1,c,0.9713154000000941,correct,c
9,2F4K,10,1,65.76387192658336,55.98132307749484,1.9628040560615776,57.7419825270236,2,n,1.231113300000061,correct,n
10,2F4K,11,1,63.57118996371291,52.31092964208749,1.8753185758048223,54.59090875936269,2,n,1.1521053999999822,correct,n
11,2F4K,12,2,26.8965192464074,43.38808014907714,0.8747214500693408,46.65216963085314,2,b,1.073190199999999,correct,b
12,2F4K,13,2,44.52624102221898,56.05385563013751,1.2620658883238922,57.8032211186378,2,v,0.7456293000000187,incorrect,b
13,2F4K,14,1,32.98329201054007,54.9004543444816,0.9927475223885452,56.82434973529745,1,n,1.0549710000000232,incorrect,c
14,2F4K,15,2,63.61904396572571,51.13756637422371,1.8771856266064244,53.564841953233646,1,v,0.7687427000000753,correct,v
15,2F4K,16,1,57.37450152773189,44.79663060347456,1.648592738992139,47.918999312335714,2,c,0.9093456999999034,incorrect,n
16,2F4K,17,1,46.50402723811358,58.312979336252354,1.3150528834645436,59.68738118205264,1,n,1.0490471000000525,incorrect,c
17,2F4K,18,1,66.21867354672916,50.012598186144736,1.981455004354748,52.57418624278349,2,c,0.7639717000001838,incorrect,n
18,2F4K,19,2,52.111710430203416,37.04441346573657,1.477697856269888,40.96456058429147,1,b,1.061056699999881,incorrect,v
19,2F4K,20,1,52.91415103338621,34.28042552039417,1.5025620094970369,38.524079029786414,2,n,1.121713199999931,correct,n
20,2F4K,21,1,47.79085499359355,30.503092218883488,1.3507172008907355,35.25964141394337,2,c,0.7818806999998742,incorrect,n
21,2F4K,22,2,49.26975553868291,33.66424231995227,1.392900945617399,37.98529368691296,1,b,0.6778812000000016,incorrect,v
22,2F4K,23,1,53.29855197258247,71.9284966145537,1.5146207086224033,69.76943458738076,1,c,0.8304577000001245,correct,c
23,2F4K,24,1,64.2018124331323,58.98321127715489,1.90007237525424,60.237141603528734,2,c,0.8911313000000973,incorrect,n
24,2F4K,25,2,68.81148239204788,54.33560752902126,2.0912194605011813,56.34119277897486,1,b,1.9835327000000689,incorrect,v
25,2F4K,26,2,64.6081978769459,50.92003305706248,1.9161970628304672,53.37377898170437,1,v,0.7935982999999851,correct,v
26,2F4K,27,2,44.65693926500428,29.414609426181705,1.265500588149166,34.3383172029567,1,b,1.006304499999942,incorrect,v
27,2F4K,28,2,29.55184742243956,42.27728799409404,0.9243783800694982,45.652565841315976,2,b,0.5209001000000626,correct,b
28,2F4K,29,2,49.37584328297035,63.22217915657039,1.3959771223729076,63.60203900828718,2,b,1.0913425999999617,correct,b
29,2F4K,30,2,46.26064422551998,62.59793853467956,1.308414204371234,63.11957791921994,2,b,0.6670034000001124,correct,b
30,2F4K,31,2,41.54463148286329,48.50294006799113,1.186193149014955,51.23574282734341,2,v,0.7940098999999918,incorrect,b
31,2F4K,32,1,68.63305429506772,50.35893687505655,2.0834747687490065,52.87983988103189,2,c,0.7513859000000593,incorrect,n
32,2F4K,33,1,61.92314728920385,55.2908182044514,1.8121400013736289,57.15683405020828,2,n,0.6301868000000468,correct,n
33,2F4K,34,1,32.423496686917304,45.72247053824615,0.9812583295707736,48.75043648242741,1,c,0.4433647999999266,correct,c
34,2F4K,35,1,60.16295116271374,47.33323428968037,1.747010809536817,50.19285396516318,2,n,0.611911199999895,correct,n
35,2F4K,36,1,66.83256369105828,58.28542609463311,2.0069113776281102,59.66468595898965,2,n,0.557571199999984,correct,n
36,2F4K,37,2,64.14368536097021,50.2945855410532,1.897777110094644,52.82309115555868,1,v,0.7515293999999813,correct,v
37,2F4K,38,2,55.07487536264108,40.96387052696094,1.5716132770225248,44.47128959074585,1,v,0.7930245999998533,correct,v
38,2F4K,39,2,52.66820803722799,63.77212127293923,1.4948971621610727,64.02305733918324,2,b,0.7454574000000775,correct,b
39,2F4K,40,1,52.78792362999094,68.54766499796513,1.4986232186554052,67.50771174574473,1,n,0.9092949000000772,incorrect,c
40,2F4K,41,1,29.12843168118245,46.02102386473035,0.9162752467366696,49.01823246029932,1,c,2.1775041000000783,correct,c
41,2F4K,42,1,42.74882049772146,66.35555772618581,1.216270915945643,65.94780975753974,1,c,0.7333195999999589,correct,c
42,2F4K,43,2,60.721756595416736,71.18537657634235,1.767429534951986,69.28799142303903,2,v,0.9032838999999058,incorrect,b
43,2F4K,44,1,61.0828501674255,45.68730797110624,1.7807506353489653,48.71888515010487,2,n,1.0552236000000903,correct,n
44,2F4K,45,2,60.22732703836235,40.1638384311403,1.7493510267844616,43.75269439600071,1,v,1.4979182000001856,correct,v
45,2F4K,46,2,53.57014516677642,42.52722220556568,1.523198913838809,45.87747323439026,1,v,0.721061200000122,correct,v
46,2F4K,47,1,41.45921841472608,55.50705622820388,1.1840882036482605,57.3404937814381,1,n,0.860001499999953,incorrect,c
47,2F4K,48,2,57.46999089798757,47.14045991371297,1.6518695121434035,50.02057087510392,1,v,1.255168200000071,correct,v
48,2F4K,49,2,69.09888297267732,53.33709790623736,2.1037546919731134,55.4814410502792,1,v,0.6932253999998466,correct,v
49,2F4K,50,2,52.2128650903161,63.88320426164159,1.4808093941541949,64.10763355710517,2,v,0.7822287999999844,incorrect,b
50,2F4K,51,2,46.254140362725934,59.47045132098653,1.3082372611337183,60.63396366228594,2,b,0.7030061999998907,correct,b
51,2F4K,52,2,36.13422425571289,47.13458632329967,1.0599724204871055,50.01531998324839,2,b,0.6604619000002003,correct,b
52,2F4K,53,2,35.81810254975638,52.85367279991885,1.0530274732856393,55.062753093063726,2,b,0.7029673000001821,correct,b
53,2F4K,54,2,60.62899094936049,66.58581137248447,1.764023436585186,66.11492560024284,2,v,0.6481905999999071,incorrect,b
54,2F4K,55,1,68.64214356321564,53.828406465372765,2.083868595234647,55.90534937990838,2,n,1.3582876000000397,correct,n
55,2F4K,56,2,42.10101764988624,56.942529479650005,1.1999967757576846,58.5498749945145,2,b,1.1086354999999912,correct,b
56,2F4K,57,2,48.72716813325968,26.41866744873792,1.3772734662213757,31.856898912388164,1,v,0.8304215000000568,correct,v
57,2F4K,58,2,48.98313127965197,64.98475003024467,1.3846236912942578,64.93765444365127,2,b,0.630458200000021,correct,b
58,2F4K,59,1,39.95927469674983,59.71789761225302,1.1477259813915546,60.8345513640905,1,n,1.4675902999999835,incorrect,c
59,2F4K,60,1,65.2873358671605,59.91247705728087,1.9434501141197904,60.99183140535355,2,c,0.6424151000001075,incorrect,n
60,2F4K,61,2,39.10735723962787,28.90124751150688,1.1275729057620738,33.90724797432151,1,b,1.437313599999925,incorrect,v
61,2F4K,62,2,43.50187852950849,55.39423022209108,1.235466897132572,57.24471260205316,2,v,0.9946043999998437,incorrect,b
62,2F4K,63,1,36.33680549232774,49.53753846725364,1.0644470343690535,52.15403637698487,1,c,2.2580782,correct,c
63,2F4K,64,2,56.774604337262815,36.721036365056754,1.6281550899718096,40.67728810648684,1,v,1.0610893000000488,correct,v
64,2F4K,65,1,39.02007678409366,47.4493051664617,1.125528277776508,50.29653513640498,1,c,0.9335717999999815,correct,c
65,2F4K,66,1,43.87876648254676,56.961548092562346,1.2451874958509297,58.56577885690232,1,n,0.7454365999999482,incorrect,c
66,2F4K,67,1,34.22897683153061,18.010169566178597,1.0187988985185608,25.433008533365644,2,c,0.7332777999999962,incorrect,n
67,2F4K,68,2,45.09513387438393,63.55523105681173,1.27708452672466,63.85746879256333,2,v,0.9873760999998922,incorrect,b
68,2F4K,69,2,32.04053782293403,47.84205739002325,0.9734752026206392,50.64706041039808,2,v,0.544265600000017,incorrect,b
69,2F4K,70,1,40.84186077504048,53.40193106310849,1.1689845182188048,55.53747443277767,1,n,0.6718230000001313,incorrect,c
70,2F4K,71,1,58.023841923694775,38.885555730137646,1.6710040820353211,42.60699293379568,2,n,1.2066853000001174,correct,n
71,2F4K,72,2,40.07573037457702,50.6871302530863,1.1505087144806767,53.168944314609774,2,v,0.7575753000000987,incorrect,b
72,2F4K,73,1,45.3431979950403,27.725543289381378,1.2836891935589072,32.92890569026507,2,n,0.8546965999998974,correct,n
73,2F4K,74,1,60.43321273683332,42.83803205946646,1.7568565307428377,46.1571781246037,2,n,0.7883968000001005,correct,n
74,2F4K,75,1,59.302121819759776,35.28455133105413,1.7160167732817642,39.406503175042914,2,n,1.0367800999999872,correct,n
75,2F4K,76,1,56.27322738538475,39.67417666052836,1.6112683865047337,43.3134077912172,2,n,1.0246468000000277,correct,n
76,2F4K,77,2,35.56537307585045,40.641891941466994,1.047507949317593,44.1819724263364,2,v,1.437320199999931,incorrect,b
77,2F4K,78,1,56.207786197142426,50.26582123412972,1.609077245554442,52.79771868832483,2,n,1.0003120999999737,correct,n
78,2F4K,79,2,52.56817793387421,32.30650165709676,1.4917909068537256,36.8062217322014,1,v,1.1824192000001403,correct,v
79,2F4K,80,1,56.09998814210559,74.19427563292587,1.605474381557224,71.18013702577555,1,c,0.8308963000001768,correct,c
80,2F4K,81,1,45.220401956459526,60.31501673815049,1.280415510761859,61.31592443373571,1,n,2.487863000000061,incorrect,c
81,2F4K,82,2,48.54182760072548,34.01175763942483,1.3719756038019597,38.2888917025065,1,b,0.8731634000000668,incorrect,v
82,2F4K,83,2,41.55676307261792,52.58844176650618,1.1864924268982422,54.83239908596045,2,v,0.721209200000203,incorrect,b
83,2F4K,84,1,41.41097723485301,56.61411420589787,1.1829009845370864,58.27474103967646,1,c,1.1035452999999507,correct,c
84,2F4K,85,2,49.69454059656276,32.391872936603235,1.4052591589601573,36.88000813792576,1,b,0.745454699999982,incorrect,v
85,2F4K,86,1,39.98553809489677,54.44776566821197,1.1483529624818594,56.43731979717981,1,n,1.3159436999999343,incorrect,c
86,2F4K,87,2,65.5588140635012,49.39483709834987,1.9544523636659077,52.02763570488904,1,v,2.4706068999998934,correct,v
87,2F4K,88,1,69.82800045830156,53.81159073207925,2.1358939450989047,55.89086808490753,2,n,1.6609723999999915,correct,n
88,2F4K,89,1,59.74690591291304,48.81283009379184,1.731961880348771,51.51123924659178,2,n,0.775837600000159,correct,n
89,2F4K,90,1,46.85763985173587,35.32990239655214,1.3247583268443557,39.44647871936312,2,c,1.0128144000000248,incorrect,n
90,2F4K,91,1,52.95261363981325,58.88341534263715,1.5037642504518445,60.1555668906824,1,n,2.7132191999999122,incorrect,c
91,2F4K,92,1,29.795369544790027,46.66256210454579,0.9290712118981496,49.59303646826498,1,c,0.7574495999999726,correct,c
92,2F4K,93,2,64.52508480886641,50.47202507996887,1.912888183256088,52.97951891797703,1,v,1.091414499999928,correct,v
93,2F4K,94,2,53.36689180102796,66.75256300402793,1.5167746461951048,66.23548302830018,2,v,1.108650099999977,incorrect,b
94,2F4K,95,1,66.34538997361732,59.46189192955108,1.9866830113023968,60.62701372675233,2,n,0.7029761999999664,correct,n
95,2F4K,96,1,53.30976414203849,43.204791484942014,1.514973884382108,46.487233350110685,2,n,0.9029952000000776,correct,n
96,2F4K,97,2,45.710720640637874,32.575568705102555,1.2935372673050325,37.03894154136397,1,v,0.8660236000000623,correct,v
97,2F4K,98,2,26.65223818015489,40.5591339450652,0.870289409498894,44.107632631302856,2,v,1.4555947999999717,incorrect,b
98,2F4K,99,2,34.04477984102185,53.456250214336,1.0149040887917569,55.58439902895112,2,b,0.8251591999999164,correct,b
99,2F4K,100,2,66.01938071435949,51.37199432516528,1.9732604937079368,53.77046096300528,1,v,0.5094548999998096,correct,v
100,2F4K,101,2,51.680781370000034,57.9849898199251,1.4645154784217167,59.41674564745656,2,v,0.7029674999998861,incorrect,b
101,2F4K,102,2,56.40344842772328,38.950705341381,1.6156374052549172,42.66529491146991,1,v,3.6357728999998926,correct,v
102,2F4K,103,2,51.85297620709083,68.41542885826405,1.4697688555252315,67.41562255926611,2,b,1.5944769000000178,correct,b
103,2F4K,104,1,44.79291029931584,60.29483239967542,1.2690837760529543,61.29971521598158,1,c,1.6682912000001124,correct,c
104,2F4K,105,1,46.98163888451785,35.84386997403581,1.328178607176641,39.90020898494114,2,n,0.7211687000001348,correct,n
105,2F4K,106,1,70.42951470301162,51.70046576991756,2.162777782215336,54.05805776606036,2,n,1.6924865000000864,correct,n
106,2F4K,107,1,44.11369895264741,27.478111582538283,1.2512854726716618,32.72465410749629,2,c,1.8924534999998741,incorrect,n
107,2F4K,108,1,24.7641482320453,39.5922947221338,0.8367824197629783,43.23999598387141,1,c,1.2795274000000063,correct,c
108,2F4K,109,1,55.52510129498555,66.61653816689488,1.5863961031787164,66.13717005233856,1,n,0.5817806000000019,incorrect,c
109,2F4K,110,2,40.69313701638186,51.79254498864845,1.1653748735995573,54.1385695493837,2,b,0.763551199999938,correct,b
110,2F4K,111,1,36.84834196662485,53.86677734530303,1.0758301000757549,55.93838600354006,1,c,1.0610807999998997,correct,c
111,2F4K,112,2,38.64305671894649,52.17772857583583,1.1167387349290117,54.474830620862406,2,b,0.9397378000001027,correct,b
112,2F4K,113,2,62.32166812281278,54.71027420806287,1.827219615780864,56.66194191814294,1,v,0.7211975000000166,correct,v
113,2F4K,114,2,69.22093099842122,49.86431940551992,2.109100628405023,52.443155043228174,1,v,0.46162299999991774,correct,v
114,2F4K,115,1,56.02116599529786,46.03682609084039,1.6028450673623378,49.03240176722414,2,n,1.1511385999999675,correct,n
115,2F4K,116,2,39.96368819410832,54.84023330621007,1.1478313200368524,56.77295270136046,2,b,0.684682900000098,correct,b
116,2F4K,117,1,41.26560267187097,53.137429925949945,1.1793304991086233,55.308697427466775,1,c,0.8120169999999689,correct,c
117,2F4K,118,1,73.29362323077906,63.56507712979483,2.295500421444743,63.86499886940895,2,n,0.6246834999999464,correct,n
118,2F4K,119,2,37.67285754124262,51.42906072942673,1.0944345849045216,53.82046916670844,2,b,0.6910633999998481,correct,b
119,2F4K,120,2,49.49109054937756,38.90461125568269,1.3993265927942942,42.62404447961911,1,v,0.5659983999998985,correct,v
120,2F4K,121,2,32.17895443429169,47.91349249533421,0.9762811852942505,50.71076269976365,2,b,1.1943554999998014,correct,b
121,2F4K,122,1,48.86319144385384,67.42110903644199,1.3811746336391415,66.71481882963971,1,n,0.5325012999999217,incorrect,c
122,2F4K,123,1,60.43074398402213,74.46405021868321,1.7567663425939395,71.34221763494403,1,n,0.5269960999999057,incorrect,c
123,2F4K,124,2,47.519231808522,69.17347683235776,1.343109523983679,67.93992169914738,2,b,0.5816176000000723,correct,b
124,2F4K,125,1,33.08318958136246,49.46779742912568,0.9948119117672094,52.092272690256095,1,c,0.5389328999999634,correct,c
125,2F4K,126,1,77.39674594267139,64.4985301494714,2.499955436912707,64.57324637827705,2,n,0.7575749000000087,correct,n
126,2F4K,127,2,48.785627830857095,37.37509253334564,1.3789487464363976,41.25872658604202,1,b,0.830415099999982,incorrect,v
127,2F4K,128,2,46.61651973555695,58.7292442748787,1.3181326765921524,60.02934868810954,2,b,1.1581315000000814,correct,b
128,2F4K,129,2,31.997935072368804,50.86068800197704,0.9726131835141728,53.32161230548956,2,v,0.7940763999999945,incorrect,b
129,2F4K,130,2,63.72908396852125,75.46356098311733,1.8814859538311253,71.9315367759732,2,v,1.1945332999998755,incorrect,b
130,2F4K,131,2,56.62550290782896,43.159326616185695,1.623114850072265,46.44631947011478,1,v,0.6361844000000474,correct,v
131,2F4K,132,2,50.1871035221543,56.69573456599556,1.4197265727142416,58.34320803679952,2,v,0.6533042000000933,incorrect,b
132,2F4K,133,1,60.48087517753305,42.969078044370704,1.7585986365411372,46.275110889695846,2,n,1.5830175000000963,correct,n
133,2F4K,134,2,32.60946918394379,44.11563134583253,0.9850603882436412,47.30671881452015,2,v,0.8729837000000771,incorrect,b
134,2F4K,135,2,57.35109703106427,50.323510630643526,1.6477905924297744,52.84860144095377,1,v,0.7940062000000125,correct,v
135,2F4K,136,2,30.29560314382257,41.68807858767072,0.9387859101451156,45.12246754764815,2,v,0.9401175000000421,incorrect,b
136,2F4K,137,2,56.53134556787092,34.85788145537521,1.6199399865991722,39.03090720360989,1,v,0.6665431000001263,correct,v
137,2F4K,138,2,43.12403741364252,23.557642480117742,1.2257978864767236,29.573102146302038,1,v,1.3097949000000426,correct,v
138,2F4K,139,1,59.87297303809267,43.4711327142474,1.7365081612755875,46.72690270358177,2,n,0.5443434000001162,correct,n
139,2F4K,140,2,79.44014719282904,64.86330013097653,2.608471039182674,64.846925344697,1,v,1.0601297999999133,correct,v
140,2F4K,141,1,37.72190822169868,53.517300467098245,1.0955514560360486,55.63711451070999,1,c,0.5932423000001563,correct,c
141,2F4K,142,2,31.002504674506188,48.87308256949487,0.9526876158116016,51.564762118304685,2,b,0.4980316999999559,correct,b
142,2F4K,143,2,56.23219033175772,43.68569255562938,1.6098940107468347,46.91995612023928,1,v,0.637561499999947,correct,v
143,2F4K,144,2,40.74295013228984,60.05321590688589,1.1665826346575698,61.1053409852523,2,v,0.6361433000001853,incorrect,b
144,2F4K,145,1,61.33371898290029,70.8581433055542,1.790064496965178,69.07312582826832,1,n,0.5575143999999455,incorrect,c
145,2F4K,146,1,64.56337952532539,53.72227164600302,1.9144120538470748,55.81391555784019,2,n,1.0428781999999046,correct,n
146,2F4K,147,2,40.06858960707359,57.40236379057157,1.1503378903268866,58.93348840689327,2,b,1.7952971999998226,correct,b
147,2F4K,148,2,50.3446220546338,59.98641960320708,1.4243845197395792,61.05149437510904,2,b,0.5512277000000267,correct,b
148,2F4K,149,1,38.13875005015346,28.588098271871395,1.1050889522023113,33.645434199031,2,c,0.7275779999999941,incorrect,n
149,2F4K,150,2,38.13940444928832,57.17360563646404,1.1051039901865178,58.74288755222709,2,b,1.133854200000087,correct,b
150,2F4K,151,1,49.70021809248904,67.46493184127328,1.4054250739436942,66.74601280580053,1,c,2.0857398000000558,correct,c
151,2F4K,152,1,67.38552391342589,56.29396581965004,2.030120999159059,58.00562851124424,2,c,0.8545465999998214,incorrect,n
152,2F4K,153,2,65.54496287040689,60.58282483739892,1.9538895087723385,61.53056945352196,1,v,1.4677213999998457,correct,v
153,2F4K,154,2,42.66184533260928,29.25138552474705,1.2140731591751217,34.20101101106505,1,b,0.7757775000000038,incorrect,v
154,2F4K,155,2,47.17434718006908,24.88389852301033,1.3335116376102931,30.620468574824542,1,b,1.4009135999999671,incorrect,v
155,2F4K,156,1,48.97215744819447,36.86880388673224,1.384307763955691,40.80850736848781,2,n,1.0613180999998804,correct,n
156,2F4K,157,2,40.0075400307581,60.755861671528166,1.1488784741431572,61.66883701294088,2,b,1.3766206000000238,correct,b
157,2F4K,158,2,52.403128817909135,39.25977711868737,1.4866797075494735,42.94202491653572,1,v,0.6119506000000001,correct,v
158,2F4K,159,1,58.94866733770103,40.13758183517705,1.7034504939566624,43.72912768501593,2,n,1.0732351999999992,correct,n
159,2F4K,160,2,56.19894009578013,52.819904757267054,1.6087812838109696,55.03345025065087,1,b,1.2421842000001106,incorrect,v
160,2F4K,161,1,59.064867439530914,76.69092612046249,1.7075715407166248,72.63072439073633,1,c,2.024964799999907,correct,c
161,2F4K,162,2,57.177430724760725,76.34690832685135,1.6418506757007088,72.4375010762755,2,b,1.759323600000016,correct,b
162,2F4K,163,2,46.79437143416167,63.8696823120424,1.3230165813649852,64.09734666992392,2,b,0.8304519999999229,correct,b
163,2F4K,164,2,48.469705243582965,38.61973833768754,1.369919536186873,42.36922992385089,1,v,1.2543666999999914,correct,v
164,2F4K,165,1,34.08542255282803,48.71529363529498,1.0157621888445565,51.42456703939318,1,c,0.7576012999998056,correct,c
165,2F4K,166,1,50.62195784018046,61.96041497355547,1.4326227280672756,62.62197438222819,1,n,0.648177300000043,incorrect,c
166,2F4K,167,2,51.17783062071213,37.06179851691967,1.4492785624772349,40.98001595893668,1,b,1.2127599000000373,incorrect,v
167,2F4K,168,2,52.54418540875948,32.38075920800025,1.4910468222868198,36.87039976729809,1,v,0.8181348999999045,correct,v
168,2F4K,169,2,55.79296514067113,69.61674916473127,1.5952570991076938,68.24241865319138,2,b,0.7394048999999541,correct,b
169,2F4K,170,1,61.79741242412465,49.11800403687008,1.8074081994419675,51.78218130005554,2,n,0.818317499999921,correct,n
170,2F4K,171,1,51.400046640798905,66.55220252979551,1.4559909611176585,66.09057937103111,1,c,0.8001105999999254,correct,c
171,2F4K,172,1,24.17387228072061,34.17442122624512,0.8265741598815058,38.431236379479856,1,c,2.2080433000000994,correct,c
172,2F4K,173,2,38.73002746238836,51.59283810557236,1.1187601907290194,53.96388970112667,2,b,0.8849517000001015,correct,b
173,2F4K,174,2,53.61733481703168,43.91287780375703,1.5246943338765584,47.12434225200488,1,b,0.884973299999956,incorrect,v
174,2F4K,175,1,49.27044050214645,59.77580670272294,1.3929207854246444,60.88140155696245,1,n,1.8620594999999867,incorrect,c
175,2F4K,176,2,50.74139386774348,64.80434800610489,1.4361852153438672,64.80281428470002,2,b,0.0671001000000615,correct,b
176,2F4K,177,1,75.4826525414328,57.41008700335826,2.4024053224305444,58.93991503223313,2,n,0.6240993999999773,correct,n
177,2F4K,178,1,48.816959045725966,29.12721039877225,1.3798474439855777,34.09670682511233,2,c,0.5633167999999387,incorrect,n
178,2F4K,179,2,57.00057394982395,44.14167865580434,1.635823640474161,47.33014601285932,1,v,0.8913064999999278,correct,v
179,2F4K,180,1,56.71787312961592,44.92796874270777,1.6262355004358613,48.03702336446703,2,c,0.8615012999998726,incorrect,n
180,2F4K,181,2,52.25530607221458,36.51338728171624,1.4821168377252325,40.4930403183667,1,b,1.0367525999999998,incorrect,v
181,2F4K,182,1,58.47709188636746,39.30354778155108,1.6868278621198125,42.98123382712097,2,n,0.6171185000000605,correct,n
182,2F4K,183,2,64.04450880259942,80.4310456855045,1.8938673221482936,74.58944847733478,2,v,1.4919265000000905,incorrect,b
183,2F4K,184,1,57.170613033546,41.22598308796388,1.6416179271879348,44.706908754465246,2,c,0.7758240000000569,incorrect,n
184,2F4K,185,2,39.9035096411519,21.84093160860697,1.1463958477175562,28.248615820547403,1,v,0.7636572999999771,correct,v
185,2F4K,186,2,49.1148870562267,27.314071307177063,1.388422463148177,32.58956676301539,1,v,0.5027076999999736,correct,v
186,2F4K,187,2,68.57306575317136,54.73127136487767,2.0808774071219904,56.67988632450603,1,v,1.8319016000000374,correct,v
187,2F4K,188,2,39.178836690586735,31.909519633764692,1.129250146326463,36.46376304954625,1,v,0.824346000000105,correct,v
188,2F4K,189,2,59.58144726179529,50.14809968909392,1.726013104315797,52.69383760254266,1,v,1.243064000000004,correct,v
189,2F4K,190,1,57.72222470480071,42.75597490012534,1.660556419598929,46.08333209543592,2,n,0.5270282999999836,correct,n
190,2F4K,191,2,28.929772848952624,41.943279787469045,0.9124979263463618,45.352041651456034,2,v,1.109568999999965,incorrect,b
191,2F4K,192,1,31.96015834106616,38.45313077736882,0.9718494520603356,42.22030441735753,1,c,0.9941685999999663,correct,c
192,2F4K,193,2,58.5604102869956,38.92248911454186,1.6897529214580502,42.640043055546016,1,v,0.8607250000000022,correct,v
193,2F4K,194,1,53.91676719792185,40.17562352934782,1.534217492958207,43.76327255032662,2,n,0.7323801999998523,correct,n
194,2F4K,195,1,48.62006981343152,55.50669943578,1.374209626468864,57.34019105118113,1,c,1.0367879000000357,correct,c
195,2F4K,196,1,51.29400595733867,39.10367322443575,1.4527839594968155,42.80222689842231,2,n,1.000610800000004,correct,n
196,2F4K,197,2,49.38785552162274,64.22961720356041,1.396325863535088,64.37036641177752,2,v,2.8527601000000686,incorrect,b
197,2F4K,198,2,56.550478582775206,40.23562342190333,1.6205846239247583,43.81713142174317,1,b,0.7510305999999218,incorrect,v
198,2F4K,199,1,49.34275654406479,57.168045451937466,1.3950169933712695,58.73824889834503,1,c,0.897105799999963,correct,c
199,2F4K,200,2,45.10154137252305,23.36966882774893,1.2772546970309424,29.426318189865757,1,b,1.9653502999999546,incorrect,v
200,2F4K,201,2,64.82596150681968,51.69784964393935,1.924893791183063,54.055769583410864,1,b,1.2186704999999165,incorrect,v
201,2F4K,202,2,39.557038750185576,52.295301055589135,1.138166137554625,54.57729476973269,2,v,0.6671122000000196,incorrect,b
202,2F4K,203,1,48.61497666229072,61.157261341778536,1.374064092870088,61.98829522643012,1,c,2.135260799999969,correct,c
203,2F4K,204,1,63.4814521432838,44.35432320300553,1.8718224090019449,47.52137831165944,2,c,0.9450371000000359,incorrect,n
204,2F4K,205,1,41.085910173394,25.032020454899484,1.174932034991641,30.73868470369285,2,c,0.7265720000000329,incorrect,n
205,2F4K,206,2,56.53409542450302,44.50372464079505,1.620032620107004,47.655709803900585,1,b,1.0671325000000706,incorrect,v
206,2F4K,207,1,40.2637029438894,56.50943310169658,1.1550146001008943,58.18684473330384,1,n,0.9214223000001311,incorrect,c
207,2F4K,208,1,45.70457246727244,53.54952946915069,1.293371902149036,55.6649332618191,1,c,0.6598205000000235,correct,c
208,2F4K,209,1,47.38382178016719,65.80510982227042,1.3393329527588154,65.54528735427324,1,n,0.685005799999999,incorrect,c
209,2F4K,210,1,43.10712259997021,52.94675956888225,1.2253668079138618,55.14349293070347,1,n,1.3705717000000277,incorrect,c
210,2F4K,211,1,50.427490772494,63.682821071461525,1.4268411444935385,63.9549519239837,1,c,1.1095914999998513,correct,c
211,2F4K,212,2,19.803830035109883,34.4663438880975,0.754773094517604,38.68706288552944,2,b,0.8789426000000731,correct,b
212,2F4K,213,2,31.42564332753488,43.07778949911331,0.9611072262361372,46.37294316108456,2,b,0.8171631000000161,correct,b
213,2F4K,214,1,45.7049422018338,37.32155452693814,1.293381846165984,41.21107320671613,2,n,0.921454500000209,correct,n
214,2F4K,215,2,44.807622551439486,63.61110643290098,1.2694720896526035,63.90018487786919,2,v,0.7335674999999355,incorrect,b
215,2F4K,216,1,49.07375171314545,53.823096883897065,1.3872353346256232,55.90077711337593,1,n,0.7333201999999801,incorrect,c
216,2F4K,217,2,34.206048440801425,51.6187166582523,1.0183132688304748,53.98653793395298,2,b,2.086647399999947,correct,b
217,2F4K,218,2,44.503724767540014,55.165105671615486,1.261475111799369,57.04989086592705,2,v,1.1460051999999905,incorrect,b
218,2F4K,219,2,46.94151385902009,62.59956016040319,1.3270708684268275,63.1208374150952,2,b,0.6908310999999685,correct,b
219,2F4K,220,1,60.272494519088205,46.48476319799696,1.7509948439656482,49.433827168970346,2,n,1.1824254000000565,correct,n
220,2F4K,221,2,29.853214622587693,48.46272380379717,0.9301894218453958,51.19996387850431,2,v,0.624066399999947,incorrect,b
221,2F4K,222,2,53.17528479378533,39.26156886447597,1.5107432999731496,42.94362984016672,1,v,0.8242453000000296,correct,v
222,2F4K,223,2,68.47983693750889,61.501077443934605,2.0768472453814524,62.26047410958987,1,v,0.9707197999998698,correct,v
223,2F4K,224,1,57.574091500004506,37.11291529539197,1.655449205620304,41.025465520475,2,n,0.5391366999999718,correct,n
224,2F4K,225,2,44.12356334736332,31.745067109830003,1.2515421680816547,36.32221816304128,1,v,1.116038799999842,correct,v
225,2F4K,226,2,50.218398441634655,65.78998020092762,1.4206507740323029,65.53416418959198,2,b,0.9335707000000184,correct,b
226,2F4K,227,2,40.57241094173151,21.22997703729295,1.162452952884556,27.78621540427398,1,v,0.7760969000000841,correct,v
227,2F4K,228,2,37.16243797078411,52.68655399296301,1.0828798201877134,54.91766169263688,2,b,1.3341356999999334,correct,b
228,2F4K,229,1,51.26031093084873,62.6113727717033,1.451766396244704,63.13001115616952,1,n,0.7993363999999019,incorrect,c
229,2F4K,230,1,48.04612564723891,37.51975177999273,1.357906146675658,41.38753624858523,2,n,0.8430054999998902,correct,n
230,2F4K,231,1,40.49988571594854,31.438973397864203,1.160701156008918,36.05927574667066,2,n,0.611863699999958,correct,n
231,2F4K,232,1,58.81869479815407,72.33468514713591,1.698852789144116,70.02872993573472,1,c,0.8839725999996517,correct,c
232,2F4K,233,1,39.876100992699314,56.77409377006976,1.145742649209358,58.40888453721214,1,n,1.4192905999998402,incorrect,c
233,2F4K,234,2,35.96733492276219,47.788397195088,1.0563003035934568,50.59919804678401,2,b,1.0065263999999843,correct,b
234,2F4K,235,2,57.83448071435728,40.50974271347802,1.6644371809518326,44.06327036221086,1,v,1.255275200000142,correct,v
235,2F4K,236,1,75.64636095931519,63.71802041448758,2.4105975769264245,63.98180906584297,2,n,0.6665854000002582,correct,n
236,2F4K,237,2,52.40073751697073,47.37759827833091,1.4866057831907435,50.23248710049878,1,v,2.8536455000003116,correct,v
237,2F4K,238,1,49.25093464793346,66.42270302143315,1.3923559134425596,65.9966204938988,1,c,1.1039812999997594,correct,c
238,2F4K,239,2,36.44187166168025,44.062194515187855,1.0667751694660084,47.25865549500962,2,b,0.678701600000295,correct,b
239,2F4K,240,1,45.2233490927984,66.3367397905536,1.2804939821214754,65.93411881935127,1,n,1.2794786999997996,incorrect,c
240,2F4K,241,1,54.58740802176009,74.28628264452722,1.5557629344093162,71.23555792915278,1,c,0.9887045000000398,correct,c
241,2F4K,242,2,62.240699288318815,44.51714488519467,1.8241457153692773,47.66777522645012,1,v,1.1891522000000805,correct,v
242,2F4K,243,1,51.818976232168446,43.73028809500808,1.4687300820852995,46.96007872014954,2,n,0.8122429000000011,correct,n
243,2F4K,244,2,67.65194833282455,58.81976200174432,2.041399366842182,60.10348339659696,1,v,0.8184750000000349,correct,v
244,2F4K,245,2,45.42308131918216,59.11433668798762,1.2858233364231588,60.34417247485723,2,v,0.6542813000000933,incorrect,b
245,2F4K,246,1,52.78949566543331,69.15554509930531,1.4986722087868178,67.92762078626602,1,c,1.0054768999998487,correct,c
246,2F4K,247,1,36.00231552126676,49.44361532314026,1.057068937111416,52.07085179767229,1,n,0.6900092000000768,incorrect,c
247,2F4K,248,2,56.08247825627453,35.75003303716098,1.6048899221577675,39.81727794322546,1,b,1.2491927999999461,incorrect,v
248,2F4K,249,1,70.08083123786336,58.49378705001553,2.1471529106156333,59.83612647597341,2,n,2.4463974000000235,correct,n
249,2F4K,250,1,61.05663524733018,47.63358509749003,1.77978017008495,50.46106171507352,2,c,2.579729900000075,incorrect,n
250,2F4K,251,1,36.79687837293296,47.293223746235945,1.0746794105607804,50.15710513274718,1,c,0.8182529999999133,correct,c
251,2F4K,252,2,55.00259537998767,40.96050353184644,1.5692528851599323,44.46826344459232,1,b,1.0124771999999211,incorrect,v
252,2F4K,253,2,67.15747048388988,59.99734314994018,2.020516474187733,61.0603034538663,1,b,0.7762642000002415,incorrect,v
253,2F4K,254,1,50.70249225363742,32.48090589374492,1.435023902732338,36.95701136142974,2,c,1.0183993000000555,incorrect,n
254,2F4K,255,2,31.84475037680226,43.25731761109721,0.969519964070978,46.53450107657215,2,b,0.8364815999998427,correct,b
255,2F4K,256,1,50.32620815911472,60.97875671936863,1.4238392184922246,61.84645378144288,1,n,0.8536058000004232,incorrect,c
256,2F4K,257,1,58.88114160331988,72.80075181370853,1.701060258551913,70.32284273158301,1,c,0.727276300000085,correct,c
257,2F4K,258,1,46.38758696565336,55.18166636573123,1.311872587980907,57.06398609379428,1,n,0.9153801000002204,incorrect,c
258,2F4K,259,1,60.11502608593755,50.885316952839965,1.7452706513064964,53.34326435132367,2,n,0.8789596999999958,correct,n
259,2F4K,260,2,36.62956362847215,48.66999729954577,1.0709468696515008,51.38430380231211,2,b,0.8122051999998803,correct,b
260,2F4K,261,2,35.2870780528875,49.74401018665593,1.0414635456362074,52.33676678974062,2,b,0.7263232000000244,correct,b
261,2F4K,262,1,35.74332976019608,43.40305641776463,1.051391438957756,46.66564589251953,1,n,1.0364974000003713,incorrect,c
262,2F4K,263,2,45.306413090752,63.70919067312518,1.2827076487251357,63.97507344294351,2,v,0.7394162000000506,incorrect,b
263,2F4K,264,2,29.773091093271645,43.471150444767375,0.9286409031976472,46.72691865772969,2,v,0.8911213000001226,incorrect,b
264,2F4K,265,2,78.05162450909016,63.76695142578112,2.534232230300858,64.01911728957022,1,v,0.6241281000002346,correct,v
265,2F4K,266,1,55.4880842767254,46.146709126047625,1.5851754489905223,49.13091566144308,2,n,0.5512575000002471,correct,n
266,2F4K,267,2,61.08872838470344,42.21684129159347,1.7809683170897277,45.598175039403415,1,v,0.8789630999999645,correct,v
267,2F4K,268,1,35.84013663992293,49.09050642289069,1.053510066307301,51.75778333358331,1,c,2.94382429999996,correct,c
268,2F4K,269,1,62.45215416128885,46.46399271132629,1.8321842910499488,49.41522339456692,2,n,1.4070096000000376,correct,n
269,2F4K,270,2,51.121364337227945,62.45324911947385,1.4475778423852497,63.00707142320066,2,v,1.3709508000001733,incorrect,b
270,2F4K,271,1,64.22417098379033,53.128343612880165,1.9009559869800383,55.300830079167206,2,n,0.9517961999999898,correct,n
271,2F4K,272,2,68.98512027375547,54.38184260473189,2.0987838711195823,56.380830543923885,1,v,0.720439400000032,correct,v
272,2F4K,273,1,51.485641292501256,70.82330455354673,1.4585847736207551,69.05014815816497,1,n,1.7834885000002032,incorrect,c
273,2F4K,274,2,29.275168379045024,47.75740407614762,0.9190753507382962,50.57154944572829,2,b,1.5831230999997388,correct,b
274,2F4K,275,2,38.8726796586871,57.04809995347877,1.1220837733599245,58.63811499655204,2,b,0.9214764000003015,correct,b
275,2F4K,276,2,32.49623166059536,55.02802547262143,0.982743587332622,56.93313617996891,2,b,0.6675473000000238,correct,b
276,2F4K,277,1,47.27657479762287,35.673654743120366,1.3363493831577389,39.74980628563439,2,c,0.860713399999895,incorrect,n
277,2F4K,278,1,65.64046573293345,52.45414351483162,1.957773644660652,54.71559233493233,2,n,0.6847064999997201,correct,n
278,2F4K,279,2,56.84040378368472,35.01563026175868,1.6303843558820044,39.16966615378836,1,b,0.7090586999997868,incorrect,v
279,2F4K,280,2,58.36661179737961,78.35163718499066,1.6829570443581747,73.53285576936149,2,b,1.115704199999982,correct,b
280,2F4K,281,1,49.49079645196687,29.060969006783345,1.3993180351215166,34.04112036035468,2,c,2.269543899999917,incorrect,n
281,2F4K,282,1,43.44673915920755,59.755925633563145,1.2340511337481526,60.86532116023337,1,c,0.7761619000002611,correct,c
282,2F4K,283,2,30.97543508040117,44.27427134293843,0.952151502298977,47.44939210690666,2,b,1.485847300000387,correct,b
283,2F4K,284,2,49.72781118939416,60.091055493029344,1.4062317133983575,61.13582346955069,2,b,0.7572653000001992,correct,b
284,2F4K,285,1,49.53127668037333,62.21775930456299,1.4004964247214569,62.82342245351021,1,c,0.9275849000000562,correct,c
285,2F4K,286,1,57.39078496478205,64.43458185693592,1.649151054520725,64.52508661854363,1,c,1.1824582999997801,correct,c
286,2F4K,287,2,52.4208579609807,56.9659692403094,1.487227898587835,58.56947547465932,2,b,1.1823984000002383,correct,b
287,2F4K,288,1,36.85567053752812,56.276818058642256,1.0759940619193713,57.99118952361864,1,c,0.9700066999998853,correct,c
288,2F4K,289,1,71.52229586058914,57.702355702519455,2.212486842806858,59.18271213256005,2,n,1.194968699999663,correct,n
289,2F4K,290,2,47.45714738858756,33.70986433629152,1.3413766760080867,38.025110089917874,1,v,1.2186295999999857,correct,v
290,2F4K,291,1,44.52984086680266,59.63214726800211,1.2621603659017668,60.76511197247863,1,c,1.5890610999999808,correct,c
291,2F4K,292,1,57.00410441126799,51.01170033234054,1.6359437370460037,53.45432216400332,2,n,0.6302684000002046,correct,n
292,2F4K,293,2,53.68143248089647,74.06618543980584,1.5267279134240457,71.10273528384118,2,b,1.8925480000002608,correct,b
293,2F4K,294,2,56.35851089403997,39.162700548143135,1.6141283784611014,42.855081657037225,1,v,0.824349699999857,correct,v
294,2F4K,295,1,47.32414895298955,65.94143437744405,1.3376720566693086,65.64536929174791,1,c,2.5189472000001842,correct,c
295,2F4K,296,2,23.52026335371196,38.7372829959711,0.8154158473931654,42.47434566948046,2,v,1.3584442999999737,incorrect,b
296,2F4K,297,1,56.2937673594304,42.10607351255278,1.6119567332178593,45.49850867103414,2,n,1.467927199999849,correct,n
297,2F4K,298,1,57.68509204922445,42.94081474094709,1.6592747127614766,46.24967583160928,2,n,0.6118438000003152,correct,n
298,2F4K,299,1,74.15997904934252,56.97749830584033,2.337229447491507,58.57911435688762,2,c,0.9205090000000382,incorrect,n
299,2F4K,300,1,59.58430594943968,39.3813546981504,1.726115709762946,43.05094263381668,2,n,0.7454658000001473,correct,n
300,2F4K,301,1,55.69132358394517,45.00024851358722,1.5918889614486735,48.1019661341141,2,n,0.5755798000000141,correct,n
301,2F4K,302,1,43.048739259731896,64.68126806002886,1.2238800571650696,64.71057066369204,1,c,1.364501300000029,correct,c
302,2F4K,303,1,68.29015125435683,57.10262373334615,2.0686714579960324,58.683649048143295,2,n,0.6543924000002335,correct,n
303,2F4K,304,1,55.19537699360873,77.27645747354832,1.575556302312641,72.95461779765915,1,c,1.455535499999769,correct,c
304,2F4K,305,2,44.43513130786634,64.59216498583358,1.2596770756585294,64.64366627836709,2,b,2.895502000000306,correct,b
305,2F4K,306,2,46.534416592243375,67.04681240987675,1.3158841659542038,66.44724906583545,2,b,1.5951069999996434,correct,b
306,2F4K,307,1,53.48273756304636,40.47992865096681,1.5204328772124411,44.03649373246319,2,n,1.224028399999952,correct,n
307,2F4K,308,1,73.27587608842131,52.432227756327634,2.294653442933951,54.69652037828607,2,c,1.4485396999998557,incorrect,n
308,2F4K,309,1,51.079346854447294,43.03060898962707,1.446313604037877,46.33048435025925,2,n,1.1641937999997936,correct,n
309,2F4K,310,1,66.27292519087473,47.58198450341272,1.9836916069703177,50.41500272623195,2,n,1.1034687999999733,correct,n
310,2F4K,311,1,66.66710653309269,46.58036424117539,2.000018293614045,49.51944221682644,2,n,0.9573780999999144,correct,n
311,2F4K,312,1,49.38151710515282,28.76172665683577,1.3961418347966137,33.790491170843595,2,c,1.079221299999972,incorrect,n
312,2F4K,313,2,41.30319346931408,29.63231277232214,1.1802527169824213,34.521805082157464,1,v,0.9700387000002593,correct,v
313,2F4K,314,2,34.861440823090064,51.52147215191622,1.032286352520697,53.90141261075497,2,v,2.3794326000002,incorrect,b
314,2F4K,315,1,48.43226463357136,61.05079688918107,1.3688533927429374,61.90374084305479,1,n,1.3827034000000822,incorrect,c
315,2F4K,316,2,45.92879017449398,36.19382829877912,1.2994162977684365,40.209842139473686,1,v,1.7042500000002292,correct,v
316,2F4K,317,1,34.52283711368855,50.215972021455016,1.0250434846595136,52.753738251045945,1,c,1.0670634999996764,correct,c
317,2F4K,318,1,57.31644339203044,65.74557845430338,1.6466036186794193,65.50150219299813,1,n,0.44807200000013836,incorrect,c
318,2F4K,319,1,31.44198182029326,52.30884863199913,0.961433817321489,54.58909608661366,1,c,1.054960999999821,correct,c
319,2F4K,320,2,42.67667646005063,54.19706319939338,1.214447642695896,56.22232387347596,2,b,2.8759940999998435,correct,b
320,2F4K,321,1,59.03057865895924,72.08039624740769,1.7063544502964378,69.86672336969315,1,c,1.9044432999999117,correct,c
321,2F4K,322,1,28.077733125816295,41.16082022984715,0.8964729726870677,44.648325062386185,1,c,1.5162051000002066,correct,c
322,2F4K,323,1,45.404125633671846,57.513391220488494,1.285316600231207,59.025823579483415,1,c,1.030716400000074,correct,c
323,2F4K,324,1,63.89168415466845,50.56417740656366,1.8878583556739077,53.06069807870101,2,n,1.3098828000001959,correct,n
324,2F4K,325,1,30.68873196869867,43.12896381399855,0.946491830741427,46.4189957245599,1,c,0.7576012999998056,correct,c
325,2F4K,326,1,45.52256935232945,57.699344745524456,1.288486195448466,59.180214881051945,1,c,1.0055319999996755,correct,c
326,2F4K,327,1,45.415588995014055,59.2583271786604,1.2856230226792462,60.46150280805536,1,c,1.0245704999997542,correct,c
327,2F4K,328,2,32.72936323043344,41.33609505822368,0.9875193324647206,44.80591341553176,2,v,1.6370464000001448,incorrect,b
328,2F4K,329,1,38.65346845241682,56.592644305208665,1.1169805416415035,58.25672142645626,1,c,1.0670742000002065,correct,c
329,2F4K,330,2,38.31501569712548,51.78404607128464,1.1091469125046205,54.13114034070379,2,b,0.9457300999997642,correct,b
330,2F4K,331,1,61.49322018016341,48.12660666511098,1.7960115219211694,50.90070706278361,2,n,1.607246000000032,correct,n
331,2F4K,332,2,57.98143349671417,52.77522625902398,1.669531142526787,54.99466846501861,1,v,1.2300559999998768,correct,v
332,2F4K,333,1,31.604818777030708,48.60229238802414,0.9646948456871626,51.32410753799807,1,c,0.7272282999997515,correct,c
333,2F4K,334,1,60.92982404166349,49.17472081601074,1.7750931347540493,51.8324950355431,2,n,1.0185563999998521,correct,n
334,2F4K,335,2,37.52327982173117,50.16975559894467,1.0910357646604338,52.71295236599335,2,b,1.7278103999997256,correct,b
335,2F4K,336,1,46.32641894500104,55.70629272896913,1.31020500816968,57.50938072029271,1,c,1.0001532999999654,correct,c
336,2F4K,337,2,46.06674801109188,59.70253883420213,1.3031493536512928,60.82211972564069,2,b,1.564762200000132,correct,b
337,2F4K,338,2,40.034835007027695,28.11157275704557,1.1495307432116366,33.24872886480749,1,b,1.6073307000001478,incorrect,v
338,2F4K,339,2,53.86122435715147,47.85038709542068,1.532446523965186,50.65448928301794,1,b,0.7636846999998852,incorrect,v
339,2F4K,340,2,30.375722688985327,46.87097886558775,0.9403512677942024,49.77956269926116,2,b,0.6787429999999404,correct,b
340,2F4K,341,2,52.05473371430641,69.48162782491099,1.475948120290929,68.15053256023339,2,b,1.4736572000001615,correct,b
341,2F4K,342,1,48.990193483808326,36.33307828969387,1.3848270443166193,40.33319481215644,2,n,2.494568900000104,correct,n
342,2F4K,343,1,59.67874068678197,38.78487938668626,1.7295086396303874,42.51691989035,2,n,0.9396251999996821,correct,n
343,2F4K,344,1,46.38776425835941,69.33806499174726,1.3118774244681048,68.05259505647243,1,c,2.1487256000000343,correct,c
344,2F4K,345,2,52.00975382526645,64.98359367254336,1.4745682664107147,64.93679151652933,2,b,2.277137699999912,correct,b
345,2F4K,346,2,60.90711223880778,49.57602102621669,1.774254994074434,52.18810811705858,1,v,1.103559900000164,correct,v
346,2F4K,347,1,47.236963727274826,65.52510560891079,1.3352491000090905,65.33892080061196,1,c,0.9516822000000502,correct,c
347,2F4K,348,2,51.89143656096602,67.0316068089371,1.4709447888809533,66.4363363354561,2,b,1.3938185000001795,correct,b
348,2F4K,349,2,61.73523952669237,51.48782421958119,1.8050730033092584,53.87194577221993,1,v,1.1762941000001774,correct,v
349,2F4K,350,2,54.31813185854104,67.02715160279755,1.5470758766106705,66.4331382995652,2,b,1.0418147000000317,correct,b
350,2F4K,351,2,51.76665240953488,37.70734021890873,1.467132909208242,41.55467905232645,1,v,3.0895261999999093,correct,v
351,2F4K,352,2,39.250693649388765,58.33339563161898,1.130938759646816,59.70419304612764,2,b,1.1450966000002154,correct,b
352,2F4K,353,2,42.601489898093966,55.17228054177078,1.2125503851821895,57.05599784431371,2,b,0.6901324999998906,correct,b
353,2F4K,354,2,68.97402609832652,50.62349680823719,2.0982997440477784,53.11293163616503,1,v,0.7336495999998078,correct,v
354,2F4K,355,2,28.234969434560533,36.58501024977455,0.8994089111090682,40.55657193972858,2,b,0.5937910999996348,correct,b
355,2F4K,356,1,35.20821342406998,47.007656328173496,1.0397570035951134,49.90182351093501,1,c,0.9396084999998493,correct,c
356,2F4K,357,1,55.915653288403696,47.06633230350552,1.599332160177015,49.95429504053312,2,n,0.6665678000003936,correct,n
357,2F4K,358,1,49.63480533544564,30.50987430478665,1.4035146861568812,35.26541198745932,2,c,1.867160799999965,incorrect,n
358,2F4K,359,2,46.7145160198142,28.363225332217667,1.3208214736445023,33.45796953525895,1,b,1.7035712000001695,incorrect,v
359,2F4K,360,1,36.52301315593528,44.89154809653321,1.0685766478574974,48.00429703792809,1,c,0.6790700999999899,correct,c
360,2F4K,361,1,43.68764580810495,51.169438233782735,1.2402486391447651,53.59281446786297,1,c,4.66716869999982,correct,c
361,2F4K,362,2,72.69705598431722,62.52832919603799,2.2672000253969817,63.06548320623243,1,v,0.994179400000121,correct,v
362,2F4K,363,1,50.50499425340399,37.06097367289377,1.4291425521756542,40.97928264390035,2,n,0.8841669000003094,correct,n
363,2F4K,364,2,55.5401329267898,69.9209245934602,1.5868920468536425,68.44822160241068,2,v,0.884133600000041,incorrect,b
364,2F4K,365,1,43.30615567464093,60.306335819038594,1.2304488366203443,61.308953684318055,1,c,0.6783123999998679,correct,c
365,2F4K,366,2,39.20375893977291,24.56775340427157,1.12983552466183,30.36897394031231,1,v,1.0855726000004324,correct,v
366,2F4K,367,1,69.94649763604792,54.826458424301705,2.1411634472381267,56.76119231405709,2,n,1.2254249999996318,correct,n
367,2F4K,368,2,31.265256413479293,42.2050643262385,0.9579071268101302,45.58757813127768,2,b,2.1425364000001537,correct,b
368,2F4K,369,1,30.129256132613893,53.66124872076771,0.9355441762218494,55.76130957687268,1,c,1.0063874000002215,correct,c
369,2F4K,370,1,70.17650924065669,53.22595798117258,2.151429070075178,55.38532056039516,2,n,0.6305194999999912,correct,n
370,2F4K,371,1,62.2531058448637,50.3508265738631,1.8246163821257364,52.87268884936779,2,n,2.183980799999972,correct,n
371,2F4K,372,1,60.05860604048138,73.81465207130698,1.7432242622903398,70.94990957442292,1,n,0.7879567999998471,incorrect,c
372,2F4K,373,2,62.04230396056016,49.01902370796969,1.8166356771485688,51.69434421923484,1,v,1.2976857999997264,correct,v
373,2F4K,374,1,55.71234184281315,42.61907458869216,1.5925848683349202,45.96013201270958,2,n,1.989951199999723,correct,n
374,2F4K,375,2,56.52446131390866,42.54680053051308,1.6197081022488231,45.8950918087663,1,v,0.9335333000003629,correct,v
375,2F4K,376,1,72.50545700858154,60.16483331587857,2.2581850433067614,61.19521253120872,2,n,0.872865499999989,correct,n
376,2F4K,377,2,40.543757058189655,26.428093273050287,1.1617605223460032,31.864569426764465,1,b,1.1098606000000473,incorrect,v
377,2F4K,378,2,51.107759954856704,40.01365536761138,1.4471683875122467,43.61791364040856,1,v,0.9700284999998985,correct,v
378,2F4K,379,2,46.03139562483193,34.93808363559277,1.302191718629672,39.10143873769978,1,v,1.3938447000000451,correct,v
379,2F4K,380,2,44.43903049083387,54.43627622467987,1.2597792159665215,56.4274768392339,2,v,0.5330690000000686,incorrect,b
380,2F4K,381,2,45.13551901490551,25.503941611388917,1.278157454101613,31.11693572553291,1,b,0.8728073000002041,incorrect,v
381,2F4K,382,2,55.9785894670412,45.965025308141485,1.6014266100566965,48.96801638621508,1,v,0.8301707000000533,correct,v
382,2F4K,383,1,56.86812071082336,67.34282820915236,1.6313243106513031,66.65902720886949,1,n,0.5573401000001468,incorrect,c
383,2F4K,384,2,57.441434137741226,43.30408622382393,1.650888888300369,46.57658707369188,1,v,0.7387796000002709,correct,v
384,2F4K,385,1,47.8392678043728,54.11480374640924,1.3520776743322078,56.15168065032978,1,c,1.4312793000003694,correct,c
385,2F4K,386,2,58.68514796446464,44.258138096472045,1.6941415714279486,47.4348836458916,1,v,0.6474662999999055,correct,v
386,2F4K,387,2,66.38806307484012,51.3916630108704,1.988446701098084,53.78769896944152,1,v,0.5148450000001503,correct,v
387,2F4K,388,1,30.020062038939827,47.35654867256285,0.933422313923867,50.21368288268559,1,c,0.5633866999996826,correct,c
388,2F4K,389,1,69.03676938676615,58.14825122814643,2.101039203427552,59.55158761307012,2,n,0.430727499999648,correct,n
389,2F4K,390,1,42.28856142336028,27.12285339633352,1.2046857361539802,32.43243040684796,2,c,0.8855376000001343,incorrect,n
390,2F4K,391,2,32.599663976192524,41.46868665316968,0.9848595612454496,44.92514595589682,2,v,1.2431298000001334,incorrect,b
391,2F4K,392,1,69.66804567626421,58.83989081859668,2.1288014088987057,60.119957922281024,2,n,0.7637758999999278,correct,n
392,2F4K,393,1,58.46242186357746,42.99191744454125,1.6863133660873302,46.29566476054291,2,n,0.5209426999999778,correct,n
393,2F4K,394,2,34.00849469505451,50.05868767178564,1.0141386036612543,52.61489406152869,2,b,0.751568799999859,correct,b
394,2F4K,395,2,62.54270138319254,46.8856293314788,1.835637317672812,49.7926702013941,1,v,0.7759025999998812,correct,v
395,2F4K,396,1,67.02510861561734,45.06402862679503,2.014962875882421,48.15926599474795,2,n,0.4967757999997957,correct,n
396,2F4K,397,2,54.77641914406809,39.22489811572802,1.5618896997485008,42.910784183910174,1,v,1.036791500000163,correct,v
397,2F4K,398,1,53.78072067778672,41.00155942494549,1.529883313223175,44.50516409824449,2,n,0.7272412000002078,correct,n
398,2F4K,399,2,49.54044519850834,66.23139584494062,1.4007634603864982,65.85738422803418,2,v,2.068466400000034,incorrect,b
399,2F4K,400,2,69.95475414392344,52.97979040677546,2.141531093554037,55.17212914493246,1,v,0.630500100000063,correct,v
