,condition,trial,sub_task,x,y,xt,yt,cat,resp,rt,acc,correct_resp
0,2F4K,1,2,65.95603350374296,50.42550428124147,1.9706628916284343,52.513254677869625,1,v,2.5858071000002383,correct,v
1,2F4K,2,2,41.93695725521035,50.15048375735739,1.1959099139669327,52.27610663491895,2,v,1.0186246000002939,incorrect,b
2,2F4K,3,2,38.386290636123256,49.85948198027434,1.1107920209157145,52.02479922728723,2,b,0.6971057999999175,correct,b
3,2F4K,4,2,70.27298268752625,52.73445939300813,2.155749403227384,54.48875648761717,1,v,1.6194747999998071,correct,v
4,2F4K,5,2,44.544857538698224,58.84398825114648,1.2625545533168734,59.5371664762317,2,b,0.6933724999998958,correct,b
5,2F4K,6,1,58.345993901921176,77.02056341779306,1.682235652918536,71.94352883871612,1,n,0.9031629999999495,incorrect,c
6,2F4K,7,1,53.34823978619741,35.32008699419381,1.5161864674737522,39.31485816589764,2,c,1.5540344000000914,incorrect,n
7,2F4K,8,1,47.8159523973668,65.27514980490284,1.351422305047583,64.45501105557291,1,c,0.9764290000002802,correct,c
8,2F4K,9,2,29.557119896616232,47.21229054058345,0.924479732639198,49.72341065244802,2,b,3.289748099999997,correct,b
9,2F4K,10,1,43.80290340202944,54.93429135574298,1.2432247257689386,56.34029395475671,1,n,0.9946897999998328,incorrect,c
10,2F4K,11,1,63.30162479005308,43.25169290766444,1.8648359782007085,46.24768067387702,2,n,0.9700544999996055,correct,n
11,2F4K,12,1,37.856635511763336,32.41353967675451,1.098625029279796,36.832628307165294,2,c,0.46160820000022795,incorrect,n
12,2F4K,13,1,36.88602114326001,22.1647454745232,1.0766733609694503,28.61769197252663,2,c,2.192461800000274,incorrect,n
13,2F4K,14,1,63.214272640272114,47.633098220510256,1.8614516959340253,50.09084358004926,2,c,0.7030498999993142,incorrect,n
14,2F4K,15,1,44.78264757265072,27.561999960418845,1.2688129730786226,32.819637529109826,2,c,2.2580748000000312,incorrect,n
15,2F4K,16,2,53.47783892128275,39.60182745556105,1.5202780071301225,43.04024693521655,1,v,0.6596810000000914,correct,v
16,2F4K,17,2,50.14260430497234,30.423021546047718,1.4184134573606844,35.16365262254912,1,v,1.0914443000001484,correct,v
17,2F4K,18,1,39.62650170691007,55.68382571038949,1.1398113399599497,56.96316329791895,1,n,0.5951349999995728,incorrect,c
18,2F4K,19,2,44.08890240913281,55.379204802954696,1.250640439123934,56.7105465091007,2,b,0.6496776999993017,correct,b
19,2F4K,20,1,51.75007589627849,41.833332205435205,1.4666272772545497,44.99994907028954,2,c,1.1451914999997825,incorrect,n
20,2F4K,21,2,65.08545405618351,49.33462190599701,1.9353085839475697,51.57059670847255,1,b,2.754710000000159,incorrect,v
21,2F4K,22,1,34.887351772253936,51.67204099513384,1.0328427014141457,53.58341574745446,1,c,0.7394782999999734,correct,c
22,2F4K,23,1,34.411832386997474,39.88218643340566,1.0226801276171358,43.28603728251634,1,n,3.198703000000023,incorrect,c
23,2F4K,24,1,48.26195366787177,57.66047195562757,1.364014149411156,58.583661449936166,1,n,2.390395699999317,incorrect,c
24,2F4K,25,2,64.50832132920326,50.69517715570665,1.9122214919687748,52.74544092166179,1,v,0.5868952000000718,correct,v
25,2F4K,26,1,49.5927902077619,35.75957363501167,1.4022889989266163,39.69405492735482,2,c,1.7238463000003321,incorrect,n
26,2F4K,27,2,66.78914235277702,57.661054613073816,2.00510011234347,58.584134091700165,1,v,3.495195899999999,correct,v
27,2F4K,28,1,67.19910445400296,54.90813763428973,2.022266501986264,56.3184822419756,2,n,0.7407681000004231,correct,n
28,2F4K,29,1,46.03337376473485,56.277010988881365,1.3022452844278518,57.45294500315016,1,c,1.6983508000002985,correct,c
29,2F4K,30,1,56.93752132557746,70.56266641429298,1.633680248092721,68.09546021740834,1,n,0.7928515000003244,incorrect,c
30,2F4K,31,2,50.50872831859149,34.40157544729919,1.429253526120045,38.52537746653569,1,v,2.234537100000125,correct,v
31,2F4K,32,2,44.86734066565022,55.69855659094339,1.2710495034669214,56.97536075518862,2,b,0.703059000000394,correct,b
32,2F4K,33,1,58.39840586745616,42.37208749125996,1.6840700809609068,45.473836006125545,2,n,2.2458943000001454,correct,n
33,2F4K,34,1,43.93298368477665,60.36194584437837,1.2465921305981988,60.73990190055118,1,n,2.9134758000000147,incorrect,c
34,2F4K,35,2,73.58091917227145,54.11827133164195,2.309255133393515,55.65737865352733,1,v,1.757966099999976,correct,v
35,2F4K,36,2,52.82258590598966,39.83984512590383,1.4997037883268056,43.248906848239486,1,v,0.935005700000147,correct,v
36,2F4K,37,1,36.15002803696991,57.92474420316799,1.0603208168834977,58.79771501368101,1,c,2.6515779000001203,correct,c
37,2F4K,38,1,46.77778196999459,65.3189715628602,1.3225602614163254,64.4868001419521,1,c,1.2131066000001738,correct,c
38,2F4K,39,2,62.69139968349428,52.782969253154896,1.841322065586704,54.52993284794135,1,v,1.6997250999993412,correct,v
39,2F4K,40,2,61.60259065032604,48.988375817151606,1.800100830313221,51.27033967649045,1,v,0.6058865999993941,correct,v
40,2F4K,41,2,49.850546136437,69.98864612642707,1.4098252838587242,67.720270368906,2,v,1.505246900000202,incorrect,b
41,2F4K,42,1,64.91170407158364,73.25824396723701,1.9283288737578048,69.78705716805919,1,n,1.2371008000000074,incorrect,c
42,2F4K,43,2,40.67760581691704,21.901751303516225,1.1649985623211467,28.421457311208915,1,b,2.2132895999993707,incorrect,v
43,2F4K,44,1,52.50318340566412,40.32737075917127,1.489776078654834,43.676629360433125,2,c,1.832075000000259,incorrect,n
44,2F4K,45,1,46.429824207026826,60.12099425145907,1.3130253101692653,60.55057451713912,1,n,0.734776199999942,incorrect,c
45,2F4K,46,2,43.3128278737802,58.87028776598056,1.2306195664487791,59.5582024282074,2,b,2.1852258999997503,correct,b
46,2F4K,47,1,41.23836864947979,59.56948839694376,1.1786628149566316,60.11494490385102,1,n,1.146011599999838,incorrect,c
47,2F4K,48,1,47.79066783505341,64.02235973687196,1.3507119441089412,63.535633776474825,1,c,1.388838300000316,correct,c
48,2F4K,49,2,35.7585065479348,20.444274864639677,1.0517233024997907,27.349866455903744,1,v,3.2776185000002442,correct,v
49,2F4K,50,1,38.27083763601004,27.70217636745216,1.1081284548573986,32.93280019019649,2,c,1.068488000000798,incorrect,n
50,2F4K,51,2,56.34179022383483,48.598216798005886,1.6135672491298336,50.93144643476161,1,v,1.1947853000001487,correct,v
51,2F4K,52,1,48.43580046659922,35.74908127598936,1.3689540421838131,39.68499163996061,2,n,1.4256084999997256,correct,n
52,2F4K,53,2,48.600594036102464,40.75746708644427,1.373653201559359,44.05428682838241,1,v,1.2553342999999586,correct,v
53,2F4K,54,2,34.90125220249976,47.45270074884776,1.0331412891128835,49.933390428268936,2,b,0.7711786999998367,correct,b
54,2F4K,55,2,76.6510934954538,63.07457147273741,2.4614915805035027,62.82689644027683,1,v,1.6498851999995168,correct,v
55,2F4K,56,1,36.73173407888038,44.27278570061316,1.0732245951135155,47.14572816865528,1,n,1.1777578999999605,incorrect,c
56,2F4K,57,2,48.78587445396424,41.67112731552649,1.3789558182323107,44.85730679106974,1,v,1.0428954999997586,correct,v
57,2F4K,58,1,61.44664857268459,49.3088472270205,1.7942730535735931,51.548262063778935,2,c,0.6234957000006034,incorrect,n
58,2F4K,59,1,60.659815873845744,47.78219472163926,1.7651545138781355,50.220902648032194,2,n,0.8293198999999731,correct,n
59,2F4K,60,2,45.63221707209724,53.31872565919495,1.2914273733424184,54.98370638541514,2,v,1.8743816000005609,incorrect,b
60,2F4K,61,2,64.26151604904284,42.34217557807298,1.902432783433704,45.447522345173184,1,v,0.437325800000508,correct,v
61,2F4K,62,1,48.30438073877494,59.84933679035303,1.3652180766276445,60.33638848079993,1,n,2.8406236999999237,incorrect,c
62,2F4K,63,2,59.91648660951038,41.874561704130805,1.7380801331542202,45.0362089511443,1,v,0.8243711000004623,correct,v
63,2F4K,64,2,51.94698459073011,38.84694615555488,1.4726448424089462,42.37929037370101,1,v,0.6437511000003724,correct,v
64,2F4K,65,1,38.31047484913293,53.187534669841526,1.1090421870509364,54.87276082855483,1,n,0.7482490000002144,incorrect,c
65,2F4K,66,2,27.02650005320669,35.63527675480054,0.8770889107486407,39.58671932449485,2,b,0.8244095999998535,correct,b
66,2F4K,67,1,35.784744833673294,45.398155933000254,1.0522972896269562,48.13437358341484,1,c,1.694706899999801,correct,c
67,2F4K,68,2,42.11722771054639,28.095516948785036,1.2004013373339413,33.251312247449775,1,v,1.9881372999998348,correct,v
68,2F4K,69,2,41.08479341963282,59.140662123406095,1.1749047507528296,59.77406892705378,2,v,0.5405478000002404,incorrect,b
69,2F4K,70,1,43.39676329285217,53.00387288321253,1.2327693505965591,54.71725501163772,1,c,1.0975105000006806,correct,c
70,2F4K,71,2,59.59174677402313,45.95727084969883,1.726382808162821,48.62485592639534,1,v,0.5405473999999231,correct,v
71,2F4K,72,2,65.61635536248487,47.93854689447379,1.9567923392076856,50.35721636954623,1,v,0.6073231999998825,correct,v
72,2F4K,73,2,73.75215096639273,64.25556440264585,2.317492273606417,63.708301825973365,1,v,0.540552999999818,correct,v
73,2F4K,74,2,39.60194810697008,47.94440859660991,1.1392295261856666,50.36232530672003,2,b,0.8790615999996589,correct,b
74,2F4K,75,2,47.83466187199958,55.06425022494624,1.3519481816826966,56.44860070377706,2,b,0.6023537999999462,correct,b
75,2F4K,76,2,72.03160793937234,58.44138100665115,2.23604347447527,59.21429698357146,1,v,0.5818282000000181,correct,v
76,2F4K,77,1,59.2697796634611,42.25351164437817,1.714863077818839,45.36952602244424,2,n,1.1582557000001543,correct,n
77,2F4K,78,2,54.22439364295116,37.30726332312842,1.5440632048919436,41.03596613263869,1,v,0.6837609999993219,correct,v
78,2F4K,79,1,74.18151589358044,65.90321791716542,2.33827640097081,64.9081751978321,2,n,0.7033891000000949,correct,n
79,2F4K,80,1,57.26881089886631,42.283574073806,1.6449734819580386,45.39597117137135,2,n,0.6315698999997039,correct,n
80,2F4K,81,2,43.16905507201148,56.95076173093623,1.22694591261414,58.00569216706971,2,b,2.185050500000216,correct,b
81,2F4K,82,2,56.4004415057812,71.870072243928,1.6155363871558404,68.93061869703664,2,b,0.6618963000000804,correct,b
82,2F4K,83,1,60.92861279914854,50.46435626460007,1.775048425904255,52.54672762641522,2,n,1.5223766999997679,correct,n
83,2F4K,84,1,44.47555710690746,50.95727731178819,1.260736444287068,52.97076285925343,1,c,0.6050435999995898,correct,c
84,2F4K,85,1,41.70943133941629,54.98913116096662,1.190265107246177,56.38601260619759,1,c,0.8126370999998471,correct,c
85,2F4K,86,1,53.26522042825839,60.595515414781005,1.5135712736235645,60.92283898245323,1,c,0.7152157000000443,correct,c
86,2F4K,87,2,61.626061762286106,73.7932278673788,1.8009796164558574,70.10856932357568,2,v,0.5454620000000432,incorrect,b
87,2F4K,88,1,51.07870320726624,40.67632314808032,1.4462942463201756,43.98301581903546,2,c,1.8682900000003428,incorrect,n
88,2F4K,89,2,67.4503262439134,43.98928040906781,2.0328584851696614,46.89645147841874,1,v,0.40676710000025196,correct,v
89,2F4K,90,2,51.02937526336825,33.129294941235614,1.4448114767358493,37.43934379297533,1,v,1.0422435999998925,correct,v
90,2F4K,91,2,61.25496996697838,51.08057038546631,1.7871355939470568,53.07663472306826,1,v,0.4422879000003377,correct,v
91,2F4K,92,1,42.8515039919395,31.279569672427307,1.218870724815492,35.87835590712967,2,n,1.607315400000516,correct,n
92,2F4K,93,1,35.09404148425523,49.75503723914896,1.0372914042026693,51.93450924033378,1,n,0.9168467999998029,incorrect,c
93,2F4K,94,2,29.543268766165,48.776825748121375,0.9242134966345656,51.08665758483559,2,b,0.5816699999995762,correct,b
94,2F4K,95,2,43.417029281800616,60.04832280031244,1.2332889729898158,60.493352871971865,2,b,1.2384262000005037,correct,b
95,2F4K,96,1,40.725309856311455,55.55411307439052,1.1661547881935237,56.85568427865832,1,n,0.946199400000296,incorrect,c
96,2F4K,97,2,57.385412732974046,67.65316114147579,1.6489668341556365,66.14224947141324,2,v,0.8971813999996812,incorrect,b
97,2F4K,98,1,54.581415775747885,70.16371639040833,1.5555690902527393,67.83524154450741,1,n,2.737485900000138,incorrect,c
98,2F4K,99,1,41.05871635630552,56.863101676875125,1.1742678227944272,57.933995528871776,1,n,1.1392675999995845,incorrect,c
99,2F4K,100,2,42.20090255850434,54.02737258648058,1.202491817265032,55.581010950463536,2,b,0.6983119999995324,correct,b
100,2F4K,101,2,65.234687891843,52.695793826547074,1.9413236205213071,54.45592576176617,1,v,0.8001250999996046,correct,v
101,2F4K,102,2,52.244621761237,71.85237627009035,1.4817875864744672,68.91949743778092,2,v,0.6545133999998143,incorrect,b
102,2F4K,103,2,33.933831990174546,57.448428204924106,1.012565306866717,58.4114504901352,2,v,0.9703435000001264,incorrect,b
103,2F4K,104,1,49.848075274607446,34.277576704907744,1.409752848717018,38.41913132819038,2,n,1.2991453000004185,correct,n
104,2F4K,105,2,48.114462164027216,63.82741669993699,1.3598371272954586,63.39076920670902,2,b,1.7833415999994031,correct,b
105,2F4K,106,1,54.24819060944656,38.08020138931587,1.544827464394281,41.70943227488894,2,n,1.2796248999993622,correct,n
106,2F4K,107,1,66.88853076123027,48.39768001209705,2.0092483857645407,50.75704201244741,2,n,0.9046458000002531,correct,n
107,2F4K,108,2,45.69556546377789,59.39170034972418,1.293129682261107,59.97384557601101,2,b,3.6720829000005324,correct,b
108,2F4K,109,2,57.843503932254265,71.92498251134141,1.664749512830902,68.96509546059353,2,b,0.6848725999998351,correct,b
109,2F4K,110,2,54.30330896334159,38.51297317942742,1.5465990895752035,42.08731793858239,1,v,1.0856014000000869,correct,v
110,2F4K,111,1,36.30140219702309,57.15914498317486,1.0636636866057618,58.17585821585657,1,c,0.8968094000001656,correct,c
111,2F4K,112,1,47.96202298484715,29.324871513984164,1.3555334265818342,34.25570822914132,2,n,1.0017655999999988,correct,n
112,2F4K,113,1,61.28545910321064,72.63705201120297,1.7882690038964362,69.40773440801418,1,c,2.379371699999865,correct,c
113,2F4K,114,2,55.293671998119166,41.01621612422824,1.5787800126488976,44.28161043824601,1,v,0.7279871999999159,correct,v
114,2F4K,115,1,37.26319951385487,51.16760252111046,1.0851511324689187,53.151321949467,1,c,2.04564930000015,correct,c
115,2F4K,116,2,28.57779348028832,40.2057787883226,0.9058435488534544,43.56991403885409,2,v,0.8916048999999475,incorrect,b
116,2F4K,117,2,34.43439372988183,48.26949027402591,1.0231600304982615,50.6454827039918,2,b,1.9909661000001506,correct,b
117,2F4K,118,2,62.35781762150546,40.55791519341573,1.8285936672005183,43.87903124201939,1,b,4.0411348999996335,incorrect,v
118,2F4K,119,1,57.75136489520114,43.07365844924235,1.661562944038435,46.09105413855882,2,n,1.456957199999124,correct,n
119,2F4K,120,1,66.63044935506221,50.28935886433653,1.9984943313985304,52.39590188166212,2,n,0.9033084000002418,correct,n
120,2F4K,121,1,56.51107725096703,42.50509349685593,1.6192573779133557,45.59084516589501,2,n,3.9643461999994543,correct,n
121,2F4K,122,1,63.31533163205953,45.98029082579581,1.865367580261773,48.64503771583735,2,n,0.6838384000002407,correct,n
122,2F4K,123,1,34.15584978455415,41.51383010817744,1.0172508553796134,44.71899923152085,1,n,1.122139199999765,incorrect,c
123,2F4K,124,1,44.70064194266412,53.64035267152517,1.2666511619118084,55.25522006044736,1,n,2.244846200000211,incorrect,c
124,2F4K,125,1,67.9127044739403,50.59098548501685,2.052498452425812,52.65577463908854,2,n,0.43735519999972894,correct,n
125,2F4K,126,2,34.168926237880584,49.730502663282486,1.0175275009972462,51.91329276413915,2,v,0.5223598000002312,incorrect,b
126,2F4K,127,2,50.98958768467524,34.569685003654435,1.4436165926893407,38.66954965416606,1,b,0.6361684000003152,incorrect,v
127,2F4K,128,1,71.73510809616084,56.7122125515977,2.2222994701043453,57.81042859668407,2,n,0.625553800000489,correct,n
128,2F4K,129,1,58.59172712933714,40.51591976203872,1.6908536730063222,43.84215617840648,2,n,0.7758534000004147,correct,n
129,2F4K,130,1,34.05145523805864,44.20149378689142,1.015044978400255,47.08304982136322,1,c,0.49802850000014587,correct,c
130,2F4K,131,1,63.40029249878444,48.54097199278811,1.8686660595964195,50.881676002909565,2,n,0.679008199999771,correct,n
131,2F4K,132,1,75.36733843762332,58.47083141281827,2.396651521472234,59.23796766113872,2,n,0.7516224999999395,correct,n
132,2F4K,133,2,48.32124180728759,63.3016412461754,1.365696827938885,62.99770201678867,2,b,0.5708774000004269,correct,b
133,2F4K,134,2,57.3187701779021,77.18065945412182,1.6466832901265935,72.02976932012095,2,b,1.2844561000001704,correct,b
134,2F4K,135,2,64.66037920085485,58.654385599986426,1.918277418653799,59.38531085176641,1,b,0.4676710000003368,incorrect,v
135,2F4K,136,2,39.38887532590751,56.26859871321837,1.13419308045934,57.44601931284824,2,b,1.230089499999849,correct,b
136,2F4K,137,2,37.25460348856397,58.8907898836876,1.0849571797759625,59.57459656242644,2,b,0.8500227999993513,correct,b
137,2F4K,138,2,58.206295954030814,41.9808155496929,1.677355955095578,45.12966022523667,1,v,1.6376681000001554,correct,v
138,2F4K,139,2,60.6383689573209,44.94808800215782,1.764367472680742,47.73918056064317,1,v,0.5101773000005778,correct,v
139,2F4K,140,2,46.898203090092125,60.35219271768764,1.325876217091903,60.73225034528408,2,b,1.0974897000005512,correct,b
140,2F4K,141,2,33.15110943523918,45.427878465425415,0.9962179306726346,48.160461292337054,2,b,0.7529288999994606,correct,b
141,2F4K,142,1,38.1725969147255,55.28555656368585,1.1058670160552622,56.63273968413369,1,c,2.3685585000002902,correct,c
142,2F4K,143,2,63.505061306841455,46.14040605008099,1.87274158477541,48.78538245332845,1,v,0.6486758999999438,correct,v
143,2F4K,144,2,62.45105729884908,52.12254666090876,1.8321425019436697,53.96812137612995,1,v,0.8136548000002222,correct,v
144,2F4K,145,2,54.96155237152188,36.70556279424789,1.5679141535306285,40.51313892141712,1,v,1.5398820999998861,correct,v
145,2F4K,146,1,45.31094606528235,29.57636198179989,1.282828563159236,34.46277496390839,2,c,0.6981370000003153,incorrect,n
146,2F4K,147,2,42.6235412022398,54.64967636213446,1.2131065203568896,56.10265601712359,2,b,1.4680100999994465,correct,b
147,2F4K,148,2,64.58107119681397,56.05744159417328,1.915116472569964,57.27198533117322,1,v,1.698369200000343,correct,v
148,2F4K,149,1,30.00597125970218,40.39110564963035,0.9331488523678698,43.73257592026,1,c,1.4448371999997107,correct,c
149,2F4K,150,1,50.68810478208954,29.49810124590717,1.4345946378465402,34.39828209203548,2,n,1.230231499999718,correct,n
150,2F4K,151,2,45.69110472398988,53.57084813659029,1.2930097390851871,55.196603568066834,2,b,2.688878400000249,correct,b
151,2F4K,152,2,48.04905570902032,60.2088591054201,1.35798888495374,60.61968531563851,2,b,0.806692799999837,correct,b
152,2F4K,153,1,62.06950072835687,48.52788497684841,1.8176633494697625,50.8702960798865,2,n,1.396253500000057,correct,n
153,2F4K,154,2,38.20029826151742,56.89995979881616,1.1065042158025535,57.96414969738091,2,b,3.8893840999999156,correct,b
154,2F4K,155,1,40.616598349980485,53.71035934297443,1.1635215651913435,55.31422709157484,1,c,2.0078247000001284,correct,c
155,2F4K,156,1,35.84432928865118,52.2517773847505,1.053601919195094,54.07826130788434,1,c,0.8864520000006451,correct,c
156,2F4K,157,2,35.841546145505546,50.02841457589545,1.0535409449761697,52.17073499696944,2,b,0.8003304000003482,correct,b
157,2F4K,158,1,65.04566603959643,52.30319425585407,1.9337080327135088,54.12205522205366,2,n,0.9821938000004593,correct,n
158,2F4K,159,2,54.06544046649968,34.21953864024533,1.5389679788770585,38.369430886147896,1,v,3.1985678999999436,correct,v
159,2F4K,160,2,73.36193531985664,55.88591356617535,2.29876351973572,57.13034436855372,1,v,1.9593150000000605,correct,v
160,2F4K,161,1,42.68963245890394,57.93589810329552,1.214774874055183,58.806735210458825,1,c,4.223275299999841,correct,c
161,2F4K,162,2,46.31697036164213,61.77622760559209,1.3099476073023548,61.83845954957429,2,v,1.0237476999991486,incorrect,b
162,2F4K,163,1,39.05385214503306,21.110617463217743,1.1263190577187834,27.83639353816036,2,c,1.466619400000127,incorrect,n
163,2F4K,164,1,30.911344908716448,45.001008885575,0.9508833983823738,47.78566410587084,1,c,1.230193500000496,correct,c
164,2F4K,165,2,39.48045616809232,26.992417427876383,1.1363550617757376,32.36173788571426,1,v,1.1910244000000603,correct,v
165,2F4K,166,2,51.740831111876986,70.2358404518771,1.4663453600908132,67.88246848695118,2,b,1.3220891999999367,correct,b
166,2F4K,167,2,30.14859369227213,43.84694747517753,0.9359204465764114,46.77128018156348,2,v,0.8561233000000357,incorrect,b
167,2F4K,168,2,51.19258137622334,36.43611292583196,1.449723172713027,40.27945819496374,1,b,2.591824699999961,incorrect,v
168,2F4K,169,2,41.89760299341663,56.19950952502908,1.194931642780571,57.38911708416225,2,b,1.0018360000003668,correct,b
169,2F4K,170,1,32.017497485399375,44.01607511061066,0.9730089122867396,46.92001386251364,1,c,2.884314500000073,correct,c
170,2F4K,171,1,36.79920723270204,50.69635952522401,1.074731455618994,52.74645815022901,1,n,1.266503499999999,incorrect,c
171,2F4K,172,1,29.39482261331115,47.507035974565504,0.9213649860322116,49.98082503639396,1,c,0.8682512999994287,correct,c
172,2F4K,173,2,41.69190079899343,29.370287187699773,1.189831290246098,34.29306264401118,1,v,2.2822701999994024,correct,v
173,2F4K,174,2,46.10340424029723,54.72646598279916,1.3041430512172578,56.166830381934055,2,v,0.9082454999997935,incorrect,b
174,2F4K,175,2,59.7682169941315,45.639733067192736,1.7327295719014009,48.34636501753368,1,b,0.7513969999999972,incorrect,v
175,2F4K,176,2,65.10582863910257,58.922062591459415,1.9361287044508595,59.59959524279758,1,v,3.0590048999993087,correct,v
176,2F4K,177,1,60.55067415353947,47.56522296978249,1.7611529706993292,50.03161258185469,2,n,1.2553253000005498,correct,n
177,2F4K,178,2,64.64446044876257,71.35135961665017,1.9176425333543397,68.602532285309,2,v,1.0368515000000116,incorrect,b
178,2F4K,179,2,55.33065643113516,39.17387583776483,1.5799946714816575,42.66538035355717,1,v,0.7819367000001876,correct,v
179,2F4K,180,1,43.21874756249369,53.12064070851624,1.2282144033518192,54.81614700863582,1,c,3.167590700000801,correct,c
180,2F4K,181,2,50.49893485224831,37.919873129190094,1.4289624891220305,41.569578849890725,1,b,1.5479738000003636,incorrect,v
181,2F4K,182,2,50.95639127733952,34.44629170548565,1.4426204081947465,38.56371194569204,1,v,0.624180100000558,correct,v
182,2F4K,183,1,47.25640350008859,58.18687294254337,1.3357889684953257,59.00939267488999,1,c,2.4774183000008634,correct,c
183,2F4K,184,2,40.03074962434518,32.031356771666005,1.1494330911081292,36.51002574626807,1,b,1.0732496999999057,incorrect,v
184,2F4K,185,1,69.2645195627355,57.12840838714142,2.1110131811385564,58.15078265248883,2,c,0.9691454000003432,incorrect,n
185,2F4K,186,2,33.39521686663181,47.8886122390253,1.001287660222302,50.3136898938405,2,v,2.907428199999231,incorrect,b
186,2F4K,187,2,51.46018651507437,36.64689665400505,1.4578129238835515,40.46223615664768,1,b,1.7468779999999242,incorrect,v
187,2F4K,188,2,37.815848070511166,49.336894797707565,1.0976936244074993,51.57256611683904,2,v,2.6525139000004856,incorrect,b
188,2F4K,189,1,65.55851279311192,52.0414748633122,1.9544401195651784,53.89897631946391,2,c,1.9230557999999291,incorrect,n
189,2F4K,190,1,59.6297572086423,53.74496866380197,1.7277478887772164,55.34338622719396,2,n,0.8742918999996618,correct,n
190,2F4K,191,1,32.02275325475057,49.64340832926911,0.973115258875648,51.83795617833435,1,c,1.9218667000004643,correct,c
191,2F4K,192,1,36.908948216392126,55.37782733558497,1.0771867928479275,56.70940254593513,1,c,0.727313200000026,correct,c
192,2F4K,193,2,31.78648423917427,50.54441156340573,0.968345995065056,52.61567643608036,2,v,0.7822389000002659,incorrect,b
193,2F4K,194,1,57.0144379937724,53.90315769196496,1.636295307728527,55.47655986744015,2,n,0.884615599999961,correct,n
194,2F4K,195,2,47.92159603578294,29.82217841187716,1.3543943697808358,34.66567330400936,1,b,1.206782799999928,incorrect,v
195,2F4K,196,1,56.2268506808679,48.08975793658724,1.6097152662197267,50.48897300956392,2,n,0.6910757000005106,correct,n
196,2F4K,197,1,33.937590264474714,50.67414010623252,1.0126444430687838,52.7273409522676,1,c,1.1948692999994819,correct,c
197,2F4K,198,1,30.723340165805453,38.853934472233846,0.94717322558411,42.38540295127124,1,c,0.5830060000007506,correct,c
198,2F4K,199,1,38.6492069245986,56.51685440819136,1.1168815637020086,57.65015527826521,1,c,0.5284271999998964,correct,c
199,2F4K,200,1,52.68266329433711,72.44102013960435,1.4953465787793845,69.28670468855606,1,n,0.5270477000003666,incorrect,c
200,2F4K,201,2,67.11367076944119,58.49848168536515,2.018677046877231,59.2601839202305,1,b,2.2010024000001067,incorrect,v
201,2F4K,202,1,21.23912227494292,40.24828413412595,0.7776396406861484,43.60721612728278,1,n,0.6627846999999747,incorrect,c
202,2F4K,203,1,39.46191972328003,56.17292319322516,1.135917132971439,57.36720990833947,1,c,1.2492024000002857,correct,c
203,2F4K,204,1,48.65963262015693,62.56651340505095,1.375340633885337,62.44247537596512,1,c,0.49196800000026997,correct,c
204,2F4K,205,2,62.85829741093873,57.93797086664941,1.8477235505957963,58.80841133402373,1,v,0.6476173000000927,correct,v
205,2F4K,206,2,55.74419942675784,45.58149000469616,1.593640241376106,48.29526402222058,1,v,2.221694199999547,correct,v
206,2F4K,207,2,59.199256014610405,42.05973090016049,1.7123500775630038,45.199071145344654,1,v,1.126568199999383,correct,v
207,2F4K,208,2,62.74663531848029,55.91094229157222,1.843438209804,57.15102698082643,1,v,0.7589954000004582,correct,v
208,2F4K,209,1,24.90935356058401,38.8341138008896,0.8393128691158591,42.36806642603485,1,c,0.6969935999995869,correct,c
209,2F4K,210,2,33.77543886861881,50.89389598252492,1.0092357145790043,52.91630699432958,2,b,0.504101499999706,correct,b
210,2F4K,211,2,40.2273545571115,56.94917101172898,1.1541419197221057,58.00439172231838,2,b,1.3280597999992096,correct,b
211,2F4K,212,1,57.72981137777254,62.99188523412646,1.660818410358085,62.76454315122476,1,n,0.5405368000001545,incorrect,c
212,2F4K,213,1,70.28629630176978,60.81331723418786,2.156346302538888,61.09289692288307,2,n,0.4774512000003597,correct,n
213,2F4K,214,1,48.30883595346943,60.27507399874749,1.365344561183646,60.67171331138055,1,c,0.4858851999997569,correct,c
214,2F4K,215,2,52.76767388222312,64.44615099134667,1.497992308733658,63.848901594797326,2,v,1.4807582000003094,incorrect,b
215,2F4K,216,2,44.82110528391608,54.19916131037975,1.2698280557786117,55.7252887382745,2,b,0.8489271999997072,correct,b
216,2F4K,217,2,49.88506140215157,66.37123079064288,1.41083751359897,65.24239027962756,2,b,0.7819471000002522,correct,b
217,2F4K,218,2,50.99354278234304,66.1611416482747,1.443735326293922,65.09273245637739,2,b,0.5344544000008682,correct,b
218,2F4K,219,1,59.29696651207527,77.04979737868729,1.715832823381619,71.95931096890048,1,n,1.569834599999922,incorrect,c
219,2F4K,220,1,43.74172829239908,27.225256382426597,1.2416442242877268,32.54854673446751,2,c,0.9339832999994542,incorrect,n
220,2F4K,221,2,56.710955945713344,41.55323995892843,1.626001601502416,44.75364945512729,1,v,1.7893763000001854,correct,v
221,2F4K,222,2,42.49766910491858,30.6365738508942,1.209935442710338,35.341324146894536,1,b,0.6254590999997163,incorrect,v
222,2F4K,223,2,51.72364221292818,39.29430198291409,1.4658213333731431,42.770827146928525,1,v,1.0301988000001074,correct,v
223,2F4K,224,2,37.31723656805155,48.63652916157934,1.0863711684355384,50.96474976184869,2,v,1.20702429999983,incorrect,b
224,2F4K,225,1,40.15112003122627,57.04986267121709,1.152313762901355,58.08666561641923,1,c,1.959319300000061,correct,c
225,2F4K,226,2,47.87130073383463,30.33116835771341,1.352978601463858,35.08734062781712,1,v,1.3159900999999081,correct,v
226,2F4K,227,1,27.563208784848587,37.76927045040232,0.8869325283030937,41.43828221294647,1,c,1.8379573000001983,correct,c
227,2F4K,228,2,34.589704423058635,50.19577804130186,1.0264697647651804,52.31518783663865,2,b,3.7991603000000396,correct,b
228,2F4K,229,2,43.85893639494611,55.45991079626199,1.2446741423115542,56.777545618325554,2,b,0.5573868999999831,correct,b
229,2F4K,230,2,37.52604580820084,53.71289876394791,1.0910985196474476,55.31636688784856,2,b,1.062496900000042,correct,b
230,2F4K,231,2,29.70980270719821,45.46354491999708,0.9274195738269676,48.1917641239089,2,b,0.5628811000005953,correct,b
231,2F4K,232,2,38.06350828725197,21.60617646368901,1.1033612725861874,28.20194383527667,1,b,1.3890787999998793,incorrect,v
232,2F4K,233,2,50.76564155036488,54.80817081492443,1.4369095460561645,56.23506456678542,2,v,0.6605580999994345,incorrect,b
233,2F4K,234,2,70.11044282261797,56.53898214939033,2.1484754391680614,57.668325336024125,1,v,1.662026799999694,correct,v
234,2F4K,235,1,59.325632255601846,63.61152027284359,1.7168559145678994,63.22977984170164,1,c,1.164628200000152,correct,c
235,2F4K,236,2,64.66156934964671,47.48111104879257,1.918324893630948,49.95819367669887,1,v,1.529759300000478,correct,v
236,2F4K,237,1,37.80917029747792,51.74383007903782,1.0975412088290295,53.64479627132129,1,c,0.7758922000002713,correct,c
237,2F4K,238,2,49.20681680421385,68.87602459204372,1.391079145232758,66.97864898637465,2,b,0.5951764999999796,correct,b
238,2F4K,239,1,42.20618694866427,59.870066217964485,1.2026239613056724,60.3527595127806,1,c,1.2918395000006058,correct,c
239,2F4K,240,2,72.03461361672456,57.45832763468246,2.236183234474588,58.41949934081143,1,v,0.46636409999973694,correct,v
240,2F4K,241,2,52.7557510894047,36.5416534637063,1.4976209612708835,40.370953914712416,1,b,4.356836399999338,incorrect,v
241,2F4K,242,1,47.74123595430075,30.49382676170828,1.349324251093149,35.22252243807856,2,c,2.2032695999996577,incorrect,n
242,2F4K,243,1,52.99984705009068,40.15290053293816,1.505241959975451,43.52351308601462,2,n,0.8936210000001665,correct,n
243,2F4K,244,1,56.11526713227411,67.17120674138562,1.6059845501754124,65.80665622977519,1,n,0.9821624000005613,incorrect,c
244,2F4K,245,2,61.41298954380249,56.93799888965744,1.7930176456782674,57.99525766843107,1,b,2.2458774000006088,incorrect,v
245,2F4K,246,2,67.57446774946051,53.49648972125654,2.0381129869800363,55.13385772160982,1,v,0.8669392000001608,correct,v
246,2F4K,247,1,47.206208696270295,37.19894147338667,1.334395437293925,40.94174566981978,2,c,2.41590240000005,incorrect,n
247,2F4K,248,2,53.98332984033587,69.8113182510274,1.536342521635501,67.60333486786557,2,b,0.9628594000005251,correct,b
248,2F4K,249,1,61.69252061227933,45.65465118956215,1.8034702421343187,48.35945284244556,2,c,1.5599441000003935,incorrect,n
249,2F4K,250,2,40.07729706609928,50.93395210475991,1.1505461968638488,52.950724722584646,2,b,0.6619220000002315,correct,b
250,2F4K,251,2,44.48549645308798,63.64742435524157,1.2609970438730602,63.25659291202437,2,b,0.48459139999977197,correct,b
251,2F4K,252,1,46.57680976707094,66.26226252218387,1.3170446836239489,65.16484187120528,1,c,1.668009300000449,correct,c
252,2F4K,253,1,29.468696849959528,48.93366766581763,0.9227814484112348,51.22285475790744,1,c,0.7651168000002144,correct,c
253,2F4K,254,1,60.13875477699576,49.108686435613535,1.746132022677942,51.37472445014743,2,n,0.42386569999962376,correct,n
254,2F4K,255,1,51.94074273111255,37.73217471477619,1.4724537116655712,41.4059529909558,2,c,1.7468770999994376,incorrect,n
255,2F4K,256,2,53.428634607498026,43.73613952810111,1.5187232922779366,46.67382385933334,1,b,0.916807599999629,incorrect,v
256,2F4K,257,2,66.28261619905952,56.18225390395888,1.9840913985031248,57.374899092582005,1,v,1.3038730999996915,correct,v
257,2F4K,258,1,34.243810482057924,50.46321803331383,1.0191132027355183,52.54574708541062,1,c,2.056427700000313,correct,c
258,2F4K,259,1,59.94061178825908,75.28203401510802,1.7389522928066894,70.97764793889813,1,n,1.4922682000005807,incorrect,c
259,2F4K,260,1,57.76351680447173,41.10219124837406,1.661982860504291,44.35716164904671,2,c,2.4084150000007867,incorrect,n
260,2F4K,261,2,69.63771787486802,58.15203018155284,2.127459305872308,58.98129307518495,1,v,1.5088588999997228,correct,v
261,2F4K,262,2,21.847708329105167,34.722783096122164,0.7875433535588131,38.80097629246647,2,b,0.68616639999982,correct,b
262,2F4K,263,1,51.58880908444275,36.812233198468334,1.4617172547201216,40.60572770320352,2,c,1.384123499999987,incorrect,n
263,2F4K,264,2,78.63623105953239,62.36086997874577,2.565227772572217,62.28600304965524,1,v,1.6741686000004847,correct,v
264,2F4K,265,1,49.88583362984514,71.12046900067682,1.4108601690427571,68.45510691655011,1,n,2.2823152999999365,incorrect,c
265,2F4K,266,2,43.13573174004885,59.0340817223885,1.226096008185372,59.68906164501326,2,b,0.5149083000005703,correct,b
266,2F4K,267,2,65.2496874493329,42.086668227611774,1.9419292274467264,45.22276492567024,1,v,0.7154547000000093,correct,v
267,2F4K,268,2,55.39830284440167,45.87789529369015,1.582218762735935,48.555258814775925,1,v,1.2920048999994833,correct,v
268,2F4K,269,2,63.71244092699452,58.72904407817629,1.8808349174710672,59.44514774307513,1,v,0.582860399999845,correct,v
269,2F4K,270,2,43.86020188711664,51.061742773180114,1.2447068965540449,53.060472502044654,2,b,0.636283299999377,correct,b
270,2F4K,271,1,67.51213278629831,57.393103756120645,2.035472857422523,58.36645206084674,2,n,0.559698500000195,correct,n
271,2F4K,272,1,43.70137772204853,55.10058158603919,1.2406028391434794,56.4788560896104,1,c,0.37062820000028296,correct,c
272,2F4K,273,2,59.18895413130589,42.93595358641423,1.7119832944072533,45.96990454868844,1,v,0.7832615999996051,correct,v
273,2F4K,274,2,47.9855958729129,62.72257846875328,1.356198050838762,62.56089005587895,2,v,1.5697864000003392,incorrect,b
274,2F4K,275,2,48.735435384311394,66.80095653883886,1.3775102573095894,65.54660971321448,2,b,0.613336999999774,correct,b
275,2F4K,276,2,52.18031131986064,40.86194869011665,1.4798073192476902,44.14606886109675,1,b,4.151536700000179,incorrect,v
276,2F4K,277,1,41.509886471034605,54.91664920168203,1.1853364313712105,56.32558129348898,1,c,2.8770457000000533,correct,c
277,2F4K,278,1,54.25691267714927,45.75120221295273,1.5451076756237911,48.44414840925125,2,n,0.5162936000006084,correct,n
278,2F4K,279,2,61.88391416345478,55.327991494587735,1.8106622062471764,56.66800480678725,1,v,0.6971106999999392,correct,v
279,2F4K,280,1,54.608685561628064,74.66563145501118,1.5564514402523126,70.62245099516497,1,n,2.9559479999998075,incorrect,c
280,2F4K,281,2,44.35653081387246,53.34416918833024,1.2576198764482718,55.0052104523486,2,v,1.139014700000189,incorrect,b
281,2F4K,282,2,63.26342677065276,71.4569813549486,1.863355316883928,68.66968876233757,2,b,0.6447911999994176,correct,b
282,2F4K,283,1,40.34281887143649,53.61984006287578,1.15691635877959,55.23792417822412,1,c,1.0429289000003337,correct,c
283,2F4K,284,1,67.41738669546666,47.80080335251828,2.031466537925376,50.23713040197703,2,n,0.48592029999963415,correct,n
284,2F4K,285,2,52.11485125090641,33.715590055699,1.47779437013012,37.93866108338467,1,v,1.1035822999992888,correct,v
285,2F4K,286,1,50.79051710050248,37.382408237540304,1.4376530121534965,41.10135292141735,2,n,1.1170885999999882,correct,n
286,2F4K,287,2,58.24862493945057,49.583774326048896,1.6788330246895606,51.78635399028371,1,v,0.672702500000014,correct,v
287,2F4K,288,2,39.59107221824949,54.7237233224699,1.1389719097335518,56.16453904456999,2,b,1.133893000000171,correct,b
288,2F4K,289,2,53.41406508968118,64.87380424112305,1.51826324256712,64.16269128036173,2,v,0.8790313999998034,incorrect,b
289,2F4K,290,2,45.974150744778456,62.19604481848175,1.300642545934228,62.16023065728691,2,b,0.6505894000001717,correct,b
290,2F4K,291,2,56.43716445549132,47.65412999015541,1.6167705340342395,50.10919402717494,1,v,0.5992887000002156,correct,v
291,2F4K,292,1,68.37481654199091,52.473162704852975,2.072316696796185,54.26671245664683,2,n,0.5102386999997179,correct,n
292,2F4K,293,2,54.477055776552056,36.10470858030163,1.5521970019346043,39.99245286845191,1,v,1.181306499999664,correct,v
293,2F4K,294,2,59.88783127693504,47.68856857382289,1.7370447703012204,50.13923915767205,1,v,0.5587320000004183,correct,v
294,2F4K,295,2,49.45660700743519,31.86404549184012,1.3983235442049733,36.36910666191326,1,v,0.6619156999995539,correct,v
295,2F4K,296,2,40.37441405407196,54.4658686372276,1.1576767064544586,55.94886928352355,2,b,0.5516292000002068,correct,b
296,2F4K,297,1,62.077839080328026,50.73815503287629,1.81797854354207,52.78241165422478,2,n,1.0199519999996483,correct,n
297,2F4K,298,1,37.680461337507694,50.25027813701602,1.09460764675029,52.36219947512812,1,c,1.8075728999992862,correct,c
298,2F4K,299,1,40.87339339550672,55.42832053750122,1.169751275538505,56.751326622626586,1,c,0.8621846999994887,correct,c
299,2F4K,300,2,74.87199090153668,59.11238618943363,2.3720916088688395,59.75152737587463,1,v,0.8487022999997862,correct,v
300,2F4K,301,2,32.73962795475178,49.55568895701816,0.9877301399185724,51.76204605953311,2,b,1.7408621000004132,correct,b
301,2F4K,302,1,43.15434158709365,30.540298963531896,1.2265705757285668,35.26118194926308,2,c,3.890636799999811,incorrect,n
302,2F4K,303,2,30.3432041284182,48.952995266786274,0.9397156130161148,51.23963181463408,2,b,0.7520350000004328,correct,b
303,2F4K,304,2,43.56924222172777,52.00070710079418,1.237198737765896,53.86419168414504,2,b,1.2202274999999645,correct,b
304,2F4K,305,1,39.37520350197893,53.40397651381055,1.1338706779354957,55.05574095933875,1,c,0.7518835000000763,correct,c
305,2F4K,306,1,60.75695632312581,49.65451975210041,1.7687236922927776,51.84756937609082,2,n,0.6315316999998686,correct,n
306,2F4K,307,2,25.48091933291471,41.703847545118286,0.8493479353748649,44.886079309451176,2,b,2.220574499999202,correct,b
307,2F4K,308,2,53.38858443883786,66.19375880808906,1.5174589959202456,65.11600708234829,2,v,1.8017192999996041,incorrect,b
308,2F4K,309,1,47.3897303455486,67.35626733678326,1.339497520230043,65.93590869831158,1,c,2.1413738999999623,correct,c
309,2F4K,310,1,56.20535763593221,44.31569758727575,1.608995988383615,47.183453203729954,2,n,2.0324924999995346,correct,n
310,2F4K,311,2,56.33355819068333,37.62731462083956,1.6132910618160927,41.3145908788017,1,b,1.5176222999998572,incorrect,v
311,2F4K,312,2,40.86825238925021,56.3033405352956,1.1696262308751026,57.47461788716745,2,b,2.264105799999925,correct,b
312,2F4K,313,1,61.119746751965984,46.63860928481648,1.7821174279058956,49.22171562812371,2,n,0.7758946000003561,correct,n
313,2F4K,314,1,65.35604234236474,51.839882395891,1.946228727095748,53.72687706163644,2,n,0.5222998999997799,correct,n
314,2F4K,315,1,59.540337253087976,46.28212449445624,1.7245382376628853,48.90955747320339,2,n,1.0697710000004008,correct,n
315,2F4K,316,1,51.53411498843972,39.16280872499358,1.4600557422967444,42.65569152146403,2,c,1.2553064999992785,incorrect,n
316,2F4K,317,1,45.33700299090859,53.60063393203348,1.2835238374559743,55.22172732791607,1,c,0.7519305999994685,correct,c
317,2F4K,318,2,68.27141141965609,52.6843482708673,2.067865487065871,54.44620563026838,1,v,1.9168263999999908,correct,v
318,2F4K,319,1,48.81749796672827,30.06552996898867,1.379862907397731,34.86701864075754,2,c,1.5345074000006207,incorrect,n
319,2F4K,320,2,56.852190165540925,43.3344164990764,1.6307839972569205,46.32045459972408,1,v,0.9289587000002939,correct,v
320,2F4K,321,2,59.07995123303312,67.77037182425873,1.7081072193375797,66.22336257797907,2,v,0.8479158000000098,incorrect,b
321,2F4K,322,1,67.96788054463441,54.06285635168729,2.054854746505836,55.610829178738776,2,c,1.4872893000001568,incorrect,n
322,2F4K,323,1,59.77898122142862,50.195628623783286,1.7331174622459244,52.315058930526,2,n,1.4798487999996723,correct,n
323,2F4K,324,2,37.49373179091666,57.08645696006125,1.0903656010681426,58.11654435965031,2,v,1.6511295999998765,incorrect,b
324,2F4K,325,2,52.015675304821066,35.49622647955877,1.47474984664482,39.46672707143032,1,v,1.377011699999457,correct,v
325,2F4K,326,2,49.18405636393325,38.44792811911099,1.3904209170928914,42.03048798871991,1,v,0.6620201000005181,correct,v
326,2F4K,327,1,45.671401808495695,66.62382457967894,1.2924800877859153,65.4215215857144,1,c,3.5517431999996916,correct,c
327,2F4K,328,2,50.40036212893239,35.9708456149503,1.4260364557482126,39.876655429784016,1,v,1.8612709999997605,correct,v
328,2F4K,329,1,48.63471314060513,63.11730950505352,1.3746281362292905,62.85909255423263,1,c,1.8197006000000329,correct,c
329,2F4K,330,2,42.48162522244016,57.14742880656824,1.209531847556076,58.166300894901575,2,b,1.1899155999999493,correct,b
330,2F4K,331,1,43.12133741278467,31.33050964704043,1.2257290660605695,35.921030854050755,2,n,0.9642985999998928,correct,n
331,2F4K,332,1,41.31939770633496,59.95320754409528,1.180650479158703,60.41837539976503,1,c,1.109676600000057,correct,c
332,2F4K,333,1,25.36281518216052,41.86928891872407,0.8472645753436989,45.03157166334486,1,n,2.7909233999998833,incorrect,c
333,2F4K,334,2,64.86989530598989,57.69334566874552,1.9266531346954248,58.61032319989196,1,b,2.069857000000411,incorrect,v
334,2F4K,335,1,53.847244335662175,42.473310003935474,1.5320010967396698,45.562883908329326,2,n,3.514307700000245,correct,n
335,2F4K,336,1,62.05752697992849,48.27237809749871,1.81721083108353,50.64799650684753,2,n,1.5575718999998571,correct,n
336,2F4K,337,2,56.169280512798224,44.14588916337759,1.6077893679337272,47.03416038136637,1,v,1.6376743999999235,correct,v
337,2F4K,338,1,68.83219942142372,52.27656085220028,2.0921205488192136,54.09937238301241,2,n,1.1595855999994455,correct,n
338,2F4K,339,1,44.09092395879789,30.733666463966216,1.2506930133304608,35.422218451961626,2,c,2.0274561999995058,incorrect,n
339,2F4K,340,2,40.86875708741453,57.60397786072896,1.1696385060536931,58.5378197179434,2,b,0.8183554999995977,correct,b
340,2F4K,341,1,39.18175139475294,24.725780073060776,1.12931859176561,30.571832599072003,2,n,1.1535175999997591,correct,n
341,2F4K,342,2,46.5121480487671,35.25229931141387,1.315274971922057,39.25645019720916,1,v,2.0466151000000536,correct,v
342,2F4K,343,1,56.19266817841018,43.33169134905026,1.6085714788617915,46.31805725105018,2,n,0.9276228999997329,correct,n
343,2F4K,344,2,54.28183121898292,39.405051061237415,1.5459085061402276,42.86782954843407,1,v,1.2553070000003572,correct,v
344,2F4K,345,2,49.51134030782276,58.14638466007293,1.3999159479542789,58.97673906294519,2,b,1.894913500000257,correct,b
345,2F4K,346,1,59.40841362281151,44.04085388205276,1.71981383854869,46.94180303300567,2,c,0.9097578000000794,incorrect,n
346,2F4K,347,2,47.75211419261197,59.74707731066069,1.349629511677663,60.2555641597894,2,b,0.6180651999993643,correct,b
347,2F4K,348,1,34.490490148533006,49.99324448469035,1.0243542351065635,52.140363167215774,1,c,0.9653118000005634,correct,c
348,2F4K,349,1,59.26094507552446,68.20004945025829,1.7145480691017734,66.51901070264375,1,c,2.3551119999992807,correct,c
349,2F4K,350,2,34.328034523471814,48.46415462083745,1.0208996310166805,50.81487005934845,2,b,1.8439910999995845,correct,b
350,2F4K,351,1,32.56053036455793,42.68336601666422,0.9840584473621948,45.74768250972989,1,c,1.6390564000002996,correct,c
351,2F4K,352,1,61.71919171548546,47.56287466026698,1.8044707421827748,50.0295630940438,2,n,1.2553155999994488,correct,n
352,2F4K,353,2,48.62228659272377,36.01287137992731,1.3742729743609086,39.91300126757763,1,v,0.8500231999996686,correct,v
353,2F4K,354,2,49.46077092278696,69.85149685591918,1.398444624948764,67.62987224219633,2,b,1.1339467000007062,correct,b
354,2F4K,355,2,48.84075414480168,63.54088772575072,1.3805303685850403,63.17698507155003,2,b,0.523435299999619,correct,b
355,2F4K,356,1,47.975048914123406,66.70651108199749,1.355900645022707,65.47996803502892,1,c,1.461648299999979,correct,c
356,2F4K,357,1,67.59485494024764,55.614459841278126,2.0389772071933616,56.90570379646816,2,c,2.0524761999995462,incorrect,n
357,2F4K,358,2,27.85654161280985,44.49861549022356,0.8923590703307707,47.34424166162932,2,b,1.595296800000142,correct,b
358,2F4K,359,1,57.47014993939072,67.74611461532734,1.651874975170696,66.20659214517941,1,c,1.4557444000001851,correct,c
359,2F4K,360,2,57.37873123497167,48.650268085133376,1.648737746171974,50.97669112430941,1,v,1.9231151000003592,correct,v
360,2F4K,361,2,44.47819015035621,30.57263893138166,1.2608054747741864,35.288094842835555,1,v,3.701646399999845,correct,v
361,2F4K,362,2,45.32439485915337,53.4915655580354,1.283187368916557,55.12970126365709,2,b,0.9421679999995831,correct,b
362,2F4K,363,1,45.01724880457361,29.52712195590988,1.275017867201696,34.42219149026637,2,n,0.7940506000004461,correct,n
363,2F4K,364,1,34.360262410499104,48.99095952311974,1.0215840264873788,51.27258196403846,1,c,0.7762267000007341,correct,c
364,2F4K,365,1,47.79512227836896,39.63280753358124,1.350837063034634,43.06739939704721,2,n,0.5453626999997141,correct,n
365,2F4K,366,2,53.77313954632364,45.16791952729521,1.5296421534762543,47.93224616348536,1,v,1.6740660000004937,correct,v
366,2F4K,367,2,52.77180375729605,35.236400952191865,1.4981209593473692,39.2427548620515,1,v,0.5698574999996708,correct,v
367,2F4K,368,1,45.5807544768992,60.22045354514027,1.290046111448682,60.62879893292799,1,c,2.179105299999719,correct,c
368,2F4K,369,1,60.69677516102995,49.10654285048362,1.7665116391207871,51.37286511476224,2,n,1.273525200000222,correct,n
369,2F4K,370,1,56.82269793398684,39.8851115189,1.6297841869074086,43.28860250833579,2,n,0.5405137000007016,correct,n
370,2F4K,371,2,51.613878836006,41.57070283522337,1.4624794624093682,44.76900370979754,1,v,2.0493539999997665,correct,v
371,2F4K,372,1,54.89649150923866,40.964911766985175,1.5657943526647378,44.2365304892308,2,n,1.8089223000006314,correct,n
372,2F4K,373,2,36.22152602295631,46.59323705642362,1.061898430687236,49.18200149248518,2,v,0.6787694000004194,incorrect,b
373,2F4K,374,1,43.28699815279502,27.12615517092191,1.2299587609944305,32.46897291154238,2,n,2.0627431000002616,correct,n
374,2F4K,375,1,22.186076201649463,38.41295782173668,0.793104176744269,41.999939276028336,1,n,0.9518603999995321,incorrect,c
375,2F4K,376,2,35.47578735574535,44.97083763707517,1.0455583813743832,47.75916337355393,2,b,1.2931688000007853,correct,b
376,2F4K,377,2,34.63071855890537,50.75377277967058,1.0273455783015617,52.79584419186517,2,b,0.9466038999999,correct,b
377,2F4K,378,1,60.840741770014176,72.19759155279795,1.7718079714809492,69.13553456325462,1,c,3.0299793000003774,correct,c
378,2F4K,379,1,21.1514095311523,40.65268882817447,0.7762225690641925,43.96225883052518,1,n,1.7348192999997991,incorrect,c
379,2F4K,380,2,46.824242022221554,60.68907970549336,1.3238386170326353,60.99595619610151,2,b,2.365887100000691,correct,b
380,2F4K,381,2,46.45921128885513,65.74337388224748,1.313827928322933,64.79334624109957,2,b,0.5354200000001583,correct,b
381,2F4K,382,2,50.75919239977321,66.95204008935852,1.436716860330291,65.65295647655985,2,b,0.5270394999997734,correct,b
382,2F4K,383,1,40.4909601042168,49.07610777021333,1.1604857465245624,51.346463916543065,1,c,1.7710745000003953,correct,c
383,2F4K,384,2,44.793356022841664,35.136433453744104,1.269095538686788,39.15666772589695,1,b,1.2688478999998551,incorrect,v
384,2F4K,385,1,36.315831363306685,52.38753025701322,1.0639828826074058,54.19385375288029,1,c,0.8783352999998897,correct,c
385,2F4K,386,2,51.46996967848448,64.1204924268466,1.458109524463333,63.60837647728597,2,b,2.2835557999997036,correct,b
386,2F4K,387,1,52.19666141961876,37.75225143325623,1.4803105256103095,41.42344945445437,2,n,0.897254200000134,correct,n
387,2F4K,388,1,44.528033703449154,30.51071503026284,1.2621129361878365,35.236569611012335,2,n,0.7507722000000285,correct,n
388,2F4K,389,2,44.16881097022401,29.556478466386068,1.2527202955992158,34.44638462619134,1,b,1.687559500000134,incorrect,v
389,2F4K,390,2,61.5692433301854,40.684490448343,1.7988530046380629,43.990188981739365,1,v,0.727321800000027,correct,v
390,2F4K,391,2,70.01480005915121,53.08958533242084,2.1442067215503218,54.78985437562147,1,v,0.6072942000000694,correct,v
391,2F4K,392,2,48.54530911382238,63.161054629765424,1.3720749329838804,62.89202440502236,2,b,0.9462092999992819,correct,b
392,2F4K,393,2,51.27561713068552,33.69024237141371,1.4522285430452833,37.917032037604095,1,v,1.130133300000125,correct,v
393,2F4K,394,1,56.14248219675996,38.86339426754554,1.60689366835102,42.39367749235189,2,c,2.7255378999998356,incorrect,n
394,2F4K,395,2,38.08704658859355,58.3716201541209,1.1039014617412504,59.158193818442406,2,b,1.027028400000745,correct,b
395,2F4K,396,2,52.05317481109764,65.06981904356839,1.4759002760223277,64.30572273629686,2,b,0.5880725999995775,correct,b
396,2F4K,397,2,54.2106171464278,73.34961535449625,1.5436209339860212,69.84230965942318,2,b,0.6133698000003278,correct,b
397,2F4K,398,1,55.149255444635926,32.29578034297343,1.5740459568869896,36.733123666658464,2,n,0.7954751000006581,correct,n
398,2F4K,399,2,28.20737291930125,41.42928057964755,0.8988929303081463,44.64466548906241,2,v,3.8894176000003426,incorrect,b
399,2F4K,400,2,56.170418023204014,74.4585991441272,1.6078273988144336,70.50167808415924,2,b,0.727332700000261,correct,b
