,condition,trial,sub_task,x,y,xt,yt,cat,resp,rt,acc,correct_resp
0,4F4K,1,1,52.65136013892332,44.18538271041616,1.4943735283369854,47.590272991732085,2,c,4.62947680000002,incorrect,n
1,4F4K,2,1,56.6199791289937,49.52006844883832,1.6229284237180508,52.378816684296126,2,c,1.4738597999999001,incorrect,n
2,4F4K,3,2,59.72355232013207,43.43713874918184,1.7311210017481624,46.91439228711722,1,v,1.170503300000064,correct,v
3,4F4K,4,1,72.58782421350594,61.11095174878918,2.262056126895477,62.23176035857435,2,c,1.5404232000000775,incorrect,n
4,4F4K,5,1,38.93782819003646,49.772584354346485,1.1236049191356614,52.60320101154566,1,n,1.8256750000000466,incorrect,c
5,4F4K,6,1,59.158625189957625,71.12522643290518,1.7109039338396623,69.55858422770217,1,c,4.4535869000001185,correct,c
6,4F4K,7,2,49.45720334781327,68.76124997317437,1.3983408842928855,67.9593616811613,2,v,5.0,correct,b
7,4F4K,8,1,64.54778370451481,81.47979185981468,1.913791299238799,75.42464183561756,1,c,1.1883576999998695,correct,c
8,4F4K,9,1,47.70955331304806,38.3704064418316,1.3484355793567802,42.34593026022954,2,n,0.5937068000000636,correct,n
9,4F4K,10,1,65.09715394554807,51.31191135254629,1.9357794870210925,53.964473891520576,2,c,0.576014700000087,incorrect,n
10,4F4K,11,1,46.44246506839628,61.79928866098936,1.3133704964785098,62.777892232816754,1,c,1.4190430999999535,correct,c
11,4F4K,12,2,42.09122621383548,55.30357485154533,1.1997524726594213,57.428418029138,2,v,1.2187743000001774,incorrect,b
12,4F4K,13,2,52.205517552173646,63.49576504734051,1.480583161886447,64.09977214730736,2,b,1.2005532000000585,correct,b
13,4F4K,14,1,53.251052939527305,35.15693392102259,1.513125434170583,39.481987400303645,2,n,0.8476588000000902,correct,n
14,4F4K,15,1,52.29571575302607,42.28512817402159,1.4833627775211444,45.87347511720873,2,n,0.6545730999998796,correct,n
15,4F4K,16,2,59.80095589657883,66.06733588149879,1.7339095921462735,66.0332231840883,2,v,0.9942161000001306,incorrect,b
16,4F4K,17,2,48.50306077976409,65.58749990321787,1.3708700541420422,65.67921578283902,2,b,1.6853464000000713,correct,b
17,4F4K,18,1,43.712917273716606,25.80187438840018,1.2409005677260532,31.5125606713984,2,n,0.8974178999999367,correct,n
18,4F4K,19,2,44.31473470199442,32.30257242255731,1.2565273215287818,36.9805981860833,1,b,0.8064594999998462,incorrect,v
19,4F4K,20,1,40.012331916505566,48.58285748910131,1.1489929592254151,51.54368634724578,1,n,3.4414474999998674,incorrect,c
20,4F4K,21,1,42.36934370964482,24.5434539107804,1.2067110924936406,30.50117161833928,2,c,2.2336619999998675,incorrect,n
21,4F4K,22,2,68.43543311601464,54.47974554648377,2.074930470405598,56.72258666594047,1,v,1.2248051000001396,correct,v
22,4F4K,23,2,61.90650265272755,51.42202698717855,1.811512900188508,54.061383458808,1,v,1.4797909000001255,correct,v
23,4F4K,24,2,33.18719114612512,20.161528989216965,0.9969656715575704,27.12720407900836,1,b,0.7939911999999367,incorrect,v
24,4F4K,25,1,48.83321911773649,65.4837902916714,1.3803140750825298,65.60228431304273,1,c,1.1149249000000054,correct,c
25,4F4K,26,1,45.61223030646416,31.530425166389783,1.2908907507202083,36.31282623042628,2,n,0.6604642000002059,correct,n
26,4F4K,27,2,55.41960807008605,35.779687702293,1.5829198879591584,40.0336409378003,1,b,1.3583166000000801,incorrect,v
27,4F4K,28,1,61.88361284926436,48.2577733469,1.8106508613026355,51.25321948896582,2,c,1.4303221000000121,incorrect,n
28,4F4K,29,2,56.851157089412936,38.57271360331292,1.6307489647821276,42.5274660155251,1,b,1.3219575999999051,incorrect,v
29,4F4K,30,1,53.120167601258665,40.29308881533359,1.509012783947338,44.07527919686907,2,n,0.9456556999998611,correct,n
30,4F4K,31,2,41.70575394616071,54.17381912076799,1.1901740920544237,56.45917332826093,2,v,1.4193078999999216,incorrect,b
31,4F4K,32,1,34.37745504343615,47.25155348415694,1.021949319054427,50.35189423133488,1,c,2.306532000000061,correct,c
32,4F4K,33,1,53.60820357494248,67.52057863263882,1.5244048541670503,67.08550543091052,1,c,1.0793075000001409,correct,c
33,4F4K,34,2,61.0204390866604,70.0264475321458,1.778441072721274,68.82626369290261,2,b,1.2915883999999096,correct,b
34,4F4K,35,1,62.84247231526959,50.61967829245823,1.8471156135640256,53.35377574923344,2,c,0.8363097000001289,incorrect,n
35,4F4K,36,1,45.91758725619659,62.056414712736384,1.2991136234251717,62.9804808927806,1,n,1.5889675999999326,incorrect,c
36,4F4K,37,1,78.54982559902764,59.439855682157365,2.560622835105911,60.8838770787872,2,c,0.7332449999998971,incorrect,n
37,4F4K,38,1,43.15814969770224,59.29627752130759,1.2266677085508135,60.76667519166355,1,c,1.5525723000000653,correct,c
38,4F4K,39,2,34.04518362202114,48.983877676068346,1.0149126103579085,51.9014586701271,2,b,1.2917514000000665,correct,b
39,4F4K,40,2,54.5807035871303,41.772225758877575,1.5555460531513736,45.4101342350062,1,b,5.0,correct,v
40,4F4K,41,1,66.8265252629462,55.49381229867212,2.006659394452236,57.59065310871497,2,n,2.4166419000000587,correct,n
41,4F4K,42,1,59.50354544730742,47.004794725130346,1.723219359956985,50.130391266548,2,n,0.5330065000000559,correct,n
42,4F4K,43,2,54.13018362051008,65.64081422770907,1.5410412806983904,65.71870667897915,2,b,1.2608433000000332,correct,b
43,4F4K,44,1,53.99538539366007,67.12642187110865,1.536727712831525,66.80310530189065,1,n,0.660878700000012,incorrect,c
44,4F4K,45,1,60.61087471896883,40.96364474449067,1.7633590251455955,44.68009897852434,2,n,1.6074277000000166,correct,n
45,4F4K,46,2,38.11205532697754,53.07827819146205,1.1044756862676166,55.51042802062998,2,v,1.1886721000000762,incorrect,b
46,4F4K,47,2,66.7729435676109,58.67755752354636,2.004424819604508,60.25920514399381,1,b,1.6860987999998542,incorrect,v
47,4F4K,48,1,30.24658884185344,36.768500564737984,0.9378295646910104,40.91315535192583,1,n,2.415820599999961,incorrect,c
48,4F4K,49,1,53.00731807188356,67.59268908595108,1.5054758258047534,67.13692390521211,1,n,0.8548444000000472,incorrect,c
49,4F4K,50,1,44.89725179106975,57.56117459334576,1.2718403223014512,59.333998115580215,1,n,1.7528858000000582,incorrect,c
50,4F4K,51,2,64.29501514746102,73.60852413342587,1.9037584686954936,71.14022812403043,2,v,1.504019400000061,incorrect,b
51,4F4K,52,2,53.14779727911494,45.679729727839685,1.5098800257880294,48.93837527691808,1,b,3.550718599999982,incorrect,v
52,4F4K,53,1,45.57679415576421,61.960990192692215,1.289939877219581,62.9053874273714,1,c,2.1656829999999445,correct,c
53,4F4K,54,1,67.4413105991041,48.67897603549453,2.0324774106183447,51.62949514070284,2,n,1.273452700000007,correct,n
54,4F4K,55,2,68.3326249572841,50.628121944541256,2.0704993484523024,53.36123980406701,1,v,1.430401800000027,correct,v
55,4F4K,56,1,57.33683709510634,76.76135448153599,1.6473020504123728,72.99390849888745,1,c,1.5647538000000623,correct,c
56,4F4K,57,1,56.396800629993365,44.38477055741125,1.615414079713995,47.77030722051804,2,n,1.2491262000000916,correct,n
57,4F4K,58,1,58.057925094886045,51.38241302126524,1.6721888086159735,54.02652804662095,2,n,1.3824779999999919,correct,n
58,4F4K,59,1,55.1883596067061,36.08185931573517,1.575326410037301,40.30196439210438,2,n,0.6604319999999007,correct,n
59,4F4K,60,2,30.96606486201906,48.907770011915694,0.9519659953531284,51.83360676130188,2,v,2.5311920000001464,incorrect,b
60,4F4K,61,2,43.531197434912926,60.04715194303818,1.236220353272492,61.37721586513958,2,b,0.4484512999999879,correct,b
61,4F4K,62,1,30.643620750378517,47.18573432660014,0.94560437958354,50.29282831805561,1,n,2.2034384999999475,incorrect,c
62,4F4K,63,1,48.63398795507227,34.94511679025907,1.374607407255536,39.29478669964951,2,n,1.2855222000000595,correct,n
63,4F4K,64,2,50.809386086440384,42.60742275608668,1.4382172140737617,46.16468238898446,1,v,1.9653137000000243,correct,v
64,4F4K,65,2,61.59003251982378,51.10273998209555,1.7996308151862628,53.780206403337296,1,b,0.8060583999999835,incorrect,v
65,4F4K,66,1,41.45707348192919,52.77698616915335,1.1840353913855723,55.24808851556971,1,n,1.8377831999998762,incorrect,c
66,4F4K,67,2,56.2297205172904,38.17090939444916,1.6098113313730862,42.1670332031439,1,b,0.7696831000000657,incorrect,v
67,4F4K,68,2,61.92773361382454,52.29837553968768,1.812312833297096,54.8301695132817,1,v,0.39482969999994566,correct,v
68,4F4K,69,2,48.096221045603855,63.05785028044481,1.3593214206725943,63.76193560983558,2,v,1.819165699999985,incorrect,b
69,4F4K,70,1,40.17972286690633,25.2312093507023,1.1529993390768551,31.051755328429337,2,c,1.9047923999999057,incorrect,n
70,4F4K,71,2,36.28332892145434,25.62723096611563,1.0632640122233683,31.37116398383491,1,b,0.5936827000000449,incorrect,v
71,4F4K,72,1,68.04458830888214,57.393907624765504,2.0581350466618464,59.194355503498855,2,n,0.5390431000000717,correct,n
72,4F4K,73,1,28.41689906750291,45.315061872088464,0.902817927570253,48.60969194102584,1,c,0.6107289000001401,correct,c
73,4F4K,74,1,56.431815803094686,41.943107253730695,1.616590723420102,45.56448716953507,2,n,0.6543520000000171,correct,n
74,4F4K,75,1,64.83810643477179,51.66948064953403,1.9253799781035488,54.27891401448768,2,n,0.7757469999999103,correct,n
75,4F4K,76,1,50.47025174149511,30.3162233018491,1.4281104406863916,35.271622935755786,2,c,0.9820715999999265,incorrect,n
76,4F4K,77,1,46.36271745249085,31.95005652940482,1.3111943324175317,36.67521469852977,2,n,0.3806443999999374,correct,n
77,4F4K,78,1,55.14298556580293,38.05694506077351,1.57384074856885,42.06489096116359,2,n,0.49658369999997376,correct,n
78,4F4K,79,1,56.56583181821159,66.45545016672776,1.621102096893082,66.3172078674394,1,n,0.6124680000000353,incorrect,c
79,4F4K,80,2,79.34526808583914,59.13608294473013,2.6033297151990795,60.63565831289267,1,b,1.4311225999999806,incorrect,v
80,4F4K,81,1,73.15965836040627,58.27831538088498,2.2891146958896287,59.92971576493679,2,c,2.7010569000001396,incorrect,n
81,4F4K,82,2,40.071948589243206,48.99779590381413,1.1504182420152511,51.91386463682056,2,b,0.6968320000000858,correct,b
82,4F4K,83,2,75.09676864963089,56.6631106761342,2.383205006590693,58.58126518736032,1,v,0.684688400000141,correct,v
83,4F4K,84,1,42.730352919382334,24.770318357759034,1.2158039302252723,30.68220181773006,2,n,1.4060294000000795,correct,n
84,4F4K,85,2,43.39154173630398,61.79274580621696,1.2326355047335518,62.772726976686975,2,b,2.8224573999998483,correct,b
85,4F4K,86,2,65.6065499944231,49.24459462432924,1.9563933959950803,52.13371790456831,1,v,0.5386315999999169,correct,v
86,4F4K,87,1,63.1700363351653,45.000103552716176,1.8597401931892088,48.32564008085787,2,c,1.3644340999999258,incorrect,n
87,4F4K,88,1,41.76107792071021,60.267669819653136,1.191544091582132,61.55537924220558,1,c,0.6248940999998922,correct,c
88,4F4K,89,1,44.59856509721821,28.890992702602816,1.2639653837358606,34.064599860150935,2,c,0.5936861000000135,incorrect,n
89,4F4K,90,1,38.88553239044443,46.41278468329582,1.122383707207444,49.59832104437713,1,n,1.2177429000000757,incorrect,c
90,4F4K,91,2,37.30691310159297,54.05826250584317,1.0861379816779038,56.35949735511517,2,b,1.3832310999998754,correct,b
91,4F4K,92,1,45.80466043996533,32.885395025998626,1.2960665626155758,37.48733206066039,2,c,0.7878471000001355,incorrect,n
92,4F4K,93,1,65.46743318793398,42.1415993476143,1.95074201638998,45.74380172526141,2,n,0.8485786999999618,correct,n
93,4F4K,94,2,45.22210121978354,37.607771463977045,1.2804607552833185,41.662716801851,1,b,2.1350671000000148,incorrect,v
94,4F4K,95,2,45.823066953495264,55.37633083648981,1.2965627305259155,57.49049876494602,2,b,1.8256346000000576,correct,b
95,4F4K,96,2,30.3210172599048,43.328607755593495,0.9392821630352818,46.81633332195974,2,b,1.2248474999998962,correct,b
96,4F4K,97,2,59.89443717635956,67.16233321633825,1.7372833972641903,66.82892835983992,2,v,0.98817269999995,incorrect,b
97,4F4K,98,2,66.6622301699862,52.38004076558163,1.9998154998006668,54.9015795325225,1,v,1.3340827999998055,correct,v
98,4F4K,99,1,62.06635009846288,54.71192834340506,1.817544268235033,56.92203995567481,2,n,2.055364599999848,correct,n
99,4F4K,100,1,40.742064927426455,55.29285606374898,1.1665611611980742,57.41926841157174,1,c,0.551493599999958,correct,c
100,4F4K,101,2,42.61919833698866,56.196166685939225,1.2129969728754333,58.18706201077058,2,v,1.9167221000000154,incorrect,b
101,4F4K,102,2,62.98363061282034,48.05376160496913,1.8525454251038689,51.0707413618272,1,v,0.5941451999999572,correct,v
102,4F4K,103,1,28.114484721684263,51.46849735082997,0.8971583442474412,54.10226058007615,1,n,1.9227711000000909,incorrect,c
103,4F4K,104,1,41.00624518792324,57.43602752117574,1.1729872693704446,59.229543626553934,1,c,1.503921999999875,correct,c
104,4F4K,105,1,48.65545051020797,66.07181149849698,1.3752210332319068,66.03651007499512,1,c,0.5754898999998659,correct,c
105,4F4K,106,2,65.30230383703393,51.52606295188168,1.9440551074716843,54.15288082595645,1,b,2.9569142000000284,incorrect,v
106,4F4K,107,2,60.46336925007304,43.70230347709769,1.7579585782500236,47.1539511212321,1,v,0.6876843999998528,correct,v
107,4F4K,108,2,54.89262581310626,43.73152232827604,1.565668491514711,47.180346271948885,1,v,0.5390630000001693,correct,v
108,4F4K,109,2,50.71908605446244,42.458650442028286,1.4355191552071207,46.03025665741295,1,v,0.5633548000000701,correct,v
109,4F4K,110,2,57.10348705496379,44.337863751536354,1.6393280807256976,47.72795680827752,1,v,0.49677789999987,correct,v
110,4F4K,111,1,58.19856966206128,40.62164274779416,1.677086486487434,44.37154240754328,2,n,1.7406858000001648,correct,n
111,4F4K,112,2,50.30788961506251,37.46200174118957,1.4232969480832205,41.53234502049048,1,v,0.5514527999998791,correct,v
112,4F4K,113,2,47.12504640543361,34.6361853055454,1.3321452476167122,39.0221715166698,1,v,0.5455895999998575,correct,v
113,4F4K,114,1,61.43398796591523,44.29247072566434,1.793800737632455,47.686971105428135,2,c,0.7575044000000162,incorrect,n
114,4F4K,115,1,42.30990474456449,64.32726359112533,1.2052205207170066,64.73452771523124,1,n,0.5997569000001022,incorrect,c
115,4F4K,116,2,42.3022320951754,45.92456352319216,1.2050282452205414,49.15891400626269,2,v,0.5927685999999994,incorrect,b
116,4F4K,117,1,47.17804698964015,65.54997634090641,1.3336142357777758,65.65139796058992,1,c,1.7346605000000181,correct,c
117,4F4K,118,1,36.26312176149965,47.28473490927212,1.062817326709354,50.3816664517412,1,c,0.8303161999999702,correct,c
118,4F4K,119,1,55.939030347304936,68.89657441790366,1.6001098041661352,68.05326941440966,1,n,0.9156815000001188,incorrect,c
119,4F4K,120,2,57.46551299356678,45.26068008175385,1.6517157048062583,48.56065736441778,1,b,2.1668809999998757,incorrect,v
120,4F4K,121,2,50.563596986961805,60.28213885979218,1.4308851805659053,61.567050807464646,2,b,2.3806995999998435,correct,b
121,4F4K,122,1,33.55063201371416,52.5141817052233,1.0045288232919354,55.01878653139206,1,n,1.4131215999998403,incorrect,c
122,4F4K,123,1,61.32018987057549,50.18067546443758,1.7895609689847225,52.96521942596066,2,c,0.6422158999998828,incorrect,n
123,4F4K,124,1,64.61765725283857,52.66136453094575,1.9165740200657724,55.14726008837185,2,n,0.4418974000000162,correct,n
124,4F4K,125,2,63.87799721890256,53.296214727406365,1.8873211253107915,55.69981748706656,1,b,1.4736705999998776,incorrect,v
125,4F4K,126,1,59.95262909414972,43.49554044777803,1.739386898852895,46.9671570806926,2,c,1.5344548000000486,incorrect,n
126,4F4K,127,2,52.479934874215246,57.31661874590332,1.489056035934938,59.129743777137634,2,v,2.2398141000001033,incorrect,b
127,4F4K,128,1,56.37536083053412,45.60365397018008,1.6146940432480947,48.8698256533918,2,n,0.6472847000000002,correct,n
128,4F4K,129,2,42.75822951492572,52.70471069876969,1.2165089087282763,55.18507027724142,2,b,1.4554488999999649,correct,b
129,4F4K,130,1,56.38966334803524,47.29810706737712,1.6151743448450775,50.393663799456185,2,n,3.016683499999999,correct,n
130,4F4K,131,1,38.80910659907802,30.61235653824023,1.1206013983606848,35.52451654588057,2,c,0.4844226999998682,incorrect,n
131,4F4K,132,1,47.16371387523149,36.71742255397351,1.3332168129701425,40.86762317200552,2,n,0.6291893000000073,correct,n
132,4F4K,133,2,43.11537906129392,63.222430319407465,1.2255772071026367,63.88918547749269,2,b,1.9652259000001777,correct,b
133,4F4K,134,1,43.966657803498194,61.86324641597485,1.2474653420006645,62.828357187893126,1,c,1.0185119000000213,correct,c
134,4F4K,135,1,45.5690929238236,67.62439833141322,1.289733319412705,67.15950999130884,1,c,0.562407599999915,correct,c
135,4F4K,136,2,63.55724250212563,76.11718367831409,1.8747747573172344,72.62969012466304,2,b,1.1326979999998912,correct,b
136,4F4K,137,1,43.21214145670427,53.1353530776555,1.228045694994503,55.56005723847725,1,n,0.982062199999973,incorrect,c
137,4F4K,138,2,42.79633517437603,25.82949460403077,1.2174732340412389,31.534952753245,1,v,1.6010423000000173,correct,v
138,4F4K,139,1,61.16872832860796,40.78557635952232,1.7839335163124763,44.51942475383896,2,c,2.7304871999999705,incorrect,n
139,4F4K,140,1,49.93655404775152,38.31246947481814,1.4123489902877104,42.2939636304712,2,n,0.6240374999999858,correct,n
140,4F4K,141,1,40.28966485965093,57.33599723754901,1.155638317933717,59.14594890333236,1,n,1.1216769000000113,incorrect,c
141,4F4K,142,1,50.08785425956717,40.44294037737716,1.4167995193691865,44.2103821321471,2,n,0.9569911999999476,correct,n
142,4F4K,143,2,62.942877291575584,47.47018497896092,1.8509761662670423,50.548003434465855,1,v,1.8560543000000962,correct,v
143,4F4K,144,2,36.33040876269888,48.57063830036484,1.0643054550291853,51.532775322557846,2,v,1.9652728999999454,incorrect,b
144,4F4K,145,2,52.90194565482135,43.06201996869887,1.5021807020718874,46.57545460049976,1,b,1.2127263999996103,incorrect,v
145,4F4K,146,1,64.88549848415289,51.4525883980863,1.9272783560080968,54.08826780249144,2,c,2.0577530999999,incorrect,n
146,4F4K,147,1,53.56958824993104,36.59947637524967,1.5231812741395374,40.76252298817461,2,n,0.5875942000002397,correct,n
147,4F4K,148,1,38.381306062401606,54.411081239657605,1.1106768918491865,56.6635243266113,1,n,1.8135190000002694,incorrect,c
148,4F4K,149,2,61.4777381212393,49.86086952098516,1.795433406381019,52.68158378534589,1,b,1.067345099999784,incorrect,v
149,4F4K,150,1,67.1037079237967,54.17102946363904,2.018258877740201,56.45676818407436,2,c,0.690760599999976,incorrect,n
150,4F4K,151,2,55.5186902501499,67.56013044934492,1.5861846285769188,67.11371739344939,2,b,0.47153000000025713,correct,b
151,4F4K,152,1,29.566095148792968,41.545228747113896,0.9246522891291516,45.20512612249282,1,c,1.7769133000001602,correct,c
152,4F4K,153,2,48.61730494500374,66.36365229456514,1.3741306201755108,66.25023080769623,2,b,0.9204633999997895,correct,b
153,4F4K,154,2,56.26611283569308,38.35635869172846,1.611030028416197,42.33332920877652,1,b,1.7589022000001933,incorrect,v
154,4F4K,155,1,43.34157728890028,57.03979492709236,1.2313554843521126,58.89787822587089,1,n,2.2710510000001705,incorrect,c
155,4F4K,156,2,68.66998012985141,53.9681746076152,2.0850751816030275,56.28172338619262,1,v,2.7920092000003933,correct,v
156,4F4K,157,1,31.845319172156493,48.55579315429689,0.9695314313949176,51.51951872458216,1,n,1.5950514000001021,incorrect,c
157,4F4K,158,1,32.56427035443292,52.36743620250386,0.9841349814523884,54.89056046616098,1,c,1.0852979000001142,correct,c
158,4F4K,159,1,35.583433925842705,56.507485492212425,1.0479014303336165,58.45009289623694,1,c,0.775762400000076,correct,c
159,4F4K,160,1,71.36325460556436,59.16874465735775,2.2051818589295986,60.66239243729285,2,c,1.406000700000277,incorrect,n
160,4F4K,161,1,47.04855477188432,60.26108716500583,1.33002802325284,61.55006853795913,1,c,2.7069252999999662,correct,c
161,4F4K,162,1,41.51189500115121,55.89393162042684,1.1853859394149495,57.93091833845598,1,c,0.5935856999999487,correct,c
162,4F4K,163,1,47.42236936326166,52.41946825084577,1.3404069582322378,54.93604122810545,1,c,0.5624729999999545,correct,c
163,4F4K,164,2,59.79407498003171,66.89683384337073,1.7336615140699707,66.63757234863978,2,b,1.273380399999951,correct,b
164,4F4K,165,2,62.08528772551681,68.76118061048902,1.818260152451573,67.95931347540687,2,b,0.7817835999999261,correct,b
165,4F4K,166,1,75.58710821518835,63.84568660861347,2.4076292456070774,64.3679820888793,2,c,1.2797694000000774,incorrect,n
166,4F4K,167,1,53.87267872469389,41.994230175497584,1.5328115760905066,45.61066874817796,2,c,0.5815553999996155,incorrect,n
167,4F4K,168,2,51.18570611364976,58.79113473878069,1.4495159248595948,60.35265036194136,2,v,1.0435623999997006,incorrect,b
168,4F4K,169,1,69.61843676648542,48.07311026429653,2.1266064946369854,51.08805388047155,2,n,1.6132972999998856,correct,n
169,4F4K,170,2,59.32162755249894,39.15862766781724,1.716712948554821,43.05384817496232,1,b,0.8910632000001897,incorrect,v
170,4F4K,171,2,67.66143418648697,56.18806603882538,2.041802078262397,58.18020676984109,1,v,0.8546433999999863,correct,v
171,4F4K,172,1,34.95241998184707,44.361031701951646,1.034241140658239,47.748874560014045,1,c,2.5734636000001956,correct,c
172,4F4K,173,1,46.62940935364456,31.67013660244041,1.3184860257783928,36.43333952289797,2,n,1.9606299999995827,correct,n
173,4F4K,174,2,42.33183641713843,57.60102020680956,1.2057702944951396,59.36722486758343,2,b,3.6538338999998814,correct,b
174,4F4K,175,1,57.81469825896291,73.01446533876596,1.6637526312336766,70.7713552082832,1,n,2.7194029000002047,incorrect,c
175,4F4K,176,2,49.774253527965335,66.56651162930854,1.4075904253914155,66.39808013803959,2,b,3.2239058000000114,correct,b
176,4F4K,177,2,47.834256982773375,56.90018730245354,1.3519367990910898,58.78068155541569,2,b,0.4783148000001347,correct,b
177,4F4K,178,1,51.20697820824244,35.84611404299483,1.450157246683393,40.09259111736112,2,c,1.8074327999997877,incorrect,n
178,4F4K,179,1,43.52166348414355,33.76152947739024,1.235975293254529,38.25315020223187,2,n,0.5997588000000178,correct,n
179,4F4K,180,2,68.9812928079924,54.75740459861335,2.09861683574098,56.961058008141,1,v,2.840686700000333,correct,v
180,4F4K,181,2,70.28086001824343,54.32870771634883,2.156102553576161,56.59262381810627,1,v,0.7822602999999617,correct,v
181,4F4K,182,2,40.36799387731871,58.67492740267882,1.1575221625053118,60.25703969596329,2,v,1.9834719999998924,incorrect,b
182,4F4K,183,1,49.22140855864424,32.73975541825738,1.3915013002525063,37.36049674944393,2,n,1.3340759999996408,correct,n
183,4F4K,184,2,26.196399026209804,34.66732218256375,0.8620789900009965,39.04962542188966,2,v,1.5273353000002317,incorrect,b
184,4F4K,185,2,59.212097283677984,46.77880058099745,1.7128073817786522,49.92738303740447,1,v,0.9578227000001789,correct,v
185,4F4K,186,2,32.38052812291764,45.824339715363024,0.9803819607780258,49.0686494507677,2,b,0.944586199999776,correct,b
186,4F4K,187,1,46.08406641385538,59.525739536316784,1.303618736208838,60.95388105482101,1,c,2.6888167000001886,correct,c
187,4F4K,188,1,64.27341432719449,52.50549627049527,1.9029035372849017,55.01120092012405,2,n,2.7496014000003015,correct,n
188,4F4K,189,1,43.82531334990475,59.62309429779308,1.2438042056950174,61.033141687035176,1,c,0.4874008000001595,correct,c
189,4F4K,190,1,65.31926796809715,44.57225552559586,1.9447410117462265,47.93955784177805,2,n,0.43721380000033605,correct,n
190,4F4K,191,2,55.902683987921705,36.54385047112333,1.5989008960072832,40.71297508509096,1,v,3.0296361000000616,correct,v
191,4F4K,192,2,40.82097811802705,57.724333348286414,1.1684770054895253,59.46996008423828,2,b,0.4252461000000949,correct,b
192,4F4K,193,2,52.133351192308346,68.34445063808015,1.478362980288884,67.66837240827243,2,v,1.4129204000000755,incorrect,b
193,4F4K,194,1,43.835343877226165,64.52340930449144,1.244063664130542,64.8829540383619,1,c,2.9368908999999803,correct,c
194,4F4K,195,1,53.6825241732331,36.854457736971206,1.526762572226514,40.989802920705394,2,n,0.4388582999999926,correct,n
195,4F4K,196,2,60.55698344763795,46.54296256445436,1.7613840457499923,49.71539307096329,1,b,2.1412396999999146,incorrect,v
196,4F4K,197,1,40.31985317603419,49.6433577266564,1.1563639957767984,52.4884059906579,1,c,0.7280207999997401,correct,c
197,4F4K,198,2,44.59146192802996,55.46413075417976,1.2637787019351654,57.56535971120951,2,b,1.5404108000002452,correct,b
198,4F4K,199,2,64.61204808508957,51.53831195739183,1.916350485127149,54.1636495837414,1,v,0.3994917999998506,correct,v
199,4F4K,200,1,40.22664031786317,52.78706397213558,1.1541247783170487,55.25687288117943,1,c,0.8120929000001524,correct,c
200,4F4K,201,1,42.1228537596316,28.69938240197118,1.200541780983876,33.90366129270774,2,c,3.5505113999997775,incorrect,n
201,4F4K,202,2,63.758189457362114,51.126816698988605,1.882625033302696,53.8014285488924,1,v,1.6318269000003056,correct,v
202,4F4K,203,2,39.671549748115766,29.36137953743588,1.1408795558374558,34.46106246004508,1,b,0.3144477000000734,incorrect,v
203,4F4K,204,2,33.273072846044215,20.304714614986512,0.9987477031730152,27.23352562674646,1,b,0.6118718000002445,incorrect,v
204,4F4K,205,2,48.58036309583024,37.46842175795605,1.3730754401402816,41.53808532303446,1,v,0.6483711000000767,correct,v
205,4F4K,206,1,61.98663277195243,56.56126486343085,1.8145338659944708,58.495445970655375,2,n,0.8434363000001213,correct,n
206,4F4K,207,1,41.10862527522633,59.66980627587067,1.1754871420147666,61.0711365460759,1,c,0.3827627999999095,correct,c
207,4F4K,208,2,37.58869769372982,54.9413086503131,1.092520939353168,57.11868411227057,2,b,2.0621510000000853,correct,b
208,4F4K,209,2,54.70289795515187,48.53533185490865,1.559503660082943,51.50124560817806,1,v,0.9457249999995838,correct,v
209,4F4K,210,1,64.69530657218607,50.07789705173671,1.919671158620494,52.87411727610147,2,n,1.546566200000143,correct,n
210,4F4K,211,1,50.56394796399187,64.22503277087456,1.4308956237222783,64.65696814537941,1,n,2.573692800000117,incorrect,c
211,4F4K,212,1,37.84605074946779,45.73728309154674,1.0983832441874894,48.99022785042017,1,c,0.574388099999851,correct,c
212,4F4K,213,1,66.76380479749908,55.836994681733,2.004043944159067,57.88257891264516,2,n,0.45402439999998023,correct,n
213,4F4K,214,1,45.90281023660381,60.69818739603453,1.2987144937865789,61.90167765615103,1,n,1.491878600000291,incorrect,c
214,4F4K,215,2,29.07152686788469,38.505062193925774,0.915191657338464,42.46674757362738,2,b,2.48859850000008,correct,b
215,4F4K,216,1,48.807263899518176,38.80640830043827,1.379569288022437,42.7373085295268,2,n,1.5526866000000155,correct,n
216,4F4K,217,2,68.36385616807407,52.76745576010139,2.0718444394499578,55.23978069153139,1,v,0.709005299999717,correct,v
217,4F4K,218,2,30.692472661817728,43.3425468634856,0.9465654569704552,46.82892768226877,2,b,0.4359036000000742,correct,b
218,4F4K,219,2,43.14712450263266,52.348087831502326,1.2263865118972068,54.87364398355001,2,b,0.5390499000000091,correct,b
219,4F4K,220,2,48.37279370860915,58.091431295379245,1.3671616285237853,59.7749474818741,2,b,0.5079375000000255,correct,b
220,4F4K,221,2,63.494761675925005,81.50907709321476,1.8723405336627597,75.43839821090663,2,v,0.4479790000000321,incorrect,b
221,4F4K,222,2,28.970851427203264,39.040455732064565,0.9132777196608518,42.94761226978309,2,b,0.37063239999997677,correct,b
222,4F4K,223,1,70.68443350718972,55.71850497541893,2.1742728641024587,57.7818953494647,2,n,0.8353697999996257,correct,n
223,4F4K,224,1,52.32477173388288,41.76791164606852,1.4842592992931107,45.40623766004073,2,n,1.9349489999999605,correct,n
224,4F4K,225,2,64.42482832253322,45.122275693046646,1.9089043958390848,48.4358412175445,1,v,1.467609799999991,correct,v
225,4F4K,226,1,32.986455741546514,50.2630583686421,0.9928128353482004,53.03820694744897,1,n,0.7818428000000495,incorrect,c
226,4F4K,227,2,45.69680340755231,55.046516049997024,1.2931629708439103,57.20874117781491,2,b,0.7824663999999757,correct,b
227,4F4K,228,2,49.916329121982606,64.71264917233903,1.4117551299041868,65.02567329569612,2,b,0.4419668999998976,correct,b
228,4F4K,229,2,38.1581017141095,59.37988360107011,1.1055337367092897,60.83494826472777,2,b,0.5814801999999872,correct,b
229,4F4K,230,2,48.04764824737587,70.46030508229995,1.3579491408100572,69.11774209949989,2,b,0.40699880000011035,correct,b
230,4F4K,231,2,59.41636744588637,46.64777998316845,1.7200983108570258,49.80962831039374,1,b,0.3994840000000295,incorrect,v
231,4F4K,232,2,65.66460643461511,52.72591089066497,1.9587566776524448,55.20355853802824,1,v,0.4175091000001885,correct,v
232,4F4K,233,2,44.65298547386696,53.216659738431474,1.2653965470485866,55.63071985917639,2,b,0.5320271000000503,correct,b
233,4F4K,234,2,47.623319007069135,58.57119563460591,1.3460197421653233,60.17157973311982,2,b,1.734852900000078,correct,b
234,4F4K,235,2,60.47193478351575,48.305411524836,1.7582717253877571,51.29580855953151,1,v,3.3747371000004023,correct,v
235,4F4K,236,1,38.292809645573485,49.10446814959847,1.1086348689926502,52.00892080455687,1,n,3.1441367999996146,incorrect,c
236,4F4K,237,1,35.3177768727688,52.65747818019296,1.0421285907328717,55.143869504467816,1,c,0.44931680000036067,correct,c
237,4F4K,238,1,32.93284138265817,44.0471361910448,0.9917065856998892,47.46542484156917,1,c,1.1520276999999624,correct,c
238,4F4K,239,1,63.950066335683466,56.04343852285314,1.890151651527589,58.05772107949155,2,n,0.8061176999999589,correct,n
239,4F4K,240,2,47.86916828686744,35.10979369559813,1.3529186076800086,39.44030602678463,1,b,3.9867543000000296,incorrect,v
240,4F4K,241,1,47.93294530109142,34.395999200527115,1.3547140463841758,38.81057014891532,2,n,2.723989999999958,correct,n
241,4F4K,242,1,53.40341461364454,36.69767215861208,1.5179270293964338,40.85001997514206,2,n,1.3158917999999176,correct,n
242,4F4K,243,2,42.31567975712918,60.56751186059401,1.20536526194199,61.79678113074229,2,v,1.7164468999999372,incorrect,b
243,4F4K,244,1,43.65562907119264,58.95663986163959,1.2394231944505385,60.4885871626862,1,c,1.0234086000000389,correct,c
244,4F4K,245,2,33.793083073343965,50.462648898604,1.0096060720320503,53.21489934576369,2,b,0.9335605999999643,correct,b
245,4F4K,246,1,55.3968862190705,36.4473874625408,1.582172154587257,40.62708231478977,2,n,2.6708073999998305,correct,n
246,4F4K,247,2,66.14508920040115,52.50722664620728,1.9784254123735143,55.01271221841301,1,v,0.7757074999999531,correct,v
247,4F4K,248,1,45.80586903602236,60.882545575433625,1.2960991358325762,62.04934325038518,1,c,0.9023230999996485,correct,c
248,4F4K,249,2,61.75131235280222,38.55350810719856,1.8056764047057028,42.510227405820736,1,b,3.799843100000089,incorrect,v
249,4F4K,250,2,54.60534521525295,36.80471992515511,1.556343332033647,40.945448429513085,1,v,0.422957199999928,correct,v
250,4F4K,251,1,38.64943694439849,50.15666346305832,1.1168869059014528,52.94393980029326,1,c,0.5694467999996959,correct,c
251,4F4K,252,1,45.91147992492058,31.26948638515974,1.298948648570822,36.08812478111493,2,c,0.878220500000225,incorrect,n
252,4F4K,253,2,73.36488645270732,59.291518987084046,2.2989045924747296,60.76278717900199,1,b,1.097411700000066,incorrect,v
253,4F4K,254,1,52.429496265164055,48.264029482773566,1.4874950710783044,51.25881300155485,2,n,2.8406214000001455,correct,n
254,4F4K,255,2,49.73837773944727,40.640767221481056,1.4065407319352246,44.38879237716055,1,b,3.992240699999911,incorrect,v
255,4F4K,256,1,50.63272236967133,39.316117935560506,1.432943445238031,43.195483196045416,2,c,1.2129103000002033,incorrect,n
256,4F4K,257,1,31.06062899276936,49.84821231230419,0.9538397885403842,52.670348420397445,1,c,0.8061004000001049,correct,c
257,4F4K,258,2,63.90609282745645,47.61321192482411,1.888424080404644,50.67621920235179,1,b,2.724854700000378,incorrect,v
258,4F4K,259,2,30.96864618840854,44.09041672024542,0.9520170955682528,47.504512451584375,2,v,0.7543978999997307,incorrect,b
259,4F4K,260,2,53.1921118107296,66.55554409008221,1.5112720136055602,66.39010164413918,2,v,0.9302792999997109,incorrect,b
260,4F4K,261,1,28.265933937739806,41.916485977173366,0.8999882168658547,45.54043961448195,1,c,1.585870800000066,correct,c
261,4F4K,262,2,51.40416156455306,64.44948978354219,1.456115551858438,64.82707747829741,2,b,1.030691299999944,correct,b
262,4F4K,263,1,46.44505683888099,31.171956567290398,1.3134412816379593,36.00426841337965,2,n,1.6739379999999073,correct,n
263,4F4K,264,2,52.7188091546142,65.45317191869171,1.4964709516746342,65.57954351180011,2,v,1.7944354000001113,incorrect,b
264,4F4K,265,1,56.64621571863278,46.03065198873031,1.6238140937304255,49.25443853504034,2,n,1.4069690000001174,correct,n
265,4F4K,266,2,47.43688308330296,58.88992128035736,1.340811559900055,60.433821417932165,2,b,1.3523019000003842,correct,b
266,4F4K,267,1,34.353726558423475,50.63871620049906,1.0214451932305164,53.37060445113345,1,c,0.5018408000000818,correct,c
267,4F4K,268,1,55.6301509204404,73.12416215548944,1.5898652868304433,70.83992627990655,1,n,0.6483102999995936,incorrect,c
268,4F4K,269,2,62.01305102258738,39.70446437042168,1.8155309577970309,43.54497248492685,1,b,1.1815357000000404,incorrect,v
269,4F4K,270,1,66.69786466535247,55.78713229400312,2.0012979092496828,57.840223738651495,2,n,0.24317500000006476,correct,n
270,4F4K,271,1,54.61514454420785,50.16031485336738,1.5566605024782882,52.94717586740545,2,c,0.5867795999997725,incorrect,n
271,4F4K,272,2,41.19652894775778,51.64423455572364,1.177637786395692,54.25673658822385,2,b,1.0002286999997523,correct,b
272,4F4K,273,2,29.757284796177043,43.23275908836983,0.9283357251469584,46.72972993687394,2,b,0.6847169999996368,correct,b
273,4F4K,274,2,35.154592439875,50.69877497297763,1.0385983029445376,53.42368186427341,2,b,0.6117407000001549,correct,b
274,4F4K,275,1,33.78564326900271,50.79598731714977,1.0094498916106742,53.50955516441056,1,n,2.6463916000002428,incorrect,c
275,4F4K,276,2,43.09049860291093,52.41342988873726,1.224943288601616,54.93076400259379,2,b,0.5768037999996523,correct,b
276,4F4K,277,1,44.63463747823192,57.42435891788684,1.2649138449998207,59.21979699231605,1,c,0.3994929999998931,correct,c
277,4F4K,278,1,39.62471106039029,48.41333767651299,1.1397688993646822,51.39226590229078,1,c,0.642117099999723,correct,c
278,4F4K,279,2,60.011059548136245,38.23048931573129,1.7415015855708254,42.220448437581325,1,v,3.216978200000085,correct,v
279,4F4K,280,2,45.875374991227005,32.16170570671847,1.2979737886176743,36.85846309080933,1,b,1.8514479000000392,incorrect,v
280,4F4K,281,1,43.8856545811939,54.21216347206365,1.2453658617913868,56.4922267490761,1,c,3.4534193999998024,correct,c
281,4F4K,282,2,44.2718673333147,23.5299732130648,1.2554077497902678,29.699698520954456,1,v,3.3260583999999653,correct,v
282,4F4K,283,2,54.10035787328415,73.91016991393398,1.540085809387307,71.3251977455681,2,v,1.4086707000001297,incorrect,b
283,4F4K,284,1,39.44657400117063,44.79391775183607,1.135554713598809,48.13961060167,1,n,0.47233589999996184,incorrect,c
284,4F4K,285,1,74.43188413271231,65.36021952086395,2.3504818233449924,65.51042764400968,2,c,0.1816168000000289,incorrect,n
285,4F4K,286,2,53.12978500511673,66.34073806928566,1.5093145990139147,66.2334936633008,2,v,1.8794004999999743,incorrect,b
286,4F4K,287,2,53.84345943329608,44.47740479156794,1.5318805255953825,47.85393671714918,1,b,0.8051924000001236,incorrect,v
287,4F4K,288,1,50.67014031560431,60.95679025847456,1.4340588299278216,62.108703514945375,1,c,0.7821318000001156,correct,c
288,4F4K,289,2,57.126764807236775,44.75493621768872,1.6401217850559255,48.104433610258894,1,b,1.3280104000000392,incorrect,v
289,4F4K,290,2,35.1841091589916,54.3301966031232,1.0392359725179676,56.59390577597488,2,b,1.352007599999979,correct,b
290,4F4K,291,1,46.80344113407288,58.5488822280586,1.3232661246427293,60.15318276714489,1,c,0.6180065000003196,correct,c
291,4F4K,292,1,66.64971199372232,56.77394213944548,1.999294999260797,58.674552639633085,2,c,0.8181924000000436,incorrect,n
292,4F4K,293,2,46.75982679511015,34.32731726505784,1.322066552748988,38.75011974710916,1,b,2.3793924000001425,incorrect,v
293,4F4K,294,1,49.81953172938537,70.11210498503218,1.408916343354751,68.88404845437823,1,n,1.2794607000000724,incorrect,c
294,4F4K,295,1,53.12459338462777,72.4455232439832,1.509151667165672,70.41242517089356,1,c,0.7755940000001829,correct,c
295,4F4K,296,2,51.895934454990666,42.390003638727904,1.4710823743652022,45.96823149373008,1,v,2.37934499999983,correct,v
296,4F4K,297,2,38.336113217367725,50.74316504857976,1.1096336137649898,53.46290017990804,2,b,0.5342717999997149,correct,b
297,4F4K,298,1,42.65762654368782,53.04040851157356,1.2139666565479703,55.47748677425652,1,n,1.668202199999996,incorrect,c
298,4F4K,299,2,37.39867070668828,22.459108426425825,1.0882123610224654,28.866193397471218,1,v,2.840598900000259,correct,v
299,4F4K,300,1,51.130504903298416,68.75129715900057,1.4478530136052083,67.95244391197208,1,c,1.1535401999999522,correct,c
300,4F4K,301,2,28.094157831788596,39.40334294009109,0.8967792082949306,43.27395167610171,2,v,1.5766744999996263,incorrect,b
301,4F4K,302,2,57.217169742450494,37.75940238329107,1.6432079791453214,41.79840763470058,1,v,1.5768570000000182,correct,v
302,4F4K,303,2,40.87580062636388,27.15434149883488,1.169809831195046,32.61835337392626,1,b,0.5017568000002939,incorrect,v
303,4F4K,304,1,76.12949048563829,58.525044806711776,2.4349374542563,60.13352384089781,2,n,0.6897337999998854,correct,n
304,4F4K,305,1,63.80028894143024,75.03359021145128,1.8842738691866727,72.00005513162046,1,n,0.5512116999998398,incorrect,c
305,4F4K,306,2,49.48540363650597,32.25959203576218,1.399161123772636,36.94331872288407,1,v,0.4177955000000111,correct,v
306,4F4K,307,2,47.65567967164457,57.84757062225766,1.3469258120765906,59.57248920567256,2,b,0.06611069999962638,correct,b
307,4F4K,308,1,55.33841947224415,74.00937003854713,1.5802497472938228,71.3856815619714,1,c,2.768271999999797,correct,c
308,4F4K,309,1,53.41291656142506,68.06577430366042,1.5182269823590675,67.47234965603452,1,c,0.4541186999999809,correct,c
309,4F4K,310,2,67.08077474369207,52.70910498121837,2.0172966357170896,55.18890267699245,1,v,3.2157508999998754,correct,v
310,4F4K,311,2,64.43724800667408,48.35114655522479,1.9093974532903808,51.33668862847614,1,v,0.4252476999999999,correct,v
311,4F4K,312,1,64.50345779121976,50.87747871883468,1.9120281103185703,53.581503847141065,2,n,2.015259700000115,correct,n
312,4F4K,313,2,37.69608275435614,49.43174144073448,1.0949632749199631,52.300264132158816,2,b,2.2701382000000194,correct,b
313,4F4K,314,2,49.97948302418321,59.96822494002789,1.4136103330839571,61.31332082663168,2,b,0.5569478000002164,correct,b
314,4F4K,315,1,60.6305801233125,45.61476325998059,1.7640817313668975,48.87983656063873,2,n,0.7757808000001205,correct,n
315,4F4K,316,1,56.72783805164889,43.55736587498858,1.6265725152993329,47.02301359362421,2,n,0.4479374000002281,correct,n
316,4F4K,317,1,65.35878154257975,49.71657673488079,1.9463395875720724,52.55345725805411,2,n,0.5511888000000909,correct,n
317,4F4K,318,2,52.7886496327069,68.6773036253269,1.4986458432442928,67.90096679960628,2,b,1.4980058000001009,correct,b
318,4F4K,319,2,58.79578572731461,51.636863277938446,1.6980436811393598,54.25026060776606,1,b,1.0731549000001905,incorrect,v
319,4F4K,320,2,44.8789719500093,54.18780967190566,1.2713569640001303,56.47123463684363,2,v,0.4540932999998404,incorrect,b
320,4F4K,321,1,56.80406904398742,64.08951070276791,1.6291529684658532,64.55394140871127,1,n,2.7736981999996715,incorrect,c
321,4F4K,322,2,69.8540243827593,56.03745155857244,2.137050101811415,58.05264689275394,1,b,0.08535899999969843,incorrect,v
322,4F4K,323,1,33.77661837652463,53.36484194454,1.0092604685859667,55.75938965615192,1,c,0.39339560000007623,correct,c
323,4F4K,324,1,52.75213321529006,63.16031752239324,1.4975082971218252,63.84120084392228,1,c,1.0174913999999262,correct,c
324,4F4K,325,2,66.83321490395328,58.9853914948437,2.0069385545860987,60.51217396387992,1,b,2.4582652999997663,incorrect,v
325,4F4K,326,2,49.09119570277425,37.63848511851358,1.3877386282718158,41.69019543698977,1,b,0.7454173000000992,incorrect,v
326,4F4K,327,2,41.79906788468425,24.55664345002689,1.1924857584019055,30.51168044104276,1,v,0.15813319999961095,correct,v
327,4F4K,328,2,35.73427495056017,58.32701424063998,1.0511934916539858,59.96999011634268,2,v,0.8112380000002304,incorrect,b
328,4F4K,329,2,62.20105870147973,52.58943683142945,1.8226426864541885,55.08449251099579,1,b,0.9274196999999731,incorrect,v
329,4F4K,330,2,41.57042596862338,30.683907398258597,1.1868295714490351,35.58572354057774,1,b,1.0427629000000707,incorrect,v
330,4F4K,331,1,38.294160684535015,50.11986753378163,1.1086660154906898,52.91132566561143,1,c,0.6482524000002741,correct,c
331,4F4K,332,2,55.063337383526445,65.00546790820523,1.5712362521036145,65.24556889804846,2,b,0.9881783999999243,correct,b
332,4F4K,333,2,60.84517658015771,54.91238923984898,1.771971373878518,57.09391420472242,1,v,1.4797308000001976,correct,v
333,4F4K,334,2,40.14495086215421,23.92743499316828,1.1521659486591758,30.01258497703264,1,b,1.0366746999998213,incorrect,v
334,4F4K,335,1,53.328564211640696,33.275066525751626,1.51556625868799,37.82735546033382,2,n,0.6193339000001288,correct,n
335,4F4K,336,1,68.6633885776676,53.69270123810799,2.084789405199824,56.04354680846632,2,n,0.6058221999996931,correct,n
336,4F4K,337,2,58.73052271611309,47.097450354640216,1.6957408185570249,50.21358339824428,1,v,2.4218198000003213,correct,v
337,4F4K,338,2,41.61713009112351,57.14353172640218,1.1879827623274624,58.98484885759088,2,b,0.5572653999997783,correct,b
338,4F4K,339,1,42.91911249412326,57.03925363718424,1.2205855150242233,58.89742416587119,1,c,1.4616750000000138,correct,c
339,4F4K,340,1,47.5134829685328,65.25618845285652,1.342948973208436,65.43293444982234,1,c,1.2794379000001754,correct,c
340,4F4K,341,1,54.79530124909477,40.0457684512798,1.562503084181047,43.85238371705334,2,n,2.0322943000001032,correct,n
341,4F4K,342,1,40.52280091647428,33.50880185083594,1.1612543714218235,38.03176297369919,2,c,0.6118435999997018,incorrect,n
342,4F4K,343,1,57.000734294608,40.68164154672533,1.6358290947708394,44.425662133536775,2,c,0.5511710000000676,incorrect,n
343,4F4K,344,1,50.04131383589367,67.37377742840275,1.415429031123338,66.980592593603,1,n,0.5693989000001238,incorrect,c
344,4F4K,345,1,37.2529784048529,50.93706889160867,1.084920516800079,53.63409415367157,1,c,0.3881485000001703,correct,c
345,4F4K,346,2,45.0128828513827,30.00308967822014,1.2749021168424612,35.004975493138815,1,b,1.6982354000001578,incorrect,v
346,4F4K,347,1,39.29430558655993,53.88429709700805,1.1319648559535238,56.20925888797868,1,c,0.10345700000016222,correct,c
347,4F4K,348,2,33.185949532657425,48.81609824433535,0.9969399316058144,51.75184884892002,2,b,0.9092548000003262,correct,b
348,4F4K,349,1,49.61654230820498,38.73512098374807,1.4029817760205994,42.67328153030755,2,c,1.085441400000036,incorrect,n
349,4F4K,350,2,37.44310180797142,48.0437082255246,1.089218245462937,51.06174544165608,2,b,0.3584095000001071,correct,b
350,4F4K,351,2,56.21413775039601,68.95206144393939,1.6092897814225815,68.09169319780493,2,v,1.595019500000035,incorrect,b
351,4F4K,352,1,46.33344664032645,29.75459256874978,1.3103964913489363,34.793940180524,2,n,0.2659470999997211,correct,n
352,4F4K,353,2,50.182479431024205,60.85569762070676,1.4195900650827105,62.02786246820167,2,b,0.9212430999996286,correct,b
353,4F4K,354,2,63.40970086710392,48.23795685482102,1.8690316840277448,51.23550096856081,1,b,0.5029298999997991,incorrect,v
354,4F4K,355,2,62.40503650277064,57.37946338464971,1.830390025035028,59.1822846224724,1,v,0.8303405999999995,correct,v
355,4F4K,356,2,36.44390205066337,48.27843143235158,1.0668202104666746,51.27168903445239,2,v,1.2008618999998362,incorrect,b
356,4F4K,357,2,47.23517991236152,58.88246323608384,1.3351995720142875,60.42769671113692,2,b,0.6178271000003406,correct,b
357,4F4K,358,2,49.30072615658848,26.90542470493924,1.3937982848851227,32.41343422146799,1,v,0.7817909999998847,correct,v
358,4F4K,359,1,57.102568314681086,41.56640223033519,1.6392967622076158,45.22424680926573,2,c,1.5464136999999027,incorrect,n
359,4F4K,360,2,62.86856306566398,78.40784491604822,1.8481180230826548,73.89001037671899,2,b,1.1823690999999599,correct,b
360,4F4K,361,2,57.33365183172671,70.99498451622672,1.647192943837959,69.47279841949964,2,b,5.0,correct,b
361,4F4K,362,2,54.16709427324366,65.19366910606945,1.5422245385435367,65.3862927878634,2,b,1.0306178999999247,correct,b
362,4F4K,363,2,40.83320433497523,55.6986120229478,1.168774113384242,57.76498050897905,2,v,0.6422362000002977,incorrect,b
363,4F4K,364,1,47.5677827380045,60.31277586575198,1.3444661962306503,61.59175686397128,1,c,0.6908026999999493,correct,c
364,4F4K,365,1,41.47429511358832,50.43181489116251,1.1844594866876086,53.18761547838759,1,c,0.5329662999997709,correct,c
365,4F4K,366,1,61.39978725684851,50.39443864358915,1.7925254692225734,53.15453637182022,2,n,0.5018817999998646,correct,n
366,4F4K,367,2,44.60932600803723,28.539953416670272,1.2642482489348257,33.77000387971316,1,v,3.465776800000185,correct,v
367,4F4K,368,2,58.91004904612596,50.51165943261881,1.702083096013739,53.258257297852815,1,b,0.7640310000001591,incorrect,v
368,4F4K,369,2,56.04230241006918,39.44576691073379,1.6035497036866098,43.31212292201879,1,b,0.6422892999999021,incorrect,v
369,4F4K,370,2,40.26222222378768,54.69200375167649,1.1549790369300648,56.90493995984188,2,v,0.660439100000076,incorrect,b
370,4F4K,371,2,43.404035307647,53.669960272908085,1.2329557807404157,56.02386100345677,2,b,0.42378550000012183,correct,b
371,4F4K,372,2,48.85837313301222,32.6472781560046,1.381036255219403,37.28003129637951,1,v,0.3812561999998252,correct,v
372,4F4K,373,2,47.087124822393264,69.10768638381506,1.331095189025547,68.19920797441016,2,b,0.26130289999991874,correct,b
373,4F4K,374,2,61.79165541239783,69.9479083843861,1.8071918408817167,68.7731787426325,2,v,0.5388428999999633,incorrect,b
374,4F4K,375,1,54.96400713447178,42.24546501711097,1.5679941903166117,45.837639957990326,2,c,0.47235159999991083,incorrect,n
375,4F4K,376,2,51.75620424701192,61.20894707410834,1.4668141895017373,62.309843321363786,2,b,0.067130399999769,correct,b
376,4F4K,377,2,44.7352316803883,53.5897653053113,1.267562558100698,55.9544112991028,2,v,0.6664494999999988,incorrect,b
377,4F4K,378,1,54.24808922116507,35.77590492251374,1.5448242074224554,40.03028451062718,2,n,2.09423119999974,correct,n
378,4F4K,379,1,52.05249331105792,61.47275377906643,1.475879360604836,62.51949924455219,1,n,0.575470100000075,incorrect,c
379,4F4K,380,1,56.677642312893575,69.86442106870817,1.624875599242678,68.71664232861094,1,c,0.8243412000001626,correct,c
380,4F4K,381,2,56.61113449395981,65.17278889717029,1.6226299637678467,65.37070360660051,2,b,0.7209714999999051,correct,b
381,4F4K,382,1,28.206584886974216,45.67540363207188,0.8988782005656067,48.9344774426178,1,c,1.521288999999797,correct,c
382,4F4K,383,1,53.109530422903134,43.105977689026936,1.508679036428895,46.61517413294131,2,n,0.5998125999999502,correct,n
383,4F4K,384,2,59.89712763993869,39.80653680645351,1.7373805951125276,43.63688478846143,1,v,0.9039592999997694,correct,v
384,4F4K,385,1,59.29204081931361,48.52801721898203,1.7156570849423505,51.494712842520194,2,n,1.929246300000159,correct,n
385,4F4K,386,1,44.78992987009999,60.2975359481476,1.2690051253946637,61.57946848647797,1,c,0.4116171000000577,correct,c
386,4F4K,387,2,29.03722705499153,38.45784624644098,0.9145391346011312,42.42437802865756,2,v,1.7103578999999627,incorrect,b
387,4F4K,388,1,46.364209219445456,56.43432017544497,1.3112350068495973,58.3883510273503,1,c,1.0003192999997736,correct,c
388,4F4K,389,2,52.44539522290529,67.66978722867745,1.4879869324300998,67.19181410595793,2,v,3.458845999999994,incorrect,b
389,4F4K,390,2,69.2373966059265,46.739789960588126,2.1098228926689035,49.892326774241546,1,b,0.9821804999996857,incorrect,v
390,4F4K,391,2,48.3592381588606,42.21343968984359,1.3667763076790338,45.808705937720376,1,b,0.006518400000004476,incorrect,v
391,4F4K,392,1,68.45529853710565,52.7385195523352,2.075787780117984,55.214552943583286,2,c,0.4980124000003343,incorrect,n
392,4F4K,393,2,48.9369657957145,37.10339958787437,1.3832951121667247,41.21194424667538,1,v,1.2187681000000339,correct,v
393,4F4K,394,2,50.57005087325115,38.86152759779062,1.4310772251010913,42.786823363867455,1,b,1.334087499999896,incorrect,v
394,4F4K,395,1,34.389810841026126,56.1064728163517,1.0222119238500058,58.11112681395371,1,n,0.7211505000000216,incorrect,c
395,4F4K,396,1,50.80631581473121,65.82395337140066,1.4381253947382355,65.85406249212869,1,c,0.9032218000002104,correct,c
396,4F4K,397,2,27.414424136944454,43.3470356387276,0.8841926973745883,46.83298339885937,2,b,0.5329922999999326,correct,b
397,4F4K,398,1,37.97085668276814,54.63874437539512,1.1012375435729025,56.85921610961916,1,c,0.6057745999996769,correct,c
398,4F4K,399,2,32.41692499256456,50.63899169218953,0.9811242453246254,53.370847960688096,2,b,0.6847103000000061,correct,b
399,4F4K,400,2,37.115084788207135,44.01871147309327,1.0818140529983982,47.4397530502938,2,b,0.42972980000013195,correct,b
