,condition,trial,sub_task,x,y,xt,yt,cat,resp,rt,acc,correct_resp
0,4F4K,1,2,47.129203853690974,36.36303333496167,1.3322604188244938,40.56546359795517,1,v,2.8588243000003786,correct,v
1,4F4K,2,1,57.65346981824239,40.43406798117739,1.6581839890957994,44.20736201047352,2,n,3.320075999999972,correct,n
2,4F4K,3,1,28.28480682882676,51.29806830237099,0.9003414872212668,53.93461615223264,1,n,2.372268300000542,incorrect,c
3,4F4K,4,2,46.77770004072956,58.21940596233283,1.3225580082104549,59.849523123908575,2,v,1.6012117000000217,incorrect,b
4,4F4K,5,1,32.61560418263118,48.522576272255804,0.9851860640695068,51.477903728387616,1,n,1.820033599999988,incorrect,c
5,4F4K,6,2,64.97910348746706,46.98655700118057,1.9310333821096388,50.10526013785474,1,b,1.4194877999998425,incorrect,v
6,4F4K,7,1,45.42531658103122,58.73163574659189,1.2858831041196876,60.27128854699807,1,c,1.6861810999998852,correct,c
7,4F4K,8,2,69.14410569518864,57.60477576274677,2.105733951457057,59.340098786491154,1,v,0.9106302000000142,correct,v
8,4F4K,9,2,62.94356723250209,54.09143825133794,1.85100272226126,56.36479481047782,1,v,1.3584788999996817,correct,v
9,4F4K,10,2,52.51337010055303,67.05481050706054,1.4900916859323945,66.70415119720047,2,v,4.964745700000094,incorrect,b
10,4F4K,11,2,44.48920330307607,32.09217529886788,1.2610942475142024,36.82040938631351,1,v,2.3612481000000116,correct,v
11,4F4K,12,1,63.85125819573759,43.46161925923722,1.8862720242618976,46.9351384507963,2,n,1.3342092000002594,correct,n
12,4F4K,13,1,39.787905454368335,49.076312165136784,1.1436433118757363,51.97073811220942,1,n,1.1824700999995912,incorrect,c
13,4F4K,14,1,45.94076782880703,51.46152427894139,1.2997399815100674,54.0781232359459,1,c,1.7421718000005058,correct,c
14,4F4K,15,1,70.67462335792469,57.97635032177123,2.1738293656789844,59.64850045495782,2,n,1.7711026999995738,correct,n
15,4F4K,16,2,23.14026770301925,42.03603515741119,0.8089979943589758,45.6500548142726,2,v,0.9653929999994944,incorrect,b
16,4F4K,17,1,36.28457769870419,52.928771597843976,1.0632916229888705,55.359336285355965,1,c,3.770272499999919,correct,c
17,4F4K,18,1,50.44434024695839,65.59342891938579,1.4273411615105802,65.6386863685177,1,n,2.603951600000073,incorrect,c
18,4F4K,19,1,57.9910371724034,46.63030613827687,1.6698645859007326,49.78591068599828,2,c,1.371974699999555,incorrect,n
19,4F4K,20,2,42.78652982531126,32.69131439482047,1.2172250208135966,37.3393132341743,1,v,1.182485500000439,correct,v
20,4F4K,21,2,51.48694759534835,44.28367754655003,1.4586243948698838,47.67593482250369,1,b,1.0381737999996403,incorrect,v
21,4F4K,22,2,39.257953305759614,55.72232023436993,1.131109499400108,57.75856471086725,2,v,1.1096105999995416,incorrect,b
22,4F4K,23,2,44.28357116871799,52.22335407586463,1.2557133211000049,54.74497606440156,2,b,1.4980326000004425,correct,b
23,4F4K,24,2,38.903201422182605,50.81334776914253,1.1227961660383232,53.5082083019809,2,v,1.5454725999998118,incorrect,b
24,4F4K,25,2,57.652809580632784,49.11902132288569,1.6581612236210403,52.00870004289526,1,b,1.1332423000003473,incorrect,v
25,4F4K,26,2,48.57859913157554,35.3985847288611,1.3730250758254523,39.71127686741971,1,b,1.487853699999505,incorrect,v
26,4F4K,27,1,38.27644297866529,53.74034993433227,1.1082576256426793,56.062158210646224,1,c,1.0003993999998784,correct,c
27,4F4K,28,2,39.476331264110414,21.635699445579085,1.1362575951380245,28.2771077424427,1,b,0.9350264999993669,incorrect,v
28,4F4K,29,1,35.661380889660954,45.22596663451973,1.049601310729387,48.52428272917615,1,c,1.2859810999998444,correct,c
29,4F4K,30,2,52.77677417113277,65.84790931154882,1.4982758084130354,65.8263735845039,2,b,0.6800640000001295,correct,b
30,4F4K,31,1,64.90582727143394,44.463745005402295,1.92809323745176,47.83813101290251,2,c,0.6194415999998455,incorrect,n
31,4F4K,32,1,49.07981260702186,62.34557316526664,1.3874101827209564,63.16819811466843,1,c,0.9761349000000337,correct,c
32,4F4K,33,1,41.66118087401082,53.118953718146926,1.1890714653042178,55.52442737273239,1,c,1.6639754000007088,correct,c
33,4F4K,34,1,62.20717755350175,50.90683157490366,1.822874610529148,53.59054205093939,2,n,0.8365272999999434,correct,n
34,4F4K,35,1,55.69591151203428,36.69179597200936,1.5920408401258572,40.8575630827971,2,n,1.3114691000000676,correct,n
35,4F4K,36,2,54.098793057715234,40.69446690403673,1.5400356966959563,44.44166590940387,1,v,0.7758443000002444,correct,v
36,4F4K,37,1,61.06870215663002,48.02730956286282,1.780226816257232,51.03614994014105,2,n,1.0357278000001315,correct,n
37,4F4K,38,2,55.29775163712222,37.357702955600764,1.578913952092981,41.45050863579207,1,v,1.0428875999996308,correct,v
38,4F4K,39,1,49.245924682941656,68.65245353732554,1.3922108663431094,67.83362569938404,1,c,1.0610879999994722,correct,c
39,4F4K,40,2,55.81026825201275,71.28547376864783,1.595831188784851,69.6095844421426,2,v,0.9653415000002497,incorrect,b
40,4F4K,41,1,41.18599743352373,62.40517482810471,1.1773799158653573,63.21473150078652,1,c,2.037930000000415,correct,c
41,4F4K,42,2,46.36788125249653,59.86857280914694,1.311335133667363,61.19796944928637,2,v,0.6896900000001551,incorrect,b
42,4F4K,43,1,49.58363632188077,32.064706742784935,1.4020220990313426,36.796677714692485,2,c,0.7954694000000018,incorrect,n
43,4F4K,44,1,54.5782542482698,36.674849300215776,1.5554668272111114,40.84249552649194,2,n,0.6544909000003827,correct,n
44,4F4K,45,2,66.41836555745572,54.19628132391873,1.9897000607723945,56.4549984514325,1,b,0.8250238999999056,incorrect,v
45,4F4K,46,2,30.502869233011022,41.894820191888726,0.942840787914718,45.52278582140613,2,v,0.7263819999998304,incorrect,b
46,4F4K,47,1,58.75897792565296,54.41567007128085,1.6967445013356364,56.64349469233847,2,n,1.0384494999998424,correct,n
47,4F4K,48,2,43.13469690905267,49.687744161541886,1.226069624470182,52.51348284855227,2,b,0.630149500000698,correct,b
48,4F4K,49,2,67.4435476400102,49.221897509694976,2.03257195951607,52.10011080435737,1,v,0.6546199999993405,correct,v
49,4F4K,50,2,52.869570378327,40.41534390505719,1.5011697368875367,44.19051829246039,1,b,0.9532228999996732,incorrect,v
50,4F4K,51,1,57.8541023731295,44.56232484204688,1.6651164447152962,47.92691290204297,2,c,0.9700765000006868,incorrect,n
51,4F4K,52,2,60.629635997986526,36.99664688483812,1.764047098311884,41.12880389253267,1,v,1.6746065999996063,correct,v
52,4F4K,53,2,38.14604489371921,48.461069368435865,1.1052565980788924,51.42309000065918,2,b,0.7772212999998374,correct,b
53,4F4K,54,1,57.11659145266246,52.196853422059206,1.6397748556936211,54.72183635713786,2,n,1.546585199999754,correct,n
54,4F4K,55,2,57.28050114611321,47.83576414362313,1.645373410225116,50.86507567377626,1,v,1.5661777000004804,correct,v
55,4F4K,56,2,60.9726466020081,50.02658695128086,1.7766745061087357,52.8135580280136,1,b,0.7576292999992802,incorrect,v
56,4F4K,57,2,78.3130636708558,66.08800471442127,2.548047037187068,66.00262949668596,1,v,5.0,incorrect,v
57,4F4K,58,2,55.29706848219434,69.09793099726187,1.5788915225048483,68.14172767950454,2,b,0.8064014000001407,correct,b
58,4F4K,59,1,41.44272693497447,27.898486040837447,1.183682213091753,33.26504560809206,2,n,1.2252434000001813,correct,n
59,4F4K,60,2,48.78723422015428,60.40864196840226,1.3789948095081264,61.63340120756765,2,v,1.4933559000000969,incorrect,b
60,4F4K,61,2,44.68676355058632,31.77478345188167,1.2662856679315224,36.54651697845305,1,v,1.8735331000007136,correct,v
61,4F4K,62,2,35.01218924712231,51.490549265821166,1.0355273639075433,54.10359046473965,2,b,0.9639964999996664,correct,b
62,4F4K,63,1,47.87051797891525,54.92053819053597,1.3529565793037943,57.07590980553348,1,c,2.062453800000185,correct,c
63,4F4K,64,1,28.95009415744241,46.84668492885268,0.9128836018308788,49.97991539275127,1,n,1.0260036999998192,incorrect,c
64,4F4K,65,1,31.472939838250586,38.22095521326381,0.9620529433384192,42.22150427517948,1,n,0.800171799999589,incorrect,c
65,4F4K,66,1,66.08220414217189,52.87368547833071,1.9758399992939824,55.31147387595946,2,c,0.8416471999998976,incorrect,n
66,4F4K,67,1,56.18456540677573,41.03624605120436,1.608300469625861,44.74933790688942,2,n,1.0551190999995015,correct,n
67,4F4K,68,1,76.7082826224352,62.504528625829536,2.46442056314257,63.29220580334989,2,n,0.8425127999998949,correct,n
68,4F4K,69,2,52.68839578935636,34.76225389548799,1.495524840522249,39.150115913657714,1,b,1.8453515999999581,incorrect,v
69,4F4K,70,1,54.05207805222902,64.54948642288323,1.5385404151094035,64.85954007063371,1,n,1.4434320000000298,incorrect,c
70,4F4K,71,2,42.8278998345568,59.97078107837152,1.218272607625118,61.28061560765735,2,v,1.4499347000000853,incorrect,b
71,4F4K,72,2,31.445748853026647,48.0757762203212,0.9615091325006578,51.07941744595595,2,b,0.9275680000000648,correct,b
72,4F4K,73,1,38.41068522661431,53.17608318334484,1.1113556367120505,55.5739733147753,1,c,0.6315911000001506,correct,c
73,4F4K,74,1,53.67867185674064,35.76164921505113,1.526640273260342,40.03233785245802,2,c,1.6328937999996924,incorrect,n
74,4F4K,75,1,31.21178239020806,42.039571662364914,0.9568425633780836,45.65324220905747,1,c,0.660566800000197,correct,c
75,4F4K,76,2,58.43304477302765,42.32380143784707,1.685283546528325,45.90943320909251,1,v,0.5574616000003516,correct,v
76,4F4K,77,2,46.00301400280138,29.40922187573685,1.301423418852112,34.52901006860615,1,v,1.2735202999992907,correct,v
77,4F4K,78,2,55.69706770825195,46.85865325462648,1.5920791171076163,49.99064268053344,1,v,0.5101721000000907,correct,v
78,4F4K,79,2,69.32177266809776,56.52360339128673,2.113527933689832,58.43553732083205,1,v,0.8062049000000115,correct,v
79,4F4K,80,2,67.32012041053466,46.23702864513094,2.027361855232181,49.433009412531,1,v,0.49802160000035656,correct,v
80,4F4K,81,2,51.00714396036536,66.54686605378161,1.4441437136060729,66.3372377384782,2,b,1.675210500000503,correct,b
81,4F4K,82,1,53.67020592991686,36.485608546304505,1.526371541056243,40.674317448386375,2,c,0.6848457999994935,incorrect,n
82,4F4K,83,2,21.59682933305632,33.597944117522665,0.7834455309859966,38.12894120817802,2,b,0.7940678999993906,correct,b
83,4F4K,84,1,29.7958262861088,41.25759331981074,0.9290800359506418,44.94867183002147,1,c,0.7226129999999102,correct,c
84,4F4K,85,1,59.71516977179069,71.101278566545,1.7308192760108725,69.48894319897072,1,n,0.7697691000003033,incorrect,c
85,4F4K,86,1,51.775069579571934,66.58295331853608,1.4673897241471523,66.36342696013145,1,n,0.7770853000001807,incorrect,c
86,4F4K,87,1,61.19668505157949,42.356987016512846,1.7849708963512811,45.93934720562549,2,c,0.6059510000004593,incorrect,n
87,4F4K,88,2,41.61181565580372,59.21182812758956,1.1878514849223265,60.6642997326036,2,v,1.5661604999995689,incorrect,b
88,4F4K,89,1,62.8547405942126,43.47702224512206,1.847586894459669,46.949022401397926,2,n,1.8144171999992977,correct,n
89,4F4K,90,2,43.493650460288,52.31751798720804,1.2352555294367875,54.82716330866563,2,v,0.6180826999998317,incorrect,b
90,4F4K,91,1,35.463944394906335,50.94022504372289,1.0453009260833706,53.61994160981329,1,n,3.078021600000284,incorrect,c
91,4F4K,92,2,42.278136964979815,53.465209229615496,1.2044246241045762,55.8243860465594,2,b,0.9579308000002129,correct,b
92,4F4K,93,1,40.20873385978863,22.826640706825103,1.1536951149594383,29.190623271993328,2,c,0.674926300000152,incorrect,n
93,4F4K,94,1,44.51023633198358,58.0358181437661,1.2616459323621407,59.69773653026366,1,n,0.8911551999999574,incorrect,c
94,4F4K,95,1,52.9598601229546,60.281544629105554,1.5039908643176323,61.53121241309415,1,n,2.280032499999834,incorrect,c
95,4F4K,96,2,48.41962514693469,69.4702448425076,1.368493663274602,68.39688526975101,2,b,0.6072572000002765,correct,b
96,4F4K,97,1,41.8118128620149,30.380997263491388,1.192801838051149,35.352478558428025,2,c,0.5998691999993753,incorrect,n
97,4F4K,98,1,45.64065679295462,53.25523904015673,1.2916540375235424,55.64258605613057,1,n,0.9336751999999251,incorrect,c
98,4F4K,99,1,57.48654086336413,44.360126755358856,1.6524380956736702,47.74480053027185,2,c,1.575886000000537,incorrect,n
99,4F4K,100,2,34.36167341078506,48.89641109718212,1.0216140011485442,51.810753362018566,2,b,0.5951605999998719,correct,b
100,4F4K,101,2,49.605970075118776,63.03503100137373,1.4026733736288106,63.70384791962445,2,v,1.2856519000006301,incorrect,b
101,4F4K,102,2,42.57284253345722,56.79187979363857,1.2118282777143814,58.6609650411764,2,b,0.5466312999997172,correct,b
102,4F4K,103,1,39.55286462461172,50.09478181003569,1.1380673507271226,52.87388701603906,1,n,0.5527032999998482,incorrect,c
103,4F4K,104,2,60.81534768302547,46.89209040093769,1.7708726060629036,50.02061063234367,1,b,1.4252017999997406,incorrect,v
104,4F4K,105,1,45.9843715346529,33.89590897458147,1.300919007831574,38.38954584621995,2,c,0.6618647999994209,incorrect,n
105,4F4K,106,2,49.54876383359975,69.25786923030182,1.4010057870244312,68.25160096121846,2,b,0.6922327000002042,correct,b
106,4F4K,107,1,62.080568845800464,54.4886982903911,1.818081741981856,56.70616110341917,2,n,1.7590004999992743,correct,n
107,4F4K,108,2,43.88142472191222,60.71633895311757,1.2452563274018025,61.88006196845,2,b,0.7044041999997717,correct,b
108,4F4K,109,1,58.72021672831144,78.78353045146912,1.6953774483813944,74.02290164656742,1,n,0.7091358999996373,incorrect,c
109,4F4K,110,2,73.42030132790066,52.12743269699797,2.3015551929419744,54.66119993438894,1,v,1.247941499999797,correct,v
110,4F4K,111,2,55.65497321986896,71.92453134031987,1.5906861318011836,70.02382587553915,2,v,0.6314287999994121,incorrect,b
111,4F4K,112,2,77.18325594799894,65.69951440850254,2.488881734137679,65.7170361736786,1,v,2.3928735999998025,correct,v
112,4F4K,113,1,78.35089256208715,64.33661498282068,2.550052195165053,64.69888088096705,2,n,0.7641600999995717,correct,n
113,4F4K,114,1,63.41337721330634,45.63462547836103,1.8691745722332689,48.89180660985984,2,n,1.2142411000004358,correct,n
114,4F4K,115,2,54.40288103261712,68.81731939308709,1.549804706990343,67.94800423693593,2,b,1.2008486000004268,correct,b
115,4F4K,116,1,30.20726230377368,39.06866921402059,0.9370629470875558,42.980809026345135,1,c,0.9168572999997195,correct,c
116,4F4K,117,1,31.209674012157585,48.46998131992586,0.9568006139380788,51.43103300997184,1,c,0.44807630000013887,correct,c
117,4F4K,118,2,62.27231968403511,42.61292580687343,1.8253455360185185,46.17006467966035,1,b,1.7955652999999074,incorrect,v
118,4F4K,119,1,48.73267728068368,41.54112912514709,1.3774312550191348,45.20408315958562,2,c,1.1474093999995603,incorrect,n
119,4F4K,120,2,35.036779812187575,46.47606571982004,1.0360570125288024,49.64754857036606,2,v,0.8303243000000293,incorrect,b
120,4F4K,121,2,44.336159241303,58.46020822393799,1.2570872427001407,60.04811851606576,2,b,1.0804782000004707,correct,b
121,4F4K,122,1,41.81840712867116,28.53595388473728,1.1929654109298484,33.795877435275,2,n,1.0491820000006555,correct,n
122,4F4K,123,1,51.99113547621776,36.81950583410702,1.473997486473113,40.97114865402892,2,n,0.9397138000003906,correct,n
123,4F4K,124,1,47.20784410506616,33.392708305512315,1.3344408173447475,37.94974560468704,2,c,0.674101000000519,incorrect,n
124,4F4K,125,1,57.11661509951647,37.55679735010194,1.6397756620080202,41.62810475406778,2,n,0.49105669999971724,correct,n
125,4F4K,126,1,40.56121502240463,50.79383026424266,1.162182350694196,53.49101301704757,1,n,0.8790267000003951,incorrect,c
126,4F4K,127,2,52.102120118579705,45.23907689090324,1.4774031958696745,48.53607756415544,1,b,0.6619504999998753,incorrect,v
127,4F4K,128,2,56.076350776695385,37.73952799252451,1.6046854443547809,41.79122422865645,1,v,1.0236707999993087,correct,v
128,4F4K,129,1,52.77820665705915,35.81442954831652,1.498320439279191,40.079063052748175,2,c,1.31749149999996,incorrect,n
129,4F4K,130,1,37.15410895126189,53.83860967528621,1.0826922847926763,56.14694544466896,1,c,1.8865899999991598,correct,c
130,4F4K,131,2,64.99259279830024,58.92371819546291,1.931575117454176,60.4287770862652,1,v,1.0067512999994506,correct,v
131,4F4K,132,1,68.5679108882775,58.01878189239556,2.080654364828844,59.68363490658459,2,n,0.5102265999994415,correct,n
132,4F4K,133,1,39.23126833046386,48.25900111089605,1.130482022587951,51.242914774574274,1,c,2.41444969999975,correct,c
133,4F4K,134,1,46.32564461367062,27.964166051223145,1.3101839117232967,33.31956401555119,2,n,0.963949799999682,correct,n
134,4F4K,135,2,26.098888234295902,40.14329797139906,0.8603327407636638,43.94585752388725,2,b,0.8254501999999775,correct,b
135,4F4K,136,1,67.79057513839507,55.67176215567156,2.04729252396016,57.7156706364978,2,n,0.7711620000000039,correct,n
136,4F4K,137,1,60.76447352776949,44.155356345764496,1.769000193496578,47.56033058468481,2,n,0.5937985000000481,correct,n
137,4F4K,138,2,51.28110178162184,65.72905381424049,1.4523941793155803,65.73882504433817,2,b,0.959288099999867,correct,b
138,4F4K,139,1,67.10192383926554,51.5464358013062,2.018184003753313,54.15261344731014,2,n,1.0855326999999306,correct,n
139,4F4K,140,2,23.65686204644819,37.84208802180608,0.8177353205832867,41.882826089398186,2,b,0.4980325000005905,correct,b
140,4F4K,141,2,45.20403069532669,30.146087045206286,1.2799796920661963,35.15270980178371,1,b,1.6136366000000635,incorrect,v
141,4F4K,142,1,43.29842022453512,58.31168429787446,1.2302509297201951,59.925694020542856,1,c,0.4261169000001246,correct,c
142,4F4K,143,1,56.21533568589207,51.07748499405527,1.6093298699231222,53.74072368064992,2,n,0.7031010999999125,correct,n
143,4F4K,144,2,48.32804341252305,39.19573801987483,1.3658899994828595,43.09478787968761,1,v,0.5102109999997992,correct,v
144,4F4K,145,1,58.29250736044317,39.84519806255373,1.6803656745959503,43.67791609153077,2,n,0.8552805999997872,correct,n
145,4F4K,146,2,38.49819548555343,56.66517540683098,1.1133798391767886,58.5545761669939,2,b,0.8729772999995475,correct,b
146,4F4K,147,1,70.25367834820177,52.92527352370143,2.1548842106831128,55.35629751323773,2,n,0.7042011000003185,correct,n
147,4F4K,148,2,38.89531902644692,44.37888530300101,1.122612143812435,47.761697430680485,2,v,1.9592829000002894,incorrect,b
148,4F4K,149,2,40.6129800786769,28.87950054685471,1.1634340253122086,34.08349195636087,1,v,0.6983235999996396,correct,v
149,4F4K,150,2,41.18490635119661,30.11278722237342,1.1773532032793452,35.124427434652546,1,v,0.7955148000000918,correct,v
150,4F4K,151,2,44.1234684597133,61.14071421449624,1.2515396986246723,62.218527201841866,2,b,0.5512885000007373,correct,b
151,4F4K,152,2,48.39162186266045,59.53843118063459,1.3676970050678012,60.93025971957424,2,v,0.47288449999996374,incorrect,b
152,4F4K,153,2,46.38667331987936,56.804722236514834,1.311847664304877,58.671740462178846,2,v,0.5331851000000825,incorrect,b
153,4F4K,154,1,61.01115116925923,46.22797701096029,1.7780976234481585,49.42488291774503,2,c,0.38277340000058757,incorrect,n
154,4F4K,155,2,46.38708459905827,58.70558797147417,1.3118588836808802,60.24990353198025,2,b,1.8986107999999149,correct,b
155,4F4K,156,1,53.33353041261592,46.8447654153643,1.5157227781546574,49.97819488579343,2,n,0.49804039999980887,correct,n
156,4F4K,157,1,72.79659198261841,65.25292580431868,2.2718975196500875,65.386166657974,2,n,1.1702927999995154,correct,n
157,4F4K,158,2,33.58496400808389,39.86651532961643,1.0052462262856416,43.69707113210111,2,v,1.492238100000577,incorrect,b
158,4F4K,159,2,65.0458991799911,53.39891703825397,1.933717407388002,55.76701992854221,1,b,2.0274030999999013,incorrect,v
159,4F4K,160,2,63.36180385111578,81.29605083549217,1.8671710730532265,75.27064003295008,2,v,0.7651308000004065,incorrect,b
160,4F4K,161,1,50.31721283374918,61.865800122058346,1.423572910668142,62.7920761077815,1,n,0.9530431000002864,incorrect,c
161,4F4K,162,2,38.08778075256957,59.07711212879445,1.1039183145933709,60.55427786179841,2,b,0.7567886000006183,correct,b
162,4F4K,163,1,39.45586735934162,47.72450106890504,1.1357741806962365,50.76564893128047,1,c,0.7044463000001997,correct,c
163,4F4K,164,1,50.000362726349856,32.46978452621209,1.414224229377073,37.14716996329294,2,n,0.7711525000004258,correct,n
164,4F4K,165,2,47.91911926669858,64.24314903966257,1.354324616250971,64.62815244346965,2,b,0.7505510999999387,correct,b
165,4F4K,166,2,45.29768778601047,33.770162310301224,1.2824749384250222,38.27950240802301,1,b,1.256683200000225,incorrect,v
166,4F4K,167,2,57.8601275422621,44.88716782773693,1.6653250800076935,48.21938965147756,1,v,1.0856144999997923,correct,v
167,4F4K,168,1,32.74874573386931,48.56133360425049,0.9879174302078644,51.51243635908951,1,c,0.8925100999995266,correct,c
168,4F4K,169,2,62.31574340111182,46.90308178564592,1.826994514136568,50.0304609917244,1,b,0.7505780000001323,incorrect,v
169,4F4K,170,1,53.73024426537337,30.239441420110712,1.5282783480985684,35.23204576620877,2,c,0.7347848000008526,incorrect,n
170,4F4K,171,1,52.08850497884252,40.42368168368614,1.4769849743498793,44.19801868430145,2,n,2.134322200000497,correct,n
171,4F4K,172,2,36.03659362699342,55.568545196983,1.0578226772286905,57.62803550124099,2,v,0.844031200000245,incorrect,b
172,4F4K,173,1,32.03135427500638,50.94884958966854,0.97328931920735,53.62753370220559,1,c,0.709134499999891,correct,c
173,4F4K,174,1,43.852601695014656,52.54762695678219,1.2445101966883425,55.02777666412279,1,c,0.7044799999994211,correct,c
174,4F4K,175,1,62.545236067504106,54.081938126565504,1.8357340716699837,56.35661728992656,2,n,0.6194077999998626,correct,n
175,4F4K,176,1,52.06183522221129,74.14374895077789,1.476166092160765,71.40896452407453,1,n,0.6497509000000719,incorrect,c
176,4F4K,177,2,69.21677553804132,48.79941157732498,2.1089183881144846,51.7244395528894,1,b,1.164255200000298,incorrect,v
177,4F4K,178,2,42.131446690911154,56.08868713212296,1.2007563189379966,58.06876463512646,2,b,1.2185892000006788,correct,b
178,4F4K,179,1,63.51758295796819,47.755527483908885,1.8732292734964195,50.79337868305423,2,n,0.5587609999993219,correct,n
179,4F4K,180,1,26.369338548758886,47.37306050073685,0.8651847591105221,50.45134229424048,1,c,0.7151708999999755,correct,c
180,4F4K,181,1,68.58755386893101,61.46846621589495,2.081504411451991,62.47853322020227,2,n,0.6085520999995424,correct,n
181,4F4K,182,2,28.498216950606768,38.564628540377136,0.9043458460836716,42.52909677768984,2,v,0.9639654000002338,incorrect,b
182,4F4K,183,1,62.47738950051196,47.63829875343292,1.8331459896236613,50.68858999442284,2,n,0.6350632000003316,correct,n
183,4F4K,184,2,48.08643050865128,62.40828059829365,1.3590447066425269,63.21715512723909,2,v,0.8001041000006808,incorrect,b
184,4F4K,185,2,51.6651024520599,38.35402311816588,1.4640380745096122,42.34056116770516,1,b,0.6305900000006659,incorrect,v
185,4F4K,186,1,49.83491979255852,35.74849192533997,1.4093672486849318,40.02069199804262,2,n,0.46024649999981193,correct,n
186,4F4K,187,1,28.156567538109428,37.08408302440159,0.897943779972208,41.20666609404072,1,c,0.4970567000000301,correct,c
187,4F4K,188,1,54.94833763858381,44.50240804395413,1.5674833614431114,47.87295254061349,2,n,0.6486164999996618,correct,n
188,4F4K,189,2,53.21461101209587,71.48820711118094,1.5119792393416196,69.74172600374426,2,v,0.687312799999745,incorrect,b
189,4F4K,190,1,48.445254573112194,62.1766627841468,1.369223194899048,63.03609166043479,1,n,0.5587359000001015,incorrect,c
190,4F4K,191,1,39.53905977434683,59.39157569573323,1.1377406996858968,60.810808682972365,1,c,0.6119814000003316,correct,c
191,4F4K,192,2,38.39143677692801,48.11912848766179,1.1109108942294712,51.11811245575876,2,b,0.9322706000002654,correct,b
192,4F4K,193,1,48.304386544690885,60.08567737915538,1.3652182414512903,61.37338806109808,1,n,0.3949518999997963,incorrect,c
193,4F4K,194,2,58.22029353200377,49.95862338210935,1.6778442565894691,52.75341219090258,1,v,0.6119844000004377,correct,v
194,4F4K,195,2,34.585589197537544,42.76019418679701,1.026381929698453,46.30282602213693,2,b,0.5589026000006925,correct,b
195,4F4K,196,1,50.51834051995476,32.70974536690164,1.4295392340222284,37.35531381110902,2,n,0.5575500999993892,correct,n
196,4F4K,197,2,54.08474853262397,48.18788381309242,1.5395859984994926,51.179468332565136,1,b,0.496894699999757,incorrect,v
197,4F4K,198,1,56.45080538890202,37.24410717066596,1.6172292045107188,41.349242013298,2,c,0.715146000000459,incorrect,n
198,4F4K,199,1,62.47270988051597,49.69815983707767,1.8329676149356813,52.52271453851076,2,n,0.44819730000017444,correct,n
199,4F4K,200,1,55.090341015084455,70.36598162479419,1.572118787879225,69.00187434282496,1,n,0.44712340000023687,incorrect,c
200,4F4K,201,2,35.62307413043182,49.207768989764176,1.0487655662213522,52.087559460573445,2,b,1.1350718000003326,correct,b
201,4F4K,202,2,32.7085439004297,47.90423851086906,0.9870919024002872,50.92624579609169,2,b,0.9157278000002407,correct,b
202,4F4K,203,2,61.95905577765003,41.31921902323973,1.8134936244203188,45.00417814527103,1,v,0.510214700000688,correct,v
203,4F4K,204,2,40.80087520810385,59.97151059703906,1.1679886511601028,61.28120509986175,2,b,0.5526974999993399,correct,b
204,4F4K,205,1,63.464366542151865,44.830220486683686,1.8711574965371585,48.16812580150524,2,n,0.7225877000000764,correct,n
205,4F4K,206,2,55.89396974416194,43.95831319611919,1.5986111892549573,47.38278828491861,1,v,1.1351807999999437,correct,v
206,4F4K,207,1,66.71981186977557,56.94988349485928,2.0022114686095303,58.79343601690816,2,n,0.46772210000017367,correct,n
207,4F4K,208,1,63.80118677887581,52.81881663726328,1.8843090489172944,55.26378084180598,2,c,2.2627339999999094,incorrect,n
208,4F4K,209,2,47.573554274436496,33.36075820566407,1.3446275630005695,37.921872251940975,1,b,1.5843793000003643,incorrect,v
209,4F4K,210,2,46.33783906660674,27.23840642768772,1.3105161857270298,32.7194278191137,1,v,0.5816297000001214,correct,v
210,4F4K,211,2,59.20411810690438,43.98491200681597,1.7125232123857983,47.40675641679991,1,v,0.42522139999982755,correct,v
211,4F4K,212,1,34.242821591648664,59.07990176603026,1.0190922465206187,60.55655802132623,1,n,0.6981589999995776,incorrect,c
212,4F4K,213,1,45.58388707523808,55.90209381314368,1.2901301485005257,57.91091671753415,1,c,0.5408065999999963,correct,c
213,4F4K,214,1,38.71273633047208,63.40650333048124,1.1183580027653517,63.99002121759783,1,c,0.8232812999995076,correct,c
214,4F4K,215,1,42.01240953123189,55.79611408090265,1.1977877526114251,57.82113470348902,1,c,0.5515257999995811,correct,c
215,4F4K,216,1,65.24162851111878,74.49448791106991,1.9416038244479212,71.62011692388162,1,n,0.5041192000007868,incorrect,c
216,4F4K,217,2,55.970834331098246,41.472787280988186,1.6011683791892493,45.14251341097005,1,v,0.4980398999996396,correct,v
217,4F4K,218,2,62.80015710114515,47.41630424646995,1.845491014196653,50.4900369384002,1,v,0.5760910999997577,correct,v
218,4F4K,219,1,52.014477742651394,39.068207107048025,1.4747131219888276,42.98039459497308,2,n,0.5465985000000728,correct,n
219,4F4K,220,1,50.41534875885334,68.27946174109331,1.4264809324485797,67.57333504977079,1,n,0.6301724999993894,incorrect,c
220,4F4K,221,2,25.189447919422168,37.95847601197971,0.8442156256366298,41.98681990011508,2,b,0.5159176999995907,correct,b
221,4F4K,222,2,44.81975297840161,25.26077170348836,1.2697923482044593,31.111015013433278,1,b,0.6558582999996361,incorrect,v
222,4F4K,223,2,32.97355477057185,43.55824196163732,0.9925465310079196,47.02223062619192,2,v,0.6895838999998887,incorrect,b
223,4F4K,224,2,59.596842418203,42.88241870594552,1.7265657470032556,46.41301164169983,1,v,0.6073065999999017,correct,v
224,4F4K,225,2,47.44511256803408,70.73201835808504,1.3410410290281691,69.24543056767656,2,v,1.0853237999999692,incorrect,b
225,4F4K,226,2,46.695815570113886,62.79671046312061,1.3203079523600922,63.51934998160356,2,v,0.6133489000003465,incorrect,b
226,4F4K,227,1,32.11231554111935,48.71794010315256,0.9749292729275638,51.65191514363615,1,n,0.4495581000001039,incorrect,c
227,4F4K,228,2,56.3309526027544,39.5775625651937,1.6132036533675742,43.43750492751256,1,b,2.4268474000000424,incorrect,v
228,4F4K,229,2,48.11940118821554,67.85824574567643,1.359976795344067,67.27687961848576,2,v,1.8550371999999697,incorrect,b
229,4F4K,230,1,50.02775512461292,61.57105241218446,1.4150300135662282,62.559661408225935,1,n,0.6314231000005748,incorrect,c
230,4F4K,231,2,66.13124953718426,53.01507677149716,1.97785612778276,55.43428433358373,1,v,0.9274357000003874,correct,v
231,4F4K,232,2,57.62500214828746,45.33268379409432,1.6572026867945733,48.62028455702203,1,v,0.4251776000000973,correct,v
232,4F4K,233,2,65.07947274515404,48.24945820814739,1.9350678893641464,51.23440221356957,1,v,0.5161511000005703,correct,v
233,4F4K,234,1,48.96402573647079,63.62798308282792,1.384073705342909,64.15981942216948,1,n,0.6544564000005266,incorrect,c
234,4F4K,235,1,70.0037121301602,61.55358306811136,2.143712395225687,62.54585473279486,2,c,0.6692481000000043,incorrect,n
235,4F4K,236,2,52.9726060504843,64.35137197109131,1.5043895410717385,64.71003750178002,2,v,0.7995006000001013,incorrect,b
236,4F4K,237,2,48.23185878478445,29.04556544757699,1.3631608088936784,34.222896378197404,1,b,0.783382999999958,incorrect,v
237,4F4K,238,2,24.0843773583462,34.99204279781296,0.8250373402888159,39.35252424657279,2,b,1.6801151999998183,correct,b
238,4F4K,239,1,48.72321337572538,38.25819097611675,1.3771602082180017,42.25481409372475,2,c,0.5209844000000885,incorrect,n
239,4F4K,240,1,44.02910173687284,60.34507102084336,1.2490862092568484,61.58231090616351,1,n,0.5879580000000715,incorrect,c
240,4F4K,241,2,70.10834083096978,60.0205382697966,2.14838153203028,61.320809176400985,1,v,3.6718593000005058,correct,v
241,4F4K,242,1,42.43382576902367,29.39736694979248,1.2083302165220522,34.519013031004754,2,c,0.4919956000003367,incorrect,n
242,4F4K,243,1,51.56759522476469,61.40689417264283,1.461072589865089,62.42978193245244,1,c,0.7818991000003734,correct,c
243,4F4K,244,2,43.20868018211162,59.52406802622111,1.2279573093632308,60.918586752374495,2,v,0.5962219000002733,incorrect,b
244,4F4K,245,2,41.9153834367482,29.97648159966607,1.195373531232423,35.008753705598,1,b,0.6533562999993592,incorrect,v
245,4F4K,246,2,51.52747714260688,70.04488177608609,1.4598542245300772,68.78645682426881,2,b,1.470135699999446,correct,b
246,4F4K,247,2,39.07296628404907,45.22585141142681,1.126766821746463,48.52417906584844,2,b,0.636248899999373,correct,b
247,4F4K,248,2,47.3238168391492,29.75809897030934,1.3376628185866113,34.82374461309702,1,b,0.5600638999994771,incorrect,v
248,4F4K,249,2,49.27242539739151,68.57987139571429,1.392978279049237,67.78313950425029,2,v,0.6293636000000333,incorrect,b
249,4F4K,250,1,31.09319807185492,45.70354003727235,0.9544860000687364,48.95375579305361,1,n,0.5830720000003566,incorrect,c
250,4F4K,251,1,51.88099009174482,34.77870177557587,1.4706252928648595,39.1645948631132,2,n,0.552676899999824,correct,n
251,4F4K,252,1,45.8053403361745,65.81150595107674,1.2960848865914745,65.79957973781487,1,n,0.8970612000002802,incorrect,c
252,4F4K,253,2,56.87237343668592,46.328400880147775,1.6314685798486104,49.51503260432141,1,v,1.3099142000000938,correct,v
253,4F4K,254,2,41.00971398498375,48.67799924730117,1.1730718818788417,51.61635129033034,2,v,0.6984019000001354,incorrect,b
254,4F4K,255,2,53.45346476222306,69.1391441338577,1.5195076549536517,68.1700777531122,2,b,1.8198273999996673,correct,b
255,4F4K,256,2,41.615277531209614,54.28025666584298,1.187936998667272,56.52719068178651,2,v,1.3948970000001282,incorrect,b
256,4F4K,257,2,63.1923654584329,47.12059029667888,1.8606039102420489,50.22532327352632,1,v,0.7832963000000746,correct,v
257,4F4K,258,1,31.03230367577419,43.203541315966746,0.953278134310428,46.70249999265519,1,n,0.6111895000003642,incorrect,c
258,4F4K,259,1,54.56380409102206,41.649522929195456,1.5549995067515463,45.30174418929272,2,n,0.4859295000005659,correct,n
259,4F4K,260,1,48.00303050641215,59.41680207010946,1.3566898201028392,60.83134354383106,1,n,0.73944019999999,incorrect,c
260,4F4K,261,1,41.3793636460871,60.97433179934168,1.182123617418161,62.086068203927496,1,c,1.3598988000003374,correct,c
261,4F4K,262,2,36.98241252684682,54.93922862047825,1.078833611999684,57.09188081162334,2,b,1.6553362999993624,correct,b
262,4F4K,263,1,44.74701934685108,24.080525158939597,1.267873298117273,30.171259819475114,2,c,1.5223421000000599,incorrect,n
263,4F4K,264,1,48.67257529929896,62.80479497838053,1.3757108366162862,63.52562012712568,1,c,0.7408314000003884,correct,c
264,4F4K,265,1,55.476791462157,49.16327729292577,1.584803249941655,52.04802904391703,2,c,0.6558592000001227,incorrect,n
265,4F4K,266,2,38.15149794841855,26.766345267638208,1.105381933639902,32.331840421458224,1,b,0.5147103999997853,incorrect,v
266,4F4K,267,2,27.20023292177683,45.60203524122651,0.8802632770835256,48.86250734999622,2,b,1.3341757999996844,correct,b
267,4F4K,268,1,65.13730016421962,56.93953719215327,1.9373961836616616,58.784768423933855,2,c,1.2081388000005973,incorrect,n
268,4F4K,269,1,66.97222237314693,76.37745512729042,2.01274816166673,72.71633014506469,1,n,0.5083189999995739,incorrect,c
269,4F4K,270,2,24.56957127160588,38.88225613628359,0.8334035428478066,42.813671599547376,2,b,1.7004578000005495,correct,b
270,4F4K,271,1,45.71806104959337,59.60268008336544,1.2937347272734685,60.982448556639696,1,n,0.9462270999993052,incorrect,c
271,4F4K,272,2,52.63095894851153,60.41681308823907,1.49373970347062,61.63996491996185,2,v,0.8257559999992736,incorrect,b
272,4F4K,273,2,55.36670666110001,36.31912447377837,1.5811795482124855,40.526485314209005,1,b,1.230985000000146,incorrect,v
273,4F4K,274,2,69.43445281199989,54.71385726617452,2.11848598482655,56.89912217115404,1,v,0.5837414999996327,correct,v
274,4F4K,275,2,36.9656171882488,49.17790690935716,1.0784568959598388,52.061028203576925,2,b,1.6133697000004759,correct,b
275,4F4K,276,1,46.67240259296919,56.67502402943779,1.3196653047745748,58.56285073549832,1,c,0.5215778000001592,correct,c
276,4F4K,277,1,45.31024733746125,58.08228740180684,1.2828099242618334,59.73618696995258,1,c,0.7035049000005529,correct,c
277,4F4K,278,2,33.36700025518235,49.51950734074012,1.0007003290747052,52.36430413584289,2,b,1.390212999999676,correct,b
278,4F4K,279,2,41.1950381037719,21.273434465919223,1.1776012787426977,28.00282964191139,1,v,0.9751353000001473,correct,v
279,4F4K,280,1,58.24033792781171,77.84730451685763,1.678543747127151,73.5272866289235,1,n,0.8136664000003293,incorrect,c
280,4F4K,281,2,43.20727216905264,48.660995749718126,1.2279213567626992,51.60120932666852,2,v,1.0415093999999954,incorrect,b
281,4F4K,282,2,60.56927226925306,45.98696736984349,1.7618342053381526,49.20844154343647,1,b,0.49787000000014814,incorrect,v
282,4F4K,283,1,52.07637539612435,38.61755215056876,1.4766124849793565,42.57649409854146,2,c,0.46635260000039125,incorrect,n
283,4F4K,284,2,37.717221051141365,46.02422806775527,1.095444681156886,49.241911885741736,2,b,1.2516761999995651,correct,b
284,4F4K,285,1,53.73499013224182,37.4344446859161,1.528429177551948,41.51894729351206,2,c,0.5391778999992312,incorrect,n
285,4F4K,286,2,45.050422501593495,66.97410892155531,1.2758977131999845,66.64610374899164,2,b,0.9456688000000213,correct,b
286,4F4K,287,1,66.77981794964816,54.93790553782773,2.004711370119129,57.09075032365013,2,n,0.46773940000002767,correct,n
287,4F4K,288,1,50.04768960327067,60.71999880811187,1.4156167016478198,61.88298954066912,1,n,0.8318182000002707,incorrect,c
288,4F4K,289,1,61.30224847019327,52.26017857244593,1.7888934424377332,54.77712326196234,2,n,0.6862478000002739,correct,n
289,4F4K,290,2,66.87020789158878,55.88044907295993,2.008482981104034,57.89258766134807,1,v,0.7637124000002586,correct,v
290,4F4K,291,2,50.804947371903,35.78450969666058,1.4380844720693466,40.05257414002119,1,v,0.7593237999999474,correct,v
291,4F4K,292,1,56.20058166165104,41.99674570570941,1.6088362011451816,45.61464432284091,2,n,0.5640471999995498,correct,n
292,4F4K,293,1,48.69046777592476,71.28691938032978,1.3762227837639671,69.61052907506802,1,n,0.7333836999996493,incorrect,c
293,4F4K,294,1,70.18543471102397,60.09907129801751,2.151828412236297,61.38419369399048,2,n,0.7261635000004389,correct,n
294,4F4K,295,1,59.68451211098889,42.14336832521926,1.7297162162853368,45.74679531097028,2,n,0.7459681999998793,correct,n
295,4F4K,296,2,43.841555180977736,57.73565129144316,1.2442243583063992,59.44887188341405,2,b,0.6352548999993815,correct,b
296,4F4K,297,2,56.713203772986105,40.04180518294657,1.6260776062587352,43.85461417105899,1,v,0.7165267000000313,correct,v
297,4F4K,298,2,40.03031605004404,25.21675568584289,1.1494227279533018,31.0756880262008,1,b,0.5223549000002095,incorrect,v
298,4F4K,299,2,45.19871802757987,67.2842531083693,1.279838295630411,66.86867115628834,2,b,0.6787542000001849,correct,b
299,4F4K,300,1,40.598600922127886,51.87927291090003,1.1630862033811826,54.44420790635441,1,c,0.5587116000006063,correct,c
300,4F4K,301,1,29.238322775077982,36.99005761680033,0.9183714407134028,41.12293729729497,1,c,0.6488854999997784,correct,c
301,4F4K,302,2,50.62012129896282,64.13279872999544,1.432568017535068,64.5445006810644,2,b,0.9168312000001606,correct,b
302,4F4K,303,1,46.10659117605805,54.08598710536021,1.3042294802489602,56.36010265054768,1,n,0.665980299999319,incorrect,c
303,4F4K,304,2,60.75093904897096,42.73833457991344,1.7685023933507904,46.28311961314545,1,v,0.6680397000000085,correct,v
304,4F4K,305,1,43.92749761953039,51.44351963732981,1.2464499280779875,54.062323175823,1,c,0.6550796999999875,correct,c
305,4F4K,306,2,52.4917236703833,37.11025552306167,1.4894211095519017,41.22997838617093,1,v,0.8318527000001268,correct,v
306,4F4K,307,2,53.57191331277101,36.003855361931855,1.5232549191793967,40.24686119556466,1,v,0.4298923999995168,correct,v
307,4F4K,308,1,49.05342383411897,68.04670325320126,1.3866490653440535,67.40984490749919,1,n,0.7029894000006607,incorrect,c
308,4F4K,309,2,39.76643667680735,27.19464028664885,1.1431328683626742,32.683400462038314,1,b,0.5939743999997518,incorrect,v
309,4F4K,310,1,51.57478905380261,39.34395085825426,1.4612911702092526,43.22778111197839,2,n,0.8425811999995858,correct,n
310,4F4K,311,1,65.2770468043561,54.17342583625987,1.9430343476400835,56.43534109003867,2,n,0.7468348000002152,correct,n
311,4F4K,312,1,37.430691396299096,49.67259873308907,1.088937190166499,52.5000581971607,1,c,0.5155291999999463,correct,c
312,4F4K,313,2,38.08809389238002,48.771867640660304,1.1039255028463444,51.699923290976606,2,v,0.8668674999998984,incorrect,b
313,4F4K,314,1,64.24438770128509,50.922048190875465,1.9017553070369544,53.603939456599136,2,n,0.46171919999960664,correct,n
314,4F4K,315,1,53.99777087225228,69.79768364407714,1.536803943536138,68.61950585918532,1,n,0.6423407000002044,incorrect,c
315,4F4K,316,1,37.067574486741634,47.45048541007978,1.0807458037205424,50.52061843717963,1,c,0.4738084999999046,correct,c
316,4F4K,317,1,54.70918565795691,45.14708468509964,1.5597075771201048,48.45330987812524,2,n,0.6851685999999972,correct,n
317,4F4K,318,1,63.54593229160712,43.81694604610092,1.8743338823584843,47.25539442314049,2,n,0.6301892000001317,correct,n
318,4F4K,319,2,45.74492436422672,63.557583443331815,1.294457618337067,64.10591456310551,2,b,0.757650200000171,correct,b
319,4F4K,320,1,32.23174727061792,48.77092108273152,0.9773535315410232,51.69908072845547,1,c,0.5573767999994743,correct,c
320,4F4K,321,2,52.97993101557,38.87510764881148,1.5046187046822947,42.80726404772419,1,b,2.730479699999705,incorrect,v
321,4F4K,322,1,53.96761217434037,35.44678562070253,1.5358404659936824,39.75386539111036,2,n,0.8732123999998294,correct,n
322,4F4K,323,2,46.49114421272812,37.67326050532249,1.3147006345813668,41.73205572658482,1,v,0.6363290999997844,correct,v
323,4F4K,324,1,65.37786893924869,54.7485363876368,1.9471122649935588,56.928808209862574,2,n,0.47984510000060254,correct,n
324,4F4K,325,1,50.903880998389255,41.896592761409245,1.4410460410175767,45.52438326353955,2,n,0.5694872999993095,correct,n
325,4F4K,326,2,41.52842406000008,56.88958595594179,1.1857934409522397,58.74290846409202,2,v,0.8127223999999842,incorrect,b
326,4F4K,327,1,45.63718599326671,57.338964531681455,1.2915608180171003,59.11868851141245,1,n,0.5816226000006282,incorrect,c
327,4F4K,328,1,50.58241065787973,39.80138181014263,1.43144507996287,43.63854695900268,2,c,0.7174854000004416,incorrect,n
328,4F4K,329,1,65.03899429445299,42.39642653082237,1.9334397782606876,45.97489906183182,2,n,0.48455939999985276,correct,n
329,4F4K,330,1,55.95977599752675,64.01824894635693,1.6008002303170714,64.45749847302633,1,c,1.1642915000002176,correct,c
330,4F4K,331,1,47.70250575418898,33.9064868884204,1.348237980781896,38.39880697173408,2,n,0.6315578999992795,correct,n
331,4F4K,332,1,73.2392249368981,63.43433928463598,2.2929052636960576,64.01139577671,2,n,0.7453134999996109,correct,n
332,4F4K,333,2,59.18928190814332,46.65277504207158,1.7119949632014149,49.80606170983148,1,b,0.7088337000004685,incorrect,v
333,4F4K,334,2,56.4983354827711,38.35904330820736,1.6188284001636717,42.34505379473668,1,v,0.563806599999225,correct,v
334,4F4K,335,2,63.851673277207,49.10929671358712,1.8862883054561976,52.000056996694894,1,v,0.5512822999999116,correct,v
335,4F4K,336,2,57.14049105173167,50.01216386204718,1.64058999057096,52.800795785937616,1,v,0.4616374999995969,correct,v
336,4F4K,337,1,38.34442686275278,49.904645653871846,1.109825460916931,52.70562829578712,1,c,0.5926166999997804,correct,c
337,4F4K,338,1,37.68712622022691,49.167047785419626,1.0947593614984077,52.0513794023654,1,c,0.6072967999998582,correct,c
338,4F4K,339,2,48.74190461720922,33.47070358050354,1.3776955778488966,38.01781495926619,1,b,0.8183478999999352,incorrect,v
339,4F4K,340,2,36.72366748133109,52.26066083048051,1.0730445873239698,54.777544211162734,2,b,0.6438131999993857,correct,b
340,4F4K,341,2,55.50978982030141,66.09273079054373,1.5858910859034143,66.00609088940138,2,v,0.6605520999992223,incorrect,b
341,4F4K,342,1,31.42532345207708,39.7233364210782,0.961100833334322,43.56843226053712,1,n,0.9107400000002599,incorrect,c
342,4F4K,343,1,75.31916308841811,64.37269417919818,2.394251810356831,64.7261525473429,2,n,0.6484114000004411,correct,n
343,4F4K,344,2,48.35379256247919,62.852776495545456,1.366621545435246,63.56281687824583,2,b,0.5708801999999196,correct,b
344,4F4K,345,1,54.90723751163239,48.659003951065,1.5661442792147842,51.59943551780686,2,n,0.667297499999222,correct,n
345,4F4K,346,2,44.717301742195865,62.18679378370079,1.2670900448942006,63.044024826180994,2,b,0.5769466000001557,correct,b
346,4F4K,347,2,52.00579499353123,34.78939210701647,1.4744468826003243,39.17400624106863,1,v,0.6848023000002286,correct,v
347,4F4K,348,1,59.31939319805348,52.271277950198666,1.716633188328457,54.786811233643576,2,n,0.5527192999998078,correct,n
348,4F4K,349,1,63.168223247995535,44.10982426083643,1.859670078422914,47.519307428177584,2,c,0.8789694999995845,incorrect,n
349,4F4K,350,2,68.37877241543359,57.52132045753133,2.07248717273613,59.27065414869873,1,b,0.5830393999995067,incorrect,v
350,4F4K,351,2,46.19750869462316,56.81717749730164,1.3066975583604687,58.68218962666405,2,v,0.6476064999997106,incorrect,b
351,4F4K,352,2,72.36353909658776,61.834915652892505,2.251530736977999,62.76777068573247,1,b,0.7697905999993964,incorrect,v
352,4F4K,353,2,39.45790513581415,57.680733968549895,1.135822309431875,59.40324857953618,2,b,0.8014873000001899,correct,b
353,4F4K,354,2,44.46410576202842,59.67709134617865,1.260436268394611,61.04283813586788,2,b,0.7697735000001558,correct,b
354,4F4K,355,2,50.98974924633592,55.49561360860434,1.4436214426433351,57.56606177434884,2,v,0.5405608999999458,incorrect,b
355,4F4K,356,1,50.91281565105942,59.072284114204855,1.4413137991012803,60.55033141126848,1,n,1.492144100000587,incorrect,c
356,4F4K,357,1,73.02752125870671,59.48756731272169,2.282833497304798,60.88891286303608,2,n,0.5951740000000427,correct,n
357,4F4K,358,2,38.40579144515849,56.12452443100252,1.1112425472219785,58.099047673513645,2,b,0.5040729000002102,correct,b
358,4F4K,359,1,45.50480400786844,61.31302760918071,1.2880102908487705,62.35537679693418,1,n,1.139996799999608,incorrect,c
359,4F4K,360,1,39.17517508041722,60.67108957466706,1.1291641673158672,61.84385403680848,1,c,0.49186269999972865,correct,c
360,4F4K,361,1,56.167029136662535,52.34092237240219,1.6077140993471866,54.84758254627813,2,c,1.3391336999993655,incorrect,n
361,4F4K,362,2,35.44594394954801,53.63968884866891,1.044909734030278,55.97522907563575,2,b,0.8449423000001843,correct,b
362,4F4K,363,2,44.49351698073665,34.181118625955,1.2612073732528972,38.63947493573919,1,v,0.7150967999996283,correct,v
363,4F4K,364,2,37.63185064999027,50.30726354813652,1.0935017426294296,53.06171973335217,2,b,0.8137078999998266,correct,b
364,4F4K,365,2,50.01232328426598,64.58581430642053,1.4145760088032362,64.88689806278812,2,v,0.5094190999998318,incorrect,b
365,4F4K,366,2,55.915155165526,41.82740633891585,1.5993155941019377,45.46203385834383,1,v,0.9700724000003902,correct,v
366,4F4K,367,1,40.05387388391355,48.46231405926334,1.1499859351939108,51.42419938119728,1,n,0.5332953000006455,incorrect,c
367,4F4K,368,1,55.46645890494954,36.8293529496767,1.584462776506835,40.97990937915183,2,n,0.6254454999998416,correct,n
368,4F4K,369,2,41.30351868282483,47.72576174251536,1.180260698615753,50.76677571343293,2,b,0.4421090000005279,correct,b
369,4F4K,370,1,64.37102740842212,54.25952140273616,1.9067699868769308,56.509369690834106,2,n,0.698347499999727,correct,n
370,4F4K,371,2,28.244198504966363,38.71481464311355,0.8995815360468551,42.66362048931865,2,b,0.7504200999992463,correct,b
371,4F4K,372,2,42.34169033586868,58.13712474351453,1.2060173899562083,59.78153482745576,2,v,0.6316022000000885,incorrect,b
372,4F4K,373,1,55.77730587022765,70.06704728406959,1.5947377274818924,68.8013796756109,1,n,0.7408258000004935,incorrect,c
373,4F4K,374,1,50.23345700542412,35.61968730925091,1.4210956977925946,39.90672600648014,2,n,0.8547513000003164,correct,n
374,4F4K,375,2,51.20904571984746,43.0267915139049,1.450219594192117,46.54316357308282,1,v,0.7019777999994403,correct,v
375,4F4K,376,1,36.476846494688985,52.21205698539965,1.0675512971958987,54.73511224488997,1,n,0.8379095999998754,incorrect,c
376,4F4K,377,2,78.09650897544941,63.246949468919325,2.536598650595311,63.867315902280886,1,b,0.8062046000004557,incorrect,v
377,4F4K,378,1,68.91201437286513,55.755583737352,2.095595735386804,57.78677445380682,2,c,0.38276760000007926,incorrect,n
378,4F4K,379,2,40.27421382719081,60.56370392687272,1.1552670765457949,61.75783478050813,2,b,0.6423021999999037,correct,b
379,4F4K,380,2,50.267675941480746,27.508580940769832,1.4221072564369126,32.942244514474915,1,v,0.6306411999994452,correct,v
380,4F4K,381,1,64.32740336275246,48.90326684454898,1.9050410704718632,51.81685247600245,2,n,0.6861822999999276,correct,n
381,4F4K,382,2,27.176189021685104,41.23908503027824,0.8798232740706807,44.9320021661993,2,b,1.7164278999998714,correct,b
382,4F4K,383,1,56.74965348201344,40.470888960226944,1.6273105596164548,44.240486866424426,2,n,0.7091676999998526,correct,n
383,4F4K,384,2,64.70134705153666,52.33150708026116,1.919912300274591,54.83936854313029,1,b,0.7771006000002671,incorrect,v
384,4F4K,385,2,30.364870367965597,47.19525475537969,0.940139084855503,50.29218403619726,2,b,0.5021314000005077,correct,b
385,4F4K,386,2,27.28183308981564,40.86963121306492,0.8817582002314915,44.599331137348805,2,b,0.7347309999995559,correct,b
386,4F4K,387,2,58.46686659298921,43.652995347500216,1.686469231730204,47.107633729171305,1,v,0.5283873999997013,correct,v
387,4F4K,388,2,25.097509659201084,38.82529362601674,0.8426031940143264,42.76261689964935,2,b,0.5269845000002533,correct,b
388,4F4K,389,1,44.12897787701535,55.55363759867212,1.2516830896241682,57.61537123984394,1,n,0.46159350000016275,incorrect,c
389,4F4K,390,2,54.38768132941478,38.35975520714224,1.549314939259627,42.345690887420766,1,v,0.6304853999999978,correct,v
390,4F4K,391,1,35.151394253058896,42.76132356632324,1.038529233858076,46.303844157283486,1,n,0.5283665999995719,incorrect,c
391,4F4K,392,2,37.21481215422628,52.3367337404652,1.0840598167873472,54.843928405030354,2,b,0.8607957000003807,correct,b
392,4F4K,393,2,46.43884177976206,57.68051615591007,1.313271545397558,59.40306757250436,2,v,0.5333289999998669,incorrect,b
393,4F4K,394,2,53.94427355473982,46.002122770588,1.5350952835624831,49.22205559961502,1,v,0.5283785000001444,correct,v
394,4F4K,395,1,54.08545242315306,67.8965821323205,1.539608533572466,67.30397043815982,1,c,0.49685430000045017,correct,c
395,4F4K,396,1,66.19275799842472,52.13484175255456,1.9803874885412407,54.667672843595845,2,c,0.6848260999995546,incorrect,n
396,4F4K,397,1,61.54731458529012,49.552507597388114,1.7980329228780267,52.39357579928389,2,n,0.9350862000001143,correct,n
397,4F4K,398,2,53.99698702944465,65.0376394036084,1.5367788945230108,65.22569698864862,2,v,0.7139791999998124,incorrect,b
398,4F4K,399,2,46.67928650922892,31.32092684114097,1.3198542244442804,36.15610954102435,1,b,0.837917899999411,incorrect,v
399,4F4K,400,2,78.69675978077086,61.56800154165198,2.568458553354552,62.55725044596628,1,v,0.6596474999996644,correct,v
