,condition,trial,sub_task,x,y,xt,yt,cat,resp,rt,acc,correct_resp
0,4F4K,1,1,55.0835668150447,70.46309737394766,1.571897346130472,68.99112741400155,1,n,1.285695399999895,incorrect,c
1,4F4K,2,2,42.457270254703154,55.211465062942246,1.2089194384871107,57.27354057425437,2,b,1.0140289000009943,correct,b
2,4F4K,3,2,38.40532717204583,47.58996298585649,1.111231819018208,50.60888327463247,2,b,0.6897046999984013,correct,b
3,4F4K,4,1,50.80130152651046,62.56722326280265,1.4379754503823503,63.277606095641474,1,c,1.1342874999991182,correct,c
4,4F4K,5,1,68.69667676496415,50.296096524123385,2.0862330135094065,53.0102594962218,2,c,0.9775427000004129,incorrect,n
5,4F4K,6,1,32.96617889603099,54.785029553669474,0.9923943088733482,56.9101505575552,1,c,0.8426084000002447,correct,c
6,4F4K,7,1,43.61977368390047,64.2527808647451,1.2384994350738758,64.56927340289278,1,c,2.1282043999999587,correct,c
7,4F4K,8,1,40.301644981674535,51.23354682040433,1.155926245991413,53.83458212374947,1,c,0.727307799999835,correct,c
8,4F4K,9,2,41.1698511917115,52.47534557240263,1.176984674959659,54.91914253781427,2,b,1.0429559999993216,correct,b
9,4F4K,10,1,62.36788262496934,48.40106649832159,1.8289764243438824,51.33157890463944,2,n,0.6120220000011614,correct,n
10,4F4K,11,2,43.87220173914252,50.545881075160814,1.2450175269055568,53.23033482741593,2,b,0.9654093999997713,correct,b
11,4F4K,12,2,66.49584521854824,77.13206052905784,1.992908338407707,73.053459227106,2,v,0.8917025999999169,incorrect,b
12,4F4K,13,2,45.899772394365634,63.83902806519816,1.2986324563838758,64.25553233512696,2,b,0.8426533999991079,correct,b
13,4F4K,14,2,62.784070173205656,57.73751400563573,1.8448737669953807,59.395247904083504,1,b,0.510235299998385,incorrect,v
14,4F4K,15,2,49.71395708180113,37.82795690910121,1.405826653169466,41.85233487121023,1,v,1.6862201999992976,correct,v
15,4F4K,16,2,58.46262391681567,47.00112413785838,1.6863204512809933,50.0829419303981,1,v,0.9022156999999424,correct,v
16,4F4K,17,2,51.56982445575805,65.36758300022547,1.4611403202662063,65.40342697806821,2,v,0.5816300999995292,incorrect,b
17,4F4K,18,2,56.81220810221552,49.01983521093862,1.6294287209841931,51.88133395668777,1,v,1.0624229000004561,correct,v
18,4F4K,19,2,62.633801157963816,51.294853232312434,1.839117983412976,53.88833087172706,1,b,0.9215076000000408,incorrect,v
19,4F4K,20,1,56.230389397087286,44.41288331121112,1.609833722337238,47.761886573471486,2,n,1.115740299999743,correct,n
20,4F4K,21,2,49.236056896744905,63.71880554515044,1.3919252211570614,64.16395782671984,2,v,0.8875206000011531,incorrect,b
21,4F4K,22,1,57.079130692717655,67.07873651367731,1.6384980101042692,66.6507437525412,1,n,0.7759101999999984,incorrect,c
22,4F4K,23,1,60.02171235087313,38.74237894466662,1.7418874036531773,42.66871301592956,2,n,1.0186262000006536,correct,n
23,4F4K,24,2,43.98948842178467,60.30385817394546,1.2480577159779458,61.48954141747016,2,b,3.3637653999994654,correct,b
24,4F4K,25,1,61.57755435693154,78.81229824632078,1.7991639145732192,73.95177690750802,1,n,1.7243598999993992,incorrect,c
25,4F4K,26,2,24.573997730463905,35.9670240469287,0.833480257527789,40.19986836653433,2,b,1.0071752999992896,correct,b
26,4F4K,27,2,63.09517791555319,47.28151415619348,1.8568475046720911,50.3335061001109,1,v,1.139978400000473,correct,v
27,4F4K,28,2,57.94740618435174,44.35336418778307,1.6683502367459735,47.70838884755375,1,v,0.5830170000008366,correct,v
28,4F4K,29,1,54.26244792780225,41.75144800872254,1.5452855313089453,45.36824135306696,2,n,0.9754671000009694,correct,n
29,4F4K,30,2,47.37524060178204,69.15628618575558,1.3390939827206658,68.108163690797,2,v,2.1609184999997524,incorrect,b
30,4F4K,31,1,61.37121055252991,54.11940235749701,1.7914606027295483,56.34018727232867,2,n,4.406457400000363,correct,n
31,4F4K,32,2,35.84079738818555,50.33700863219615,1.0535245415021643,53.0463263137366,2,b,2.494715899998482,correct,b
32,4F4K,33,2,45.70077420395231,65.53781834246024,1.2932697522230168,65.52933884792718,2,b,0.6679461999992782,correct,b
33,4F4K,34,2,60.71515536512203,48.60867847160094,1.767186938803991,51.51619585899599,1,v,1.6255316000006133,correct,v
34,4F4K,35,1,51.25109316383304,63.83229067342792,1.4514881511218842,64.25040528581191,1,n,3.757872700000007,incorrect,c
35,4F4K,36,1,51.560347886177965,69.83595651087258,1.460852416725158,68.57073540857776,1,n,0.8609555000002729,incorrect,c
36,4F4K,37,2,70.59187868856841,57.16170401398188,2.1700922321463576,58.91652425885392,1,v,1.0017642000002525,correct,v
37,4F4K,38,2,44.02537803371949,55.73171281103977,1.2489894934703871,57.71493323725774,2,b,0.6546801000004052,correct,b
38,4F4K,39,1,51.99515579812082,38.7763406937377,1.474120718173314,42.69907944212635,2,c,1.7837515000010171,incorrect,n
39,4F4K,40,2,54.22489402821117,37.42173113078999,1.5440792712912734,41.49050931163914,1,b,1.3659193999992567,incorrect,v
40,4F4K,41,1,46.08731284344975,57.47407998661597,1.3037067433588858,59.17660984807723,1,n,4.606439400000454,incorrect,c
41,4F4K,42,2,54.62075499636523,42.31116796863636,1.5568421225400957,45.871630800220274,1,b,3.854868999998871,incorrect,v
42,4F4K,43,2,45.26179985323712,59.425653523774464,1.2815182246976813,60.78043087189609,2,v,0.6316158999998152,incorrect,b
43,4F4K,44,1,36.80436423452287,22.14672640661766,1.0748467126019603,28.677046600684037,2,c,1.3206945000001724,incorrect,n
44,4F4K,45,1,69.1632126283692,57.30792769826737,2.1065707626475927,59.03838154069717,2,c,1.006471099999544,incorrect,n
45,4F4K,46,1,36.712097861356696,59.60309220243053,1.0727864615703466,60.92436072753277,1,n,0.928869899998972,incorrect,c
46,4F4K,47,1,42.66534777971289,55.16363743939877,1.214161584970266,57.23285421797501,1,n,1.3888618999990285,incorrect,c
47,4F4K,48,2,72.87346426766175,59.57145127336824,2.275532084340353,60.89871912551629,1,v,0.9761754999999539,correct,v
48,4F4K,49,2,34.2020911079375,43.89992517645865,1.01822947484808,47.30071989878376,2,b,1.4678345000011177,correct,b
49,4F4K,50,1,44.94834927332261,50.39619059388215,1.2731924246137665,53.0984849506628,1,c,1.8258085999987088,correct,c
50,4F4K,51,2,71.51080869740208,61.61441343856293,2.211958411749332,62.53207480456028,1,v,2.8524403999999777,correct,v
51,4F4K,52,2,51.34265976068266,39.00386447892099,1.4542545246125815,42.90259419212386,1,v,1.808910099998684,correct,v
52,4F4K,53,1,47.27217409298935,63.94729246567535,1.3362270993135967,64.3378401450721,1,c,0.7785681999994267,correct,c
53,4F4K,54,1,53.84462699423799,38.16498444197413,1.5319177181869743,42.15293553012125,2,n,2.007175400000051,correct,n
54,4F4K,55,1,52.46530657136575,64.48162660090667,1.4886031533211568,64.7418492977805,1,c,0.6547176000003674,correct,c
55,4F4K,56,2,49.35298312346806,43.86223166581056,1.3953136832881603,47.26682405529213,1,v,0.8001769000002241,correct,v
56,4F4K,57,1,74.86016097099525,56.9199435228383,2.3715081544258423,58.714627547890274,2,c,1.212851000000228,incorrect,n
57,4F4K,58,1,48.84826347999688,34.42468434204399,1.380745958320315,38.84180587100131,2,n,0.6923134999997274,correct,n
58,4F4K,59,2,38.26204340801741,59.674318084564185,1.10792582901469,60.98204339085919,2,b,1.9279858999998396,correct,b
59,4F4K,60,2,55.13007329517613,41.87827356357287,1.573418224145541,45.48228746521184,1,v,0.989664200000334,correct,v
60,4F4K,61,1,62.98478840614931,45.01503551375739,1.852590026849083,48.302895690504336,2,n,1.2431978000004165,correct,n
61,4F4K,62,1,44.175148864711375,57.82131360996024,1.25288540600811,59.46466186924325,1,n,0.8001671000001807,incorrect,c
62,4F4K,63,2,52.15599851841103,39.96455113098696,1.4790593614199603,43.763243129254576,1,v,0.7701151999990543,correct,v
63,4F4K,64,1,31.30726056283318,49.444660391723545,0.9587441779567478,52.257902323863725,1,c,1.704389300000912,correct,c
64,4F4K,65,2,47.83140332566193,56.580203667894814,1.3518565773639506,58.43003127068132,2,v,1.1838499000004958,incorrect,b
65,4F4K,66,1,78.30481893283851,60.75247780843063,2.5476102259636257,61.84857573849813,2,c,2.579750000000786,incorrect,n
66,4F4K,67,2,72.83327819114973,57.92776909384044,2.273631339412357,59.55274699623277,1,v,1.4462481999999,correct,v
67,4F4K,68,2,21.97699526864558,34.49221480508028,0.7896634702294036,38.90101444247442,2,b,0.6848556999993889,correct,b
68,4F4K,69,1,54.22785625276561,41.266770949716935,1.5441743859955437,44.93252029266378,2,c,1.4508754999988014,incorrect,n
69,4F4K,70,1,58.65324614077049,77.45306838064883,1.6930180848647414,73.22913721466293,1,c,0.6540390000009211,correct,c
70,4F4K,71,2,62.35927141921144,42.64384161292938,1.8286489480198165,46.17088399941545,1,v,0.7226370999997016,correct,v
71,4F4K,72,2,58.39337424875406,75.0373944228724,1.683893886651039,71.86102262138787,2,v,0.8513146999994206,incorrect,b
72,4F4K,73,2,41.84453713832881,54.86616766748031,1.1936137946948504,56.97940087782475,2,b,1.0915318000006664,correct,b
73,4F4K,74,1,40.40487630555502,60.19558009520344,1.1584102629514306,61.40255636092164,1,c,1.7725055000009888,correct,c
74,4F4K,75,1,37.99028421154589,52.64480317553814,1.101682515909976,55.06643186417599,1,c,1.5526981000002706,correct,c
75,4F4K,76,2,26.449125770180203,39.06929647516682,0.8666214033714232,42.96114589668432,2,v,3.3322606999990967,incorrect,b
76,4F4K,77,2,40.020624534129375,53.0779120719123,1.1491911088112736,55.44205548683107,2,b,0.5708746000000247,correct,b
77,4F4K,78,2,36.66475098414057,23.942207904965805,1.071730768756767,30.069355967982244,1,b,0.64748789999976,incorrect,v
78,4F4K,79,2,51.96478736475845,40.19654868542251,1.4731901139178267,43.971364143025504,1,v,1.5708747999997286,correct,v
79,4F4K,80,1,60.50676554121655,47.24201198921193,1.75954567695147,50.29821921019062,2,c,1.1536295999994763,incorrect,n
80,4F4K,81,2,71.71254942046701,57.81375653675801,2.221257246174022,59.45840480606234,1,v,3.8175554999997985,correct,v
81,4F4K,82,1,49.53433534833193,39.86534109400838,1.4005855036255004,43.674273910363,2,n,1.8929227999997238,correct,n
82,4F4K,83,2,35.93766440367061,48.56733143796673,1.055648787277908,51.47944101950106,2,b,2.573644800000693,correct,b
83,4F4K,84,2,66.32113470611971,74.95742959970937,1.985681232486802,71.8139391590201,2,v,0.5162567999996099,incorrect,b
84,4F4K,85,1,50.77946169304457,64.70985195353276,1.437322547032343,64.91327305383969,1,c,5.0,incorrect,c
85,4F4K,86,1,69.66068775481227,54.90795302260612,2.128475719375694,57.01504450826274,2,c,0.6366137000004528,incorrect,n
86,4F4K,87,2,28.966369416823788,37.94321917864015,0.9131926054262052,41.95509886392863,2,b,0.8499915000011242,correct,b
87,4F4K,88,2,66.29386521428975,51.613969879970014,1.9845555648931013,54.16777482423958,1,v,0.6290814000003593,correct,v
88,4F4K,89,2,64.66813589733891,48.18709358389955,1.918586854023427,51.14114370179976,1,v,0.5779512999997678,correct,v
89,4F4K,90,2,43.61916607573461,31.95510580645691,1.2384837869099563,36.69513755025776,1,b,0.6061359999985143,incorrect,v
90,4F4K,91,2,52.00249873355385,31.389953515666228,1.4743458218727203,36.20952068955967,1,v,0.7516880000002857,correct,v
91,4F4K,92,2,40.99362753973665,57.74592361138925,1.172679545309344,59.40221683328217,2,v,0.5516029999998864,incorrect,b
92,4F4K,93,2,60.41129188236731,47.00281427901572,1.7560558829455926,50.08445293410295,1,v,0.5816537999999127,correct,v
93,4F4K,94,2,52.72619102522829,73.84654112922888,1.4967006801173268,71.1482118888321,2,v,0.5643194999993284,incorrect,b
94,4F4K,95,1,60.58556684239538,39.03064226719251,1.7624312795590336,42.926554964090336,2,c,0.8608368000004702,incorrect,n
95,4F4K,96,2,60.2664294063437,42.273841578762685,1.7507740215914316,45.83805623484026,1,v,0.5334817000002658,correct,v
96,4F4K,97,1,46.62883165186095,30.297229768923685,1.3184701869393012,35.27730464372171,2,n,0.7453979000001709,correct,n
97,4F4K,98,1,60.30312988873816,54.54545476580894,1.752110661155711,56.70538588402779,2,c,0.5769457999995211,incorrect,n
98,4F4K,99,1,41.44593819580376,57.33726318278239,1.1837612576396108,59.062805203334605,1,c,0.9689312000009522,correct,c
99,4F4K,100,2,43.73275382972027,55.73195857217736,1.241412531870155,57.71514123170064,2,v,1.153580399999555,incorrect,b
100,4F4K,101,1,33.79433393840713,46.09276015453049,1.0096323332449573,49.26982464379583,1,n,1.036882800000967,incorrect,c
101,4F4K,102,2,31.13184370062283,47.4023892348077,0.95525334595695,50.44145461569461,2,b,0.5590221000002202,correct,b
102,4F4K,103,2,36.94475994496547,48.489104435096856,1.077989255328676,51.40988502156187,2,b,0.5516404000009061,correct,b
103,4F4K,104,2,38.20888304481041,44.88526586957694,1.1067017616432564,48.18634110437922,2,b,0.43733590000010736,correct,b
104,4F4K,105,1,38.77263417620449,53.77909635770671,1.1197518310148291,56.04754768121863,1,n,0.7142724000004819,incorrect,c
105,4F4K,106,2,71.20315471310971,54.46095744631019,2.197852610467916,56.63306350816604,1,v,0.6863001000001532,correct,v
106,4F4K,107,1,56.8765028921987,40.06869133813365,1.631608679439863,43.85665349164692,2,c,0.8244352000001527,incorrect,n
107,4F4K,108,2,40.39859675124509,58.96674138304637,1.1582590080076745,60.40667931434265,2,v,0.9774773000008281,incorrect,b
108,4F4K,109,1,48.58584289258384,65.04990706842574,1.37323190986179,65.16741297131641,1,n,0.5805919999984326,incorrect,c
109,4F4K,110,1,44.884804946403136,67.42924475596014,1.2715111810066486,66.90111019667708,1,c,0.8968925999997737,correct,c
110,4F4K,111,1,62.40788186011146,51.352271457790735,1.8304983279187013,53.93865224593993,2,c,0.6142055000000255,incorrect,n
111,4F4K,112,2,47.679197453261054,55.0068872295086,1.347584671773861,57.0993835923332,2,v,0.9093666999997367,incorrect,b
112,4F4K,113,1,44.907864829347886,60.09797603758784,1.2721210381674724,61.324037818265325,1,c,0.968932699999641,correct,c
113,4F4K,114,2,52.255830134428834,44.595122481506166,1.482132989281354,47.92566620768405,1,v,1.3368781999997736,correct,v
114,4F4K,115,2,42.51160141419725,63.07463886850454,1.2102860290041348,63.67018153075018,2,b,0.46031780000157596,correct,b
115,4F4K,116,2,59.20469647997518,46.15126892250525,1.7125438089062823,49.32225588371257,1,b,0.37053800000103365,incorrect,v
116,4F4K,117,2,41.78901088314732,24.36882900656936,1.1922364005648292,30.40583083406261,1,b,0.6304868999995961,incorrect,v
117,4F4K,118,1,60.23358261688786,47.53463811267636,1.7495785990888502,50.55951122903501,2,c,0.8381023000001733,incorrect,n
118,4F4K,119,1,50.21880128721771,35.63516299108272,1.4206626747861746,39.90668407378862,2,n,0.5450665999997,correct,n
119,4F4K,120,2,57.69282113514899,41.454464462759184,1.65954141585094,45.10123060381613,1,v,1.1656757999990077,correct,v
120,4F4K,121,2,61.383136101854696,48.47876750904004,1.7919049128655251,51.40069220759264,1,v,2.9193063999991864,correct,v
121,4F4K,122,2,44.52963336230717,24.17233786650081,1.2621549197739823,30.250597666529384,1,b,0.5113264999999956,incorrect,v
122,4F4K,123,2,39.84696186662313,62.959704016035936,1.1450486184028434,63.58153584097485,2,b,0.8659979999993084,correct,b
123,4F4K,124,1,50.14240994735184,68.90118228706069,1.4184077247789628,67.93270131346681,1,c,0.8296334999995452,correct,c
124,4F4K,125,1,70.2363918818827,57.48367278387141,2.1541097509801865,59.18458271252654,2,c,0.7090762000007089,incorrect,n
125,4F4K,126,2,43.29380296611479,25.26543309101296,1.2301328150747002,31.11971179281609,1,v,0.5223177999996551,correct,v
126,4F4K,127,2,73.52498765250144,51.23247531426573,2.3065708848748465,53.83364252890517,1,v,0.6546756999996433,correct,v
127,4F4K,128,1,62.88479181040484,51.103460580733895,1.848741807655271,53.720465555499736,2,c,0.7697164999990491,incorrect,n
128,4F4K,129,1,36.67248103101837,55.0622031812214,1.0719030545424415,57.1465061779471,1,n,0.3705659999995987,incorrect,c
129,4F4K,130,1,46.53004065987918,26.131463401334354,1.315764432580838,31.81759958463028,2,n,0.6789085000000341,correct,n
130,4F4K,131,1,27.726647331314386,41.84716375824137,0.8899519932871855,45.4543114078625,1,n,0.4435349000013957,incorrect,c
131,4F4K,132,1,51.53568785526057,38.32908500338164,1.4601034968961055,42.29942624718316,2,n,0.6605663000009372,correct,n
132,4F4K,133,2,45.53588166387999,27.65238105102871,1.2888429258076783,33.06195222717714,1,b,0.8330829999995331,incorrect,v
133,4F4K,134,1,41.33125536423378,25.947882925774493,1.1809416316588268,31.66899519112551,2,c,1.328460200000336,incorrect,n
134,4F4K,135,1,44.73685164616196,59.42972455030469,1.2676052582380395,60.78373676149377,1,c,0.667171099999905,correct,c
135,4F4K,136,2,62.27687747585214,53.33344142768495,1.8255185442906716,55.66309631001332,1,b,0.9240676000008534,incorrect,v
136,4F4K,137,1,48.16653485096764,62.04653628847222,1.3613103851012045,62.87152348550932,1,n,0.7030594000007113,incorrect,c
137,4F4K,138,1,52.90149544741767,69.81918438219573,1.502166639022755,68.559407280193,1,c,0.6241645999998582,correct,c
138,4F4K,139,1,29.60940442347009,46.4898572889972,0.9254853977930062,49.62552593451428,1,n,0.41308759999992617,incorrect,c
139,4F4K,140,1,57.97815975501612,44.60932162975724,1.6694174921530878,47.93842555800384,2,c,0.5938041000008525,incorrect,n
140,4F4K,141,1,66.70519672079814,57.62252168205468,2.0016030620121463,59.299888941643765,2,c,0.6012415000004694,incorrect,n
141,4F4K,142,1,33.66737259283167,48.578068940445085,1.006970331589897,51.4889865741957,1,c,0.9336659999989934,correct,c
142,4F4K,143,2,65.11770471710001,51.180718970683685,1.936606902288155,53.78825046338167,1,v,0.9228717999994842,correct,v
143,4F4K,144,2,39.009429243450704,45.51525999476527,1.1252791028404947,48.75194633968358,2,b,0.5944539000010991,correct,b
144,4F4K,145,2,43.09247190470478,25.801806136480227,1.224993553535934,31.55100300258739,1,v,0.48588679999920714,correct,v
145,4F4K,146,2,66.28790860489082,44.36962224119429,1.984309764708463,47.72300246312708,1,v,0.5149003000005905,correct,v
146,4F4K,147,1,48.70017866746489,60.31115689412373,1.376500715674328,61.4954002656044,1,c,0.637594399999216,correct,c
147,4F4K,148,2,40.48449103415584,54.86850244444141,1.1603296478661138,56.98139283563919,2,v,0.7696823000005679,incorrect,b
148,4F4K,149,2,55.159412640736335,44.45195189516699,1.5743784508974208,47.79700074944604,1,v,0.5403960000003281,correct,v
149,4F4K,150,2,42.46146205814058,61.06004193198041,1.2090248198749995,62.09343374616491,2,b,0.9886970999996265,correct,b
150,4F4K,151,1,72.80053928827058,60.38091752259345,2.272084008999392,61.55136949010669,2,c,0.751700200000414,incorrect,n
151,4F4K,152,1,48.45171868466744,57.613966030989296,1.3694072547197986,59.29278912234114,1,c,0.8232886999994662,correct,c
152,4F4K,153,1,60.94226756306053,52.469343718924016,1.7755525097454914,54.91392257286031,2,c,0.8428526000006968,incorrect,n
153,4F4K,154,2,32.44861779608572,40.90474419780414,0.9817710520056232,44.60721532966021,2,b,0.8669124999996711,correct,b
154,4F4K,155,2,47.98486920345896,31.90051656345424,1.3561775579371445,36.64813189570536,1,b,0.8051933000006102,incorrect,v
155,4F4K,156,1,37.78293545500119,52.19813929369638,1.09694262145042,54.67781936376279,1,c,0.8609732999993867,correct,c
156,4F4K,157,2,46.84791663298586,24.48210836550874,1.32449050282324,30.495525423842828,1,v,1.0248744000000443,correct,v
157,4F4K,158,2,54.92908363145189,43.02948806884224,1.566855904620296,46.51780597604539,1,v,0.43739370000002964,correct,v
158,4F4K,159,2,55.80636746690487,36.59591545834713,1.595701748912303,40.75679104469153,1,v,0.42992340000091644,correct,v
159,4F4K,160,2,47.56431834573899,63.11767074737546,1.3443693443584732,63.703328656880586,2,b,0.8986346999990928,correct,b
160,4F4K,161,1,36.83845549454457,50.55671018226893,1.0756089499911234,53.23986900208507,1,n,2.821395400000256,incorrect,c
161,4F4K,162,2,60.617607317999,47.21600397707157,1.763605913503983,50.27498408847958,1,v,0.7151587000007567,correct,v
162,4F4K,163,2,57.540108140863,45.61880365569293,1.6542797723653384,48.8448460051311,1,v,1.3463110999982746,correct,v
163,4F4K,164,2,53.07663198609868,46.78879053882461,1.5076472963740792,49.89305343785979,1,v,0.6983224000014161,correct,v
164,4F4K,165,2,62.54179094851098,42.45430960539933,1.835602565795048,46.00038898913146,1,v,0.5452509000006103,correct,v
165,4F4K,166,1,50.14013713716864,60.368957253300906,1.4183406899188555,61.54177748037366,1,n,0.6970251000002463,incorrect,c
166,4F4K,167,1,61.94467140680007,44.04761400347544,1.8129512631492697,47.43351928808599,2,c,0.6325650999988284,incorrect,n
167,4F4K,168,1,51.66623477023908,41.59801045127364,1.464072547001649,45.23028035075253,2,n,0.8790360000002693,correct,n
168,4F4K,169,1,40.138178863796654,51.58205598845658,1.1520037123650326,54.13985395515571,1,n,0.8439906999992672,incorrect,c
169,4F4K,170,2,48.17283676395512,42.75186502659369,1.361488789160632,46.26805982536776,1,v,0.5155424000004132,correct,v
170,4F4K,171,1,56.93135406713381,44.31569717160159,1.6334707509642192,47.67453071798162,2,c,0.43134809999901336,incorrect,n
171,4F4K,172,1,49.81793263791008,60.11547009859829,1.4088694946044829,61.33811862578518,1,c,0.9275933000008081,correct,c
172,4F4K,173,1,65.28395740645831,49.53418315309308,1.94331358549066,52.33715962241001,2,c,0.6306987999996636,incorrect,n
173,4F4K,174,2,55.11893400134069,37.02674308033075,1.573053807459877,41.139249791809576,1,v,0.5756283000009716,correct,v
174,4F4K,175,2,48.784393367866926,70.15223863447414,1.3789133493643284,68.78352759995934,2,v,0.7337201999998797,incorrect,b
175,4F4K,176,2,63.59254521870919,53.480038960139936,1.8761515335388776,55.78971071220687,1,v,0.6363306000002922,correct,v
176,4F4K,177,2,49.82569206413858,62.823894479666265,1.4090968378877569,63.4765805008931,2,v,0.4602651999994123,incorrect,b
177,4F4K,178,1,55.12638948169251,43.00193009266038,1.573297700602258,46.49301533012178,2,n,1.1282400000000052,correct,n
178,4F4K,179,1,47.25647451813454,64.60213937099337,1.3357909411615447,64.83245393472808,1,c,0.5816694000004645,correct,c
179,4F4K,180,2,49.80360487791908,35.49266353876725,1.408449802223969,39.78094842819206,1,v,0.6059623000001011,correct,v
180,4F4K,181,2,60.039166973742056,46.23804972662951,1.7425197515551023,49.400008913172506,1,v,0.5405295000000478,correct,v
181,4F4K,182,2,48.24762026703902,34.788825633444645,1.36360765917616,39.16136167160531,1,b,0.4980568000009953,incorrect,v
182,4F4K,183,2,45.39450726628242,59.12959272144697,1.2850595519149248,60.53955632254488,2,v,0.5267382999991241,incorrect,b
183,4F4K,184,1,31.86087410101553,39.75310121437209,0.9698450825400364,43.57364292834766,1,n,1.3755469000006997,incorrect,c
184,4F4K,185,1,56.23748221453085,41.5265273631571,1.6100711758212345,45.16601387819449,2,c,0.534360600000582,incorrect,n
185,4F4K,186,2,51.04036227835173,71.31968256177606,1.4451416084353104,69.55515355223152,2,v,0.5573401000001468,incorrect,b
186,4F4K,187,1,59.33867198555007,46.06114011808751,1.7173215092846392,49.24148609852074,2,c,0.5538209999995161,incorrect,n
187,4F4K,188,2,45.0110302529848,54.44182443782615,1.274853003840921,56.61667996163669,2,b,0.5502116000006936,correct,b
188,4F4K,189,1,53.123580269516765,46.54866224715732,1.509119873996423,49.6781700721181,2,n,0.46767739999995683,correct,n
189,4F4K,190,2,45.90576856842217,68.19862415257509,1.2987943889788005,67.44435997724248,2,b,0.4117552000006981,correct,b
190,4F4K,191,2,41.81620300210784,60.08404440299636,1.192910734374803,61.3128220243901,2,b,0.5830389000002469,correct,b
191,4F4K,192,1,63.6468154210095,42.601996279637504,1.87826999782234,46.13324111663542,2,n,0.9350109000006341,correct,n
192,4F4K,193,2,36.33836994456523,47.062027648207135,1.0644816633845764,50.13738542781942,2,b,0.6119668000010279,correct,b
193,4F4K,194,2,62.25914382959945,47.979206459864685,1.8248454887049128,50.955973398451405,1,b,0.6133659999995871,incorrect,v
194,4F4K,195,2,60.98815541470316,76.86452258289876,1.7772475701635837,72.90559495567537,2,v,0.4785002999997232,incorrect,b
195,4F4K,196,1,56.36256838976,45.23923084431187,1.614264573466345,48.504203691648925,2,n,0.5648682000010012,correct,n
196,4F4K,197,1,31.720042117309383,40.56171415147169,0.9670090277554888,44.29913312219096,1,c,1.8260619999982737,correct,c
197,4F4K,198,2,38.26371524827666,44.6414349053628,1.1079643466601423,47.9672816878777,2,v,1.0428130000000237,incorrect,b
198,4F4K,199,1,45.19556086757016,65.47999255303425,1.2797542753446858,65.48661319306296,1,c,0.709118299999318,correct,c
199,4F4K,200,1,50.89723176223688,60.53738744445239,1.4408468057093853,61.67671277657291,1,c,0.716542300000583,correct,c
200,4F4K,201,1,42.66440424705475,25.512015028142528,1.214137763098627,31.31759999910682,2,c,1.6073028999999224,incorrect,n
201,4F4K,202,2,55.75016088065051,67.90225852260545,1.5938378091524128,67.23613614311363,2,v,0.429957899999863,incorrect,b
202,4F4K,203,2,70.13678678523195,61.68103983591113,2.149652712132415,62.58455450423926,1,v,0.4239889000000403,correct,v
203,4F4K,204,2,56.33847851720793,64.16728265081017,1.6134561346418297,64.50462291247109,2,v,0.5517342000002827,incorrect,b
204,4F4K,205,1,48.65468345362674,62.000068066012034,1.37519909795311,62.83512610177593,1,n,0.42388260000006994,incorrect,c
205,4F4K,206,2,52.31662561349131,37.172207753592566,1.4840078962468732,41.26854390749232,1,v,0.6437164999988454,correct,v
206,4F4K,207,1,68.59811132648503,52.90147065148569,2.081961427097492,55.289178025139975,2,c,0.8547577999997884,incorrect,n
207,4F4K,208,2,51.37001912686085,38.241941543934246,1.4550821174383963,42.22162423925574,1,b,0.6012420999995811,incorrect,v
208,4F4K,209,2,44.317972004130255,62.1806227199469,1.2566119110377034,62.97640669764754,2,b,0.7516278000002785,correct,b
209,4F4K,210,1,56.41258886214585,72.52129067739047,1.6159445186267352,70.32610984498226,1,c,0.6133859000001394,correct,c
210,4F4K,211,2,46.44202152607813,32.2434869953292,1.313358383051382,36.94379885528347,1,v,1.0503215999997337,correct,v
211,4F4K,212,1,48.61450074000568,62.014765006186046,1.3740504944767662,62.84664060019029,1,c,0.6913983000013104,correct,c
212,4F4K,213,1,76.84877075074873,59.17375574950066,2.4716305701655945,60.5755442859815,2,n,0.4616745000002993,correct,n
213,4F4K,214,2,49.05845924813434,66.91145308705828,1.386794266876782,66.53062805825486,2,v,0.7220945999997639,incorrect,b
214,4F4K,215,2,32.26191603867019,54.51127332558345,0.9779668587208687,56.67613592470719,2,b,0.6194164000007731,correct,b
215,4F4K,216,2,52.8541098032198,70.65716853656606,1.5006871979632952,69.1199516828347,2,b,0.7940506000013556,correct,b
216,4F4K,217,1,50.6039640223924,60.48801545451347,1.432086782574072,61.63719131857109,1,c,0.5344566000003397,correct,c
217,4F4K,218,1,62.4068996801176,45.26160670251004,1.8304609424610851,48.5242911259043,2,c,1.0171449999998003,incorrect,n
218,4F4K,219,1,53.24095679850654,59.00774176020782,1.5128077968913018,60.44015848272668,1,c,0.5828835000011168,correct,c
219,4F4K,220,2,62.25066263185696,43.22651480702187,1.824523684505453,46.69504429488318,1,v,0.9639869999991788,correct,v
220,4F4K,221,2,48.29594220504255,59.4831126680289,1.364978536854787,60.82707484931322,2,b,0.6558414999999513,correct,b
221,4F4K,222,2,74.47744297722403,62.11318405052927,2.352709653348181,62.923682415475554,1,v,0.38176580000072136,correct,v
222,4F4K,223,1,76.77423712916438,58.26945143384236,2.4678027988060887,59.834737789503016,2,c,0.7879881000008027,incorrect,n
223,4F4K,224,2,77.90632903473634,58.58362394054124,2.526587022335208,60.09302761499634,1,v,0.6315280000017083,correct,v
224,4F4K,225,2,54.94535045197623,71.28098338984762,1.56738599741783,69.52992822062996,2,b,0.8001598000009835,correct,b
225,4F4K,226,1,67.79776200493733,43.85687510414595,2.0475985079116765,47.262007097584814,2,n,0.6569896999990306,correct,n
226,4F4K,227,1,51.15776310963992,63.15492855527633,1.4486739160589934,63.73200951279972,1,c,0.5079395999982808,correct,c
227,4F4K,228,2,65.62401572630057,53.49385194553053,1.9571040669411448,55.80163330974268,1,v,0.7030561999999918,correct,v
228,4F4K,229,1,55.99374548785248,40.520410921557065,1.601931396156637,44.262049179248514,2,c,0.7021251999995002,incorrect,n
229,4F4K,230,1,45.013079067390606,58.362054130492126,1.2749073187050954,59.91096915679061,1,c,0.4726366000013513,correct,c
230,4F4K,231,1,50.37574803930913,30.91641343702925,1.425306746278089,35.804418212079575,2,c,0.6316418000005797,incorrect,n
231,4F4K,232,1,57.95806714927828,44.24587870810733,1.6687201318624374,47.61176876175372,2,n,0.8729366999996273,correct,n
232,4F4K,233,2,61.17978483751093,48.2730736036059,1.7843437141125085,51.2176849904679,1,v,0.5101976000005379,correct,v
233,4F4K,234,2,61.274147211780985,47.62562581925008,1.7878484092740337,50.64070389925176,1,v,1.346343600000182,correct,v
234,4F4K,235,2,67.23043547920462,54.38680083365389,2.023584458834445,56.569548327750425,1,v,0.6376165000001492,correct,v
235,4F4K,236,2,72.01976432559087,62.44599737325576,2.2354928472037217,63.1833525849895,1,v,0.8597492999997485,correct,v
236,4F4K,237,1,81.50935926074884,63.173160862592304,2.723158163440876,63.74603836106229,2,n,0.4980353999999352,correct,n
237,4F4K,238,2,58.87369578963701,76.84637965462146,1.700796901496323,72.89552008603637,2,b,0.50279589999991,correct,b
238,4F4K,239,1,32.282574949240846,44.55387693770509,0.9783870737264792,47.8886016894011,1,c,0.6133730999990803,correct,c
239,4F4K,240,1,56.30798236410239,40.29399854951406,1.6124332863100834,44.0588129524811,2,c,0.5390248999992764,incorrect,n
240,4F4K,241,1,65.2521353951174,52.73356084094334,1.9420280811543635,55.143506586397976,2,n,1.8087529000003997,correct,n
241,4F4K,242,1,53.298880557556494,34.10909475729033,1.5146310576558235,38.56543823575493,2,n,0.8487435000006371,correct,n
242,4F4K,243,1,43.47014344851738,55.847150945412494,1.2346518660905774,57.81257721260988,1,c,0.5345027999992453,correct,c
243,4F4K,244,2,60.72077834805593,40.40257501857541,1.767393582121134,44.15626506853879,1,v,0.7823339999995369,correct,v
244,4F4K,245,2,47.39427912494674,62.14031848186709,1.339624228232705,62.94490290163937,2,b,0.461632999998983,correct,b
245,4F4K,246,1,53.60938997071391,64.68451420519018,1.5244424623184054,64.89427537542745,1,n,1.1570547000010265,incorrect,c
246,4F4K,247,2,55.47171778980939,71.44592446573141,1.5846360555995602,69.63727180519743,2,v,0.686199800000395,incorrect,b
247,4F4K,248,1,34.891186322080884,26.079093247357928,1.0329250607054652,31.775171053363437,2,c,0.8424820000000182,incorrect,n
248,4F4K,249,1,55.161944000435824,75.69771901922604,1.5744613254400186,72.24547081599489,1,c,1.1885840999984794,correct,c
249,4F4K,250,2,38.94430389257229,52.63370514921264,1.1237562322185266,55.056791154728586,2,v,1.0139053000002605,incorrect,b
250,4F4K,251,2,48.93485492965368,38.13697843345278,1.3832343948313617,42.1279429869714,1,b,0.6835900000005495,incorrect,v
251,4F4K,252,1,29.46699660972601,46.75369645876532,0.9227488235868814,49.86165779870576,1,c,0.7954263000010542,correct,c
252,4F4K,253,2,51.347995657296735,34.84360941613441,1.4544158930672169,39.209498123739706,1,v,0.7637401000010868,correct,v
253,4F4K,254,1,43.19848734958728,48.21319483749208,1.2276970664880462,51.16438232348072,1,c,0.7698082000006252,correct,c
254,4F4K,255,2,35.505252074121806,53.23828292204376,1.0461991929544243,55.5808318689737,2,v,0.5405436000000918,incorrect,b
255,4F4K,256,1,38.97159649970572,51.615022603820975,1.1243941828872792,54.16869573509604,1,c,0.8912110000001121,correct,c
256,4F4K,257,1,30.919876228115637,43.81306857794228,0.9510521036742988,47.222612818416685,1,c,0.4919329000003927,correct,c
257,4F4K,258,1,38.15660917360872,53.87481407375719,1.1054994253359662,56.12994106798944,1,c,0.5817200000001321,correct,c
258,4F4K,259,2,58.88109760499928,48.87568963307899,1.7010587022196684,51.7533962750128,1,v,0.8986014999991312,correct,v
259,4F4K,260,2,47.1548898169604,53.45624472390518,1.3329722019487906,55.76916981608013,2,v,0.5145934000011039,incorrect,b
260,4F4K,261,2,47.53126527866401,60.44133864088261,1.3434456509585169,61.599802742606826,2,b,0.5587787999993452,correct,b
261,4F4K,262,1,54.92108750383648,43.55509082717658,1.5665953976276026,46.99059651342157,2,n,0.6970449000000372,correct,n
262,4F4K,263,2,43.73831528129765,67.05871456122837,1.2415561059739062,66.63638846635963,2,v,1.0857522000005702,incorrect,b
263,4F4K,264,1,29.43643936184176,41.14291027809994,0.922162676675614,44.821206491993344,1,c,0.897251000000324,correct,c
264,4F4K,265,1,32.9513475686747,56.01764193967689,0.992088292944483,57.95658672524044,1,c,0.49197519999870565,correct,c
265,4F4K,266,2,46.23105887279643,30.61101889569379,1.3076095022741907,35.544061085566874,1,v,0.5087597000001551,correct,v
266,4F4K,267,1,56.64023185792462,44.55043515172196,1.6236120536753516,47.88550870887004,2,n,0.7387245000008988,correct,n
267,4F4K,268,2,51.439639259639975,40.30825688628253,1.4571901798792093,44.07160932961947,1,v,0.5477876000004471,correct,v
268,4F4K,269,1,59.04321767552355,40.84673885225453,1.7068029749509563,44.55510835057808,2,c,0.8787485999982891,incorrect,n
269,4F4K,270,1,61.17109614534683,42.95561234783329,1.7840213546604209,46.45134858898995,2,n,0.5040886999995564,correct,n
270,4F4K,271,2,51.81421361362004,66.20361696621858,1.4685846323284195,66.01796114889717,2,v,0.3935937999995076,incorrect,b
271,4F4K,272,1,69.22697320294712,60.789278530554185,2.1093656411266664,61.877929184726064,2,n,0.38884410000173375,correct,n
272,4F4K,273,1,35.462447534361424,43.25763632560512,1.0452683901977156,46.72303939250028,1,c,0.556356400000368,correct,c
273,4F4K,274,1,44.55412631200484,33.60120317888307,1.26279791992095,38.12185334716837,2,n,0.576965399999608,correct,n
274,4F4K,275,1,39.06947869585254,53.86510498154448,1.126685108922942,56.12158645521467,1,c,0.4798551999992924,correct,c
275,4F4K,276,1,66.82762855666968,55.6557730870053,2.006705432458514,57.65063974634602,2,c,0.5928789000008692,incorrect,n
276,4F4K,277,1,61.78997067469055,44.81632241359522,1.8071285303936124,48.12440936774166,2,c,0.655876900000294,incorrect,n
277,4F4K,278,1,45.91985702939413,29.570275493406992,1.299174941225281,34.66236280022121,2,c,0.8355203999999503,incorrect,n
278,4F4K,279,2,33.78676457750541,49.90017329173428,1.0094734291825964,52.660817571774416,2,b,1.0004085999989911,correct,b
279,4F4K,280,1,61.63903683900512,51.51825656786485,1.8014656027677995,54.08401991481246,2,n,0.6302181999999448,correct,n
280,4F4K,281,2,61.723891442472365,45.7493720159848,1.8046470982526928,48.96196479837379,1,v,2.136471799998617,correct,v
281,4F4K,282,2,54.59209521547975,43.22052882925224,1.5559145780505828,46.68965963215726,1,v,1.280894100000296,correct,v
282,4F4K,283,2,50.57253854022917,42.27332628694615,1.4311512560404722,45.83759274068229,1,v,0.5452373000007356,correct,v
283,4F4K,284,1,42.42433699422106,58.858884331425664,1.2080918201478037,60.31852693950828,1,n,0.8565243999983068,incorrect,c
284,4F4K,285,2,41.2357174692275,54.555773603819816,1.1785978373690726,56.71421427557068,2,v,0.5998701999997138,incorrect,b
285,4F4K,286,1,47.6021394551251,58.34864216588481,1.3454270635164554,59.899933467770936,1,n,0.7226468999997451,incorrect,c
286,4F4K,287,1,30.885510380552976,50.65592858506667,0.950372707780612,53.32719577231638,1,c,0.4412666000007448,correct,c
287,4F4K,288,2,22.47994583078142,41.384365455082126,0.797965553577049,45.03821737613003,2,b,0.4859117999985756,correct,b
288,4F4K,289,1,49.95509493367019,61.70927818994186,1.4128936220238082,62.60678148831037,1,n,0.5209963000015705,incorrect,c
289,4F4K,290,1,35.274644700394525,51.858541287130514,1.0411943159815928,54.38155384368993,1,c,0.5769609999988461,correct,c
290,4F4K,291,2,51.75749416279485,35.61910596680492,1.4668535344518985,39.89251125063557,1,v,0.5770221999991918,correct,v
291,4F4K,292,2,50.59847296051399,37.94273871508851,1.4319232713402668,41.954670410161455,1,v,0.3865132999999332,correct,v
292,4F4K,293,2,40.17380590480307,52.28978362324703,1.1528574830328395,54.75765241208718,2,b,0.8051899999991292,correct,b
293,4F4K,294,1,49.539592774867145,27.534155464992708,1.4007386311618948,32.96440563519552,2,n,0.7033362999991368,correct,n
294,4F4K,295,2,58.47188228702864,40.993348619045136,1.686645136988821,44.686818067788096,1,v,0.7202503999997134,correct,v
295,4F4K,296,2,54.25287712328912,39.91508336803515,1.5449780202888357,43.718879256188416,1,v,0.41309240000009595,correct,v
296,4F4K,297,1,60.81796224652719,73.7450163103662,1.7709688880480214,71.08629696784065,1,c,0.7021433000008983,correct,c
297,4F4K,298,1,39.44179592458681,30.47650164965832,1.135441893542657,35.42961105933045,2,c,1.1096408000012161,incorrect,n
298,4F4K,299,2,50.62863330093222,66.99872815314734,1.4328216075320188,66.59334500093898,2,v,0.5998619000001781,incorrect,b
299,4F4K,300,2,63.44238505779827,81.01297541733376,1.870302400639274,75.04771814115034,2,v,0.5331569999998464,incorrect,b
300,4F4K,301,2,49.78386010920468,62.23767403796761,1.4078716383038954,63.020967800421296,2,b,0.49062450000019453,correct,b
301,4F4K,302,1,35.52642363507599,43.835926662542725,1.046659883795598,47.24316876098575,1,c,1.2384352999997645,correct,c
302,4F4K,303,2,47.47617470762867,37.933281022567485,1.3419075127638598,41.94623665485266,1,b,0.4601907999985997,incorrect,v
303,4F4K,304,2,30.54930550313152,51.51139934875854,0.943751648908,54.07801746910799,2,b,0.6558297999999922,correct,b
304,4F4K,305,2,56.61025639497863,44.96823146831463,1.6226003355372918,48.26086057157583,1,v,0.437357199998587,correct,v
305,4F4K,306,2,49.03309127454704,66.72262512738577,1.3860629089254588,66.39456053433128,2,v,0.3828035999995336,incorrect,b
306,4F4K,307,2,55.09697486865856,36.6395808603281,1.5723356720768569,40.79552077554817,1,v,0.812539900000047,correct,v
307,4F4K,308,2,80.7641044654714,63.56605588704281,2.6812823220377004,64.04734203243872,1,v,0.61331969999992,correct,v
308,4F4K,309,2,57.40726569558991,46.22015460928938,1.6497163272556092,49.38397675727254,1,v,0.502760200000921,correct,v
309,4F4K,310,2,65.61456206933852,50.81798270193421,1.9567193708374333,53.46972048075765,1,v,0.4848792000011599,correct,v
310,4F4K,311,1,57.19009192775127,47.80270477483908,1.642283002856486,50.79864609421748,2,c,0.7455190999990009,incorrect,n
311,4F4K,312,2,44.88575632898079,57.04659422669671,1.271536336126407,58.82046018996444,2,v,3.1016555999995035,incorrect,b
312,4F4K,313,1,30.67220096301265,43.185787976595456,0.9461665276293096,46.6584084722124,1,c,0.7150115000004007,correct,c
313,4F4K,314,2,41.35328257669965,60.13434848336819,1.181482677615979,61.35330997316245,2,b,0.5344885999984399,correct,b
314,4F4K,315,2,50.023017007805656,65.84611511117816,1.4148906026646433,65.75635626402106,2,b,0.6255146000003151,correct,b
315,4F4K,316,1,38.56467500703938,50.97120985570259,1.1149200429145745,53.60435809830835,1,c,0.7832579999994778,correct,c
316,4F4K,317,1,35.30103985128888,44.12910817177798,1.04176595497376,47.50679042326044,1,c,1.1642687999992631,correct,c
317,4F4K,318,1,65.12904733362387,73.6385644575549,1.9370637302290092,71.02118598758423,1,n,0.46775309999975434,incorrect,c
318,4F4K,319,1,60.241441621631246,49.11362362188586,1.7498645445529757,51.96453233388706,2,n,0.870959199999561,correct,n
319,4F4K,320,2,30.40973370522769,48.11192832779835,0.9410165563043444,51.07420903012153,2,b,1.121984400000656,correct,b
320,4F4K,321,1,26.8267598000738,38.74152774610664,0.8734534929687816,42.667951968007095,1,c,3.26430099999925,correct,c
321,4F4K,322,1,45.770408892539024,57.73848039892878,1.2951437796538714,59.39604877515095,1,c,0.9687623999998323,correct,c
322,4F4K,323,2,48.954858781179816,35.08488075702533,1.383809896314344,39.42167720622361,1,v,0.7711466000000655,correct,v
323,4F4K,324,1,27.685716861725027,47.25025497891437,0.8891948549851718,50.30558295799213,1,c,0.9458309000001464,correct,c
324,4F4K,325,1,53.43018913783441,65.4891571380708,1.518772386636536,65.4933876583954,1,c,0.7880714000002627,correct,c
325,4F4K,326,2,44.19007474849399,52.71595717741585,1.2532743307040128,55.12822400066023,2,b,0.637652600000365,correct,b
326,4F4K,327,1,29.383606370785188,42.82955975441798,0.9211501163379948,46.33795307882534,1,n,0.8185339999999997,incorrect,c
327,4F4K,328,2,29.302692756906133,47.2370655989408,0.9196015371596578,50.29380033589303,2,v,1.038224399999308,incorrect,b
328,4F4K,329,2,45.61515043150635,56.78225773937604,1.2909691389467903,58.59941201249813,2,b,0.6424068000014813,correct,b
329,4F4K,330,1,56.70595712452839,42.487554642524486,1.6258325913806162,46.030294269033774,2,n,0.5709029000008741,correct,n
330,4F4K,331,1,49.89766413885083,37.96455317739817,1.4112072953595216,41.97412421487687,2,n,0.5041433999995206,correct,n
331,4F4K,332,1,50.06975533126575,32.05635541445918,1.416266397799663,36.78237637992614,2,n,0.3875609999995504,correct,n
332,4F4K,333,2,51.84654272458069,44.874173076879465,1.46957224225306,48.17637689342559,1,v,1.0479003000000375,correct,v
333,4F4K,334,2,38.35907387024868,52.85295458542758,1.1101635385529844,55.24710605812009,2,v,0.7273275999996258,incorrect,b
334,4F4K,335,2,50.96616304146368,32.81918664718213,1.4429135757377864,37.441879561576414,1,v,0.6071979000007559,correct,v
335,4F4K,336,1,69.96858668467948,48.091058945941455,2.142147171298429,51.05562141981251,2,n,1.3220992000005936,correct,n
336,4F4K,337,1,57.12822530335317,48.52829654791926,1.6401715965781984,51.44473572650978,2,n,0.3452904000005219,correct,n
337,4F4K,338,2,44.10163942613664,60.92636516503763,1.250971726148531,61.98714108679358,2,b,0.550388000001476,correct,b
338,4F4K,339,1,72.65684924349524,63.45564108747546,2.26530526680514,63.96286277212633,2,c,0.7819666999985202,incorrect,n
339,4F4K,340,1,46.90758311091695,38.83377747536555,1.3261348571889489,42.75044267873197,2,n,0.45558019999953103,correct,n
340,4F4K,341,1,49.790320360988105,60.465860785773685,1.4080607804845455,61.61944818890275,1,n,0.45557270000063,incorrect,c
341,4F4K,342,2,49.227106479782,38.33089558912836,1.3916661819672018,42.30104298286034,1,v,0.46858179999981076,correct,v
342,4F4K,343,2,48.55356934521912,36.12034591883725,1.372310629985954,40.33548827967916,1,b,0.5512742000009894,incorrect,v
343,4F4K,344,1,37.6075101973045,27.386055366651348,1.0929484117048038,32.8423999759643,2,n,0.49081309999928635,correct,n
344,4F4K,345,1,36.16352926676739,21.6347077546951,1.0606185439363116,28.287332356822397,2,n,0.5345010999990336,correct,n
345,4F4K,346,1,49.732263489513656,43.0766278469275,1.406361912545506,46.56021184415884,2,n,0.5041406000000279,correct,n
346,4F4K,347,2,46.96743970341755,25.581970454881876,1.327786502176198,31.37386088091675,1,b,1.0428621000010025,incorrect,v
347,4F4K,348,2,29.983361201401333,40.92995298556976,0.9327102234770106,44.62986205992885,2,b,0.9107621999992261,correct,b
348,4F4K,349,2,33.765981660858216,50.17855474557971,1.0090372607175595,52.906593844994426,2,b,0.8547658999996202,correct,b
349,4F4K,350,2,40.8908722884878,54.03548764677553,1.170176514544153,56.268102862136764,2,v,0.5233352000013838,incorrect,b
350,4F4K,351,1,34.1580950586246,40.65409703208448,1.0172983510780942,44.38208787212977,1,c,0.7151919999996608,correct,c
351,4F4K,352,2,75.47148105632209,57.54870600261456,2.40184729767634,59.23861138708602,1,v,0.6012627000000066,correct,v
352,4F4K,353,1,42.13561753893612,63.35099080715531,1.2008604654658328,63.88265239528983,1,c,0.7022711999998137,correct,c
353,4F4K,354,2,60.42954721218918,55.40469425992458,1.7567226239509368,57.43773448209247,1,v,1.3584766999993008,correct,v
354,4F4K,355,1,54.46948770597344,45.026431563446735,1.5519527463192415,48.31313011898238,2,c,0.5585980999985622,incorrect,n
355,4F4K,356,2,59.5192391953502,55.72465394057234,1.7237818111251333,57.70895890937177,1,v,0.5499051000006148,correct,v
356,4F4K,357,1,58.87185745298496,38.14612756723804,1.7007318861445129,42.13610740453528,2,n,0.4859301000014966,correct,n
357,4F4K,358,1,80.79913391042527,64.60943569224335,2.683236124712552,64.83793336147762,2,n,0.4326331000011123,correct,n
358,4F4K,359,2,43.630753705189456,57.94573169579673,1.2387822454187671,59.56759932679169,2,v,0.8174942000005103,incorrect,b
359,4F4K,360,1,23.39686937173741,41.385611474365085,0.8133262492076939,45.03933740431148,1,c,0.9410915999997087,correct,c
360,4F4K,361,2,45.04957165902572,56.77362150598274,1.2758751392300407,58.59217962803917,2,b,1.9349206000006234,correct,b
361,4F4K,362,1,46.775333507531165,66.75916678744537,1.322492925840291,66.42093183501038,1,c,0.8933130999994319,correct,c
362,4F4K,363,2,59.11650936448802,40.79843612111964,1.7094062246315844,44.51172070948521,1,b,1.1096307000007073,incorrect,v
363,4F4K,364,2,63.37218454593982,50.23768449097215,1.8675741650024509,52.9587513871741,1,v,0.37666949999947974,correct,v
364,4F4K,365,1,50.96426515531902,38.55140312957207,1.442856631652543,42.498012706931966,2,n,0.5951564999995753,correct,n
365,4F4K,366,2,49.57328705657319,36.282216374019605,1.4017204066350542,40.47878078382755,1,v,0.4595874000006006,correct,v
366,4F4K,367,1,35.59677633851353,49.06409718794072,1.0481922084816695,51.92060253382435,1,c,0.698264200000267,correct,c
367,4F4K,368,1,77.14698186981597,63.52749343904391,2.487005082866039,64.01785506548683,2,c,0.8365511000010883,incorrect,n
368,4F4K,369,1,49.65766771181944,69.6802586697755,1.404182089357804,68.46540543025341,1,c,0.5028314000010141,correct,c
369,4F4K,370,2,58.5989992317994,53.84093169361093,1.6911093817435858,56.10078261314228,1,v,0.7468885000016598,correct,v
370,4F4K,371,1,56.62125774926518,41.92645488181727,1.6229715749740647,45.52561659929798,2,n,0.6730379000000539,correct,n
371,4F4K,372,1,42.69148890613788,26.97575420720071,1.214821769807653,32.50551073470903,2,n,0.4859467999995104,correct,n
372,4F4K,373,2,56.91986462058176,72.03156938546708,1.633080534752568,70.01479518310315,2,v,0.920573899998999,incorrect,b
373,4F4K,374,2,29.276064472899204,42.89520341319699,0.9190924767162028,46.397005430524025,2,v,0.8451437000003352,incorrect,b
374,4F4K,375,1,47.44876323597086,55.48462013650042,1.3411428360180853,57.50556359331073,1,c,0.6776534000000538,correct,c
375,4F4K,376,2,54.12420527674886,46.2732959214234,1.540849716265833,49.43158376279479,1,v,0.9094225000008009,correct,v
376,4F4K,377,1,42.281688569958135,52.35232064488565,1.204513578422705,54.81210038358579,1,c,0.7166293000009318,correct,c
377,4F4K,378,1,57.35716012195019,72.0052500816941,1.6479983563786125,69.99795074726717,1,c,0.4915404999992461,correct,c
378,4F4K,379,2,25.84310471095451,42.16665234379445,0.8557688917723152,45.74164407309475,2,b,0.909772700000758,correct,b
379,4F4K,380,2,53.12835659709282,37.87879396596559,1.5092697686442689,41.89765421612886,1,b,0.4737839999997959,incorrect,v
380,4F4K,381,1,33.81940707236292,48.79411714020453,1.0101588737775773,51.68095991754053,1,c,0.8790915999998106,correct,c
381,4F4K,382,2,51.45836072851897,37.87613854009744,1.4577575773695173,41.895286795642,1,v,0.4493622999998479,correct,v
382,4F4K,383,1,40.06076329485973,51.042512940081,1.1501506954447394,53.66696897840715,1,c,0.7152686000008543,correct,c
383,4F4K,384,2,63.35892543768654,50.5015836163673,1.867059317014062,53.19132836375035,1,v,0.5588370000004943,correct,v
384,4F4K,385,2,60.45008166696263,43.289066193516334,1.7574729081698228,46.751311607053765,1,v,0.485975800000233,correct,v
385,4F4K,386,2,34.43977627998575,47.0248651040627,1.0232745561225949,50.10416589502495,2,b,0.5272330999996484,correct,b
386,4F4K,387,2,50.95203653735874,64.52331230740782,1.4424897786682522,64.77321129900892,2,v,0.7748658000000432,incorrect,b
387,4F4K,388,2,52.78147267314098,46.10876537231638,1.4984222010102757,49.2841680589198,1,b,0.5345042000008107,incorrect,v
388,4F4K,389,2,36.76672686658958,46.30931062320265,1.074005816083612,49.463844223198585,2,b,0.40091129999927944,correct,b
389,4F4K,390,2,66.59378099390824,51.994885462324746,1.9969710660140945,54.50058214584213,1,v,0.4191881000006106,correct,v
390,4F4K,391,1,54.029949541985545,39.63527748730081,1.537832619465718,43.46803297103598,2,n,0.5032688999999664,correct,n
391,4F4K,392,1,33.301387085792506,55.40525347571562,0.999335917058375,57.4382092380675,1,c,0.6679979999989882,correct,c
392,4F4K,393,1,57.85374325249804,68.3037572977584,1.6651040101656642,67.51791060069465,1,c,0.504141499999605,correct,c
393,4F4K,394,1,53.655620714502426,33.606337781635325,1.5259086764569203,38.12633029613442,2,n,0.6376552000001539,correct,n
394,4F4K,395,1,33.77481008682928,50.29511635845704,1.0092225187571842,53.00939531452919,1,c,0.5991423999985273,correct,c
395,4F4K,396,2,31.58364673379217,51.24188877041149,0.9642702223605844,53.84189689870401,2,b,0.48684229999889794,correct,b
396,4F4K,397,2,41.09884709120215,58.08620691098874,1.1752481526070369,59.68364497479016,2,b,0.5452787000012904,correct,b
397,4F4K,398,1,47.88943296810338,66.81175658968193,1.3534888371650875,66.45885127808276,1,c,0.9458443999992596,correct,c
398,4F4K,399,2,55.73045345676718,69.0982508548239,1.5931847812866156,68.06833431457164,2,v,0.5938158000008116,incorrect,b
399,4F4K,400,1,41.39754791210535,53.09540461401355,1.182570699741008,55.45720082870011,1,n,0.61719500000072,incorrect,c
