,condition,trial,sub_task,x,y,xt,yt,cat,resp,rt,acc,correct_resp
0,4F4K,1,1,53.38154941104116,62.90491499383298,1.5172370241568518,63.16152482328487,1,n,5.0,NA,c
1,4F4K,2,1,70.54943399909719,56.45464326752455,2.168177726612588,57.98110643304199,2,n,0.8000632000002952,correct,n
2,4F4K,3,2,54.511454229343016,36.13986324176986,1.5533076789859883,40.12716313635329,1,b,1.4797934000002897,incorrect,v
3,4F4K,4,2,67.32777600420786,56.616862195488125,2.027684623945164,58.11640561649468,1,v,1.2202395999997862,correct,v
4,4F4K,5,1,54.36654529914502,42.85461404349382,1.5486341473102745,46.09548525417325,2,n,1.5040585000001556,correct,n
5,4F4K,6,1,40.38923306198727,57.75024099852461,1.1580335025202126,59.055212458399616,1,n,0.7392577999999048,incorrect,c
6,4F4K,7,1,62.82895588644182,46.56962475638521,1.846596524683667,49.41004136924041,2,n,2.90740919999962,correct,n
7,4F4K,8,1,61.38682090577707,51.70833516346523,1.792042219871561,53.93353708988026,2,n,1.0609621000003244,correct,n
8,4F4K,9,2,50.467176337757785,63.04486762492528,1.4280191141975416,63.26883036942792,2,v,1.017789300000004,incorrect,b
9,4F4K,10,2,53.54665522457799,38.90830117437365,1.5224550743645346,42.57533662101388,1,b,1.7832273999997597,incorrect,v
10,4F4K,11,2,44.45284924906703,54.91224630083418,1.2601412693186824,56.6837830775772,2,v,1.1097806999996465,incorrect,b
11,4F4K,12,1,37.58738229461596,52.490027771901886,1.092491056085108,54.61067727529778,1,n,1.9229378999998517,incorrect,c
12,4F4K,13,2,32.39676135768232,53.31768310225719,0.9807129549898196,55.32353648219673,2,b,1.7346973999997317,correct,b
13,4F4K,14,1,71.8971179905527,58.46595976111743,2.2297988022740447,59.64194953029944,2,n,1.5829656999999315,correct,n
14,4F4K,15,1,48.3716248568585,71.84060941427153,1.367128399259162,69.47294540887974,1,c,0.8782586000002084,correct,c
15,4F4K,16,2,66.63091604401868,49.32082403400227,1.9985137259289023,51.845236888504814,1,b,1.0856173000001945,incorrect,v
16,4F4K,17,1,60.995320392113214,45.648739630432544,1.7775123847017134,48.59022148159928,2,n,1.3466184000003523,correct,n
17,4F4K,18,1,30.79262316832128,51.216908374121886,0.9485388010661576,53.50605155441925,1,c,0.975952999999663,correct,c
18,4F4K,19,2,45.02928311210568,38.68120065745333,1.27533697574646,42.37358905756773,1,v,1.0734118000000308,correct,v
19,4F4K,20,1,55.15451957268888,46.30910468382209,1.574218268417219,49.17829697513199,2,n,2.2991446000000906,correct,n
20,4F4K,21,2,48.480114346656286,57.333274031665454,1.3702160890262254,58.71117431193773,2,v,0.9640186000001449,incorrect,b
21,4F4K,22,1,41.383959275080926,62.69491814960252,1.1822365905899772,63.00006637366244,1,c,0.7879085000004125,correct,c
22,4F4K,23,2,42.4997714021173,33.62709919054417,1.2099883374542637,37.93332400966346,1,b,1.0914412000001903,incorrect,v
23,4F4K,24,1,46.006164652448064,58.362150180237535,1.3015086855946998,59.55715188014595,1,c,1.7408414999999877,correct,c
24,4F4K,25,2,45.55873782613397,59.592475568866426,1.2894556333525284,60.555271174386014,2,v,1.5586487000000488,incorrect,b
25,4F4K,26,2,53.12624222139465,64.82150457187862,1.509203411727288,64.60962745439394,2,v,0.9518180999998549,incorrect,b
26,4F4K,27,1,42.86157156691199,53.26355450780106,1.219125921304343,55.27705102487744,1,c,0.769847199999731,correct,c
27,4F4K,28,2,64.43477971614132,78.51600808934292,1.9092994528139984,73.35218815868743,2,b,0.8182501999999658,correct,b
28,4F4K,29,2,69.03061300975227,52.94906699249637,2.100770249258139,55.0065896105163,1,b,2.250651100000141,incorrect,v
29,4F4K,30,1,72.04190110877563,54.22060208928752,2.236522129429517,56.09601072285749,2,n,0.4966623000000254,correct,n
30,4F4K,31,1,45.23987810940873,30.17303522779342,1.2809341779388903,34.98033046853388,2,c,0.5209565000000111,incorrect,n
31,4F4K,32,2,36.26989798100966,55.9674708312537,1.0629670962183144,57.57343603936008,2,v,0.8175286999999116,incorrect,b
32,4F4K,33,2,62.85189300204873,54.55484783628051,1.8474774946617405,56.38050197011665,1,b,0.9760759000000689,incorrect,v
33,4F4K,34,2,62.33633894599629,72.36801551586547,1.8277771328835812,69.80752132016906,2,b,1.079244000000017,correct,b
34,4F4K,35,1,56.16139190442644,62.16592281566931,1.607525649404988,62.59098948680775,1,n,0.6058986000002733,incorrect,c
35,4F4K,36,1,58.42314768465441,42.57940492335197,1.6849367438397316,45.84953633043259,2,n,1.0124760999997306,correct,n
36,4F4K,37,1,34.530797730011265,46.38048482326335,1.025213180674707,49.241808348466975,1,n,2.214274099999784,incorrect,c
37,4F4K,38,2,47.09397462733173,34.60427501831846,1.3312848006522626,38.78260131825394,1,b,0.8424889000002622,incorrect,v
38,4F4K,39,2,54.22107169413197,36.363441001851264,1.543956547802854,40.32383025490427,1,v,1.2552504000000226,correct,v
39,4F4K,40,1,43.42910373026529,55.03578020085671,1.233598667416027,56.788386285686826,1,c,0.7937826000002133,correct,c
40,4F4K,41,2,55.95227115559978,71.46942941334889,1.600550430845231,69.23473132464662,2,v,1.6794527000001835,incorrect,b
41,4F4K,42,1,35.09569639754909,55.42188578581907,1.0373271010787912,57.11456096764317,1,c,1.856091799999831,correct,c
42,4F4K,43,2,48.741285591471495,35.87009993447269,1.3776778438820838,39.89015710630048,1,b,1.012617400000181,incorrect,v
43,4F4K,44,1,37.090106529639854,55.70866329117365,1.081252295719724,57.35606150590039,1,c,0.611832499999764,correct,c
44,4F4K,45,1,64.9707705048699,55.074792892575246,1.930698802595977,56.82139619370042,2,n,1.5760347999998885,correct,n
45,4F4K,46,2,55.357718466970525,42.34549981981281,1.580884046662759,45.64051014006846,1,b,0.9039969999998902,incorrect,v
46,4F4K,47,1,47.28127243242835,44.24045991736013,1.336479930248211,47.3337147940054,2,c,0.982137700000294,incorrect,n
47,4F4K,48,1,53.08923206679635,39.99635574483193,1.5080423687751652,43.54361278855761,2,n,0.7044349000002512,correct,n
48,4F4K,49,1,79.11983465998506,60.22569110124133,2.5911544994281184,61.062919582588975,2,n,0.8489337000000887,correct,n
49,4F4K,50,1,36.01988415837277,18.871626718858643,1.0574551861679495,26.11140604110118,2,c,1.2734161999997013,incorrect,n
50,4F4K,51,2,39.7785178924419,28.88668626907281,1.143420084354482,33.903659367321595,1,v,1.2545588999996653,correct,v
51,4F4K,52,1,64.43785331717388,47.1163671854096,1.9094214871762945,49.89585172175483,2,n,0.7456040000001849,correct,n
52,4F4K,53,2,49.1118657613422,58.48171132341305,1.3883352367739912,59.65480716490754,2,v,0.836351100000229,incorrect,b
53,4F4K,54,2,62.76082687394685,50.255915093561896,1.8439822980985132,52.66643340083344,1,b,2.165531699999974,incorrect,v
54,4F4K,55,1,49.52664316153045,61.08901769401476,1.400361491548956,61.74808379146932,1,c,0.8911088999998356,correct,c
55,4F4K,56,1,45.728404697510825,59.526692702274616,1.294013026749154,60.50229199594274,1,c,2.5007942999995976,correct,c
56,4F4K,57,1,34.055470819580336,45.53375005662579,1.015129739890197,48.48773418469687,1,c,1.0488866999999118,correct,c
57,4F4K,58,1,40.79120106562249,56.13844380894141,1.1677537126903188,57.71673469268421,1,c,0.8304161000000931,correct,c
58,4F4K,59,2,80.00484436770766,66.12121433351027,2.6392816782918085,65.56425770742204,1,b,0.8729205999998157,incorrect,v
59,4F4K,60,2,34.363417173045534,47.03832591644536,1.021651046071859,49.82655556770218,2,v,0.938964500000111,incorrect,b
60,4F4K,61,1,52.482065157964165,41.3539267264719,1.4891219996080252,44.75470394718879,2,n,1.874206200000117,correct,n
61,4F4K,62,2,59.45250982047353,41.400656500798576,1.7213915530851522,44.79643275456908,1,b,0.9525687999998809,incorrect,v
62,4F4K,63,1,49.90488175887647,39.7968427557764,1.4114191139796872,43.365875064067225,2,c,0.9214911999997639,incorrect,n
63,4F4K,64,2,51.89460417975099,60.82559775545999,1.4710416814120246,61.53989509604443,2,b,1.8620691999999508,correct,b
64,4F4K,65,1,41.24266768773585,49.169112036735086,1.17876818739264,51.711647626677305,1,c,1.0792441999997209,correct,c
65,4F4K,66,2,59.64797670268349,42.552324997014274,1.7284025937971774,45.82533605391045,1,b,1.3766507999998794,incorrect,v
66,4F4K,67,1,57.664544042632194,45.42543717570098,1.6585658830282528,48.39117674687614,2,n,1.1398827000002711,correct,n
67,4F4K,68,1,40.03341433403834,29.638907831158622,1.149496784202104,34.531585555113885,2,c,3.2360584999996718,incorrect,n
68,4F4K,69,1,43.1302874682278,32.803246253229055,1.225957209161577,37.221648276461714,2,c,1.4189972999997735,incorrect,n
69,4F4K,70,2,47.36108729640364,60.14446223646552,1.338699932346131,60.99803617572709,2,v,2.1471591999998054,incorrect,b
70,4F4K,71,1,47.48711301799885,64.32684795044885,1.3422127720853505,64.24038260131051,1,n,1.837894800000413,incorrect,c
71,4F4K,72,2,47.98300330843347,60.69441210356983,1.3561249390025196,61.43592788952751,2,v,2.300475699999879,incorrect,b
72,4F4K,73,1,54.2728769126536,31.978820216054054,1.5456206854448318,36.51382706952919,2,n,1.9349801000003026,correct,n
73,4F4K,74,1,62.12948321077611,50.97214334156061,1.819931936671084,53.292647351907895,2,n,2.60991550000017,correct,n
74,4F4K,75,1,62.87314135931666,46.25912681005808,1.8482939777276968,49.1338217701192,2,n,2.7010175999998864,correct,n
75,4F4K,76,1,33.242769923157574,51.75283114338285,0.9981185589605608,53.97217723186676,1,c,2.7615805000000364,correct,c
76,4F4K,77,2,53.6084548277701,68.88815332046337,1.524412818678324,67.51725425550434,2,b,1.0602061999998114,correct,b
77,4F4K,78,1,65.168735490277,51.74713344124852,1.9386630333164192,53.96722999563827,2,n,1.3766269999996439,correct,n
78,4F4K,79,1,44.31778759043095,29.081997775056912,1.2566070922229116,34.06623103598887,2,c,0.8789338999999927,incorrect,n
79,4F4K,80,2,71.31533195394293,49.45205595764396,2.2029854379031266,51.9607155337511,1,b,1.1086444000002302,incorrect,v
80,4F4K,81,1,48.99049379752767,58.62741398042663,1.3848356923783465,59.773625969989546,1,c,1.607128300000113,correct,c
81,4F4K,82,1,32.17212826908833,45.36240821810992,0.9761426158078392,48.33497946151458,1,c,2.579656299999897,correct,c
82,4F4K,83,2,45.93113364511738,65.92418794071887,1.2994796212990416,65.4210215516951,2,b,1.6800603000001502,correct,b
83,4F4K,84,1,41.51472948048209,58.84886020447346,1.185455809710566,59.95381268762375,1,c,3.6477734000000055,correct,c
84,4F4K,85,1,72.5237677937307,61.1403445065132,2.259045038241404,61.78855860729855,2,n,2.288390100000015,correct,n
85,4F4K,86,1,47.67167345542656,31.67741730605681,1.3473738490276277,36.25620797995879,2,n,2.974224999999933,correct,n
86,4F4K,87,1,34.738798328921504,45.06990612709502,1.0296570884467868,48.074099981521655,1,c,1.7337843999998768,correct,c
87,4F4K,88,2,31.245879522246938,48.29907190523888,0.9575212339624806,50.943803404764594,2,b,1.3280745000001843,correct,b
88,4F4K,89,1,41.52179559902557,45.77236821826768,1.1856300084112197,48.70038191295985,1,n,1.1035022000000936,incorrect,c
89,4F4K,90,2,27.468196268977,45.915150997052095,0.8851819192776114,48.82757401232114,2,b,2.323370199999772,correct,b
90,4F4K,91,2,37.36617836460816,50.66880567051689,1.0874773486018323,53.02774447873583,2,v,2.4583004000000983,incorrect,b
91,4F4K,92,2,54.42677135321057,47.93004873428129,1.5505748183846426,50.61730139135181,1,b,3.4223833999999442,incorrect,v
92,4F4K,93,2,53.22891636623799,36.83716424278442,1.5124290769423203,40.74121443674888,1,v,1.3038037999999688,correct,v
93,4F4K,94,2,64.03603098024368,42.851773362604,1.893533479130296,46.09294657029457,1,v,0.9092792999999801,correct,v
94,4F4K,95,1,57.0895399917295,66.4257801042859,1.6388527100496424,65.78461374754872,1,n,1.8064923000001727,incorrect,c
95,4F4K,96,1,56.85733594110821,41.52293004355554,1.6309585060171403,44.90563027438809,2,n,0.6119229999999334,correct,n
96,4F4K,97,2,55.69411998306062,42.14455281689151,1.5919815316631936,45.4609506503235,1,b,1.4798315999996703,incorrect,v
97,4F4K,98,1,39.68610718285095,22.54732473585309,1.141224967582107,28.83324635372509,2,c,0.8789370999998027,incorrect,n
98,4F4K,99,2,40.38286805370696,50.23219030369381,1.157880239255591,52.64564739303323,2,v,1.4437190000003284,incorrect,b
99,4F4K,100,1,58.09408806535808,73.34773633841957,1.6734467471686498,70.41670367850423,1,n,2.543301000000156,incorrect,c
100,4F4K,101,1,61.09700107908408,51.68417624415844,1.7812747160203533,53.912552882047095,2,n,1.4190484000000652,correct,n
101,4F4K,102,1,50.22043993614452,37.33156790724361,1.420711084331456,41.177744481759234,2,c,1.1824212000001353,incorrect,n
102,4F4K,103,1,59.41930600344288,48.56736507658852,1.720203421684642,51.1808846787515,2,n,0.6059328000001187,correct,n
103,4F4K,104,1,60.18279626831931,49.32541203342651,1.7477318926663734,51.8492753518733,2,n,1.8196273999997175,correct,n
104,4F4K,105,2,42.97830312405954,31.64129741511927,1.222088778789216,36.225378021404936,1,v,2.2570154000000002,correct,v
105,4F4K,106,2,65.22174457534112,48.62726963751866,1.9408011861015813,51.23378457816865,1,b,1.1763586999995823,incorrect,v
106,4F4K,107,1,61.95212315758626,41.57207080413416,1.813232210418756,44.94951958153776,2,n,1.2393753999999717,correct,n
107,4F4K,108,1,42.73245344324373,53.31275884763457,1.2158570366864951,55.319308353167,1,c,0.7747912999998334,correct,c
108,4F4K,109,1,48.86993570247286,32.79349092932382,1.381368347179601,37.21324660093929,2,n,0.8256977000000916,correct,n
109,4F4K,110,2,23.80320757472494,39.9479020296772,0.8202276182601664,43.50044046227973,2,b,0.7029950000001008,correct,b
110,4F4K,111,1,49.62109653594334,35.36338386797873,1.40311464819871,39.44586310275144,2,n,0.7636914999998226,correct,n
111,4F4K,112,2,53.12714622108924,67.34224594246655,1.5092317822187922,66.43979000858627,2,v,0.49684590000015305,incorrect,b
112,4F4K,113,2,38.96229209789776,50.88609789140953,1.124176656598708,53.21755219380962,2,b,1.0185435999997026,correct,b
113,4F4K,114,1,53.39649990255942,60.66458592223457,1.517708786344426,61.412263596448746,1,n,0.5345582999998442,incorrect,c
114,4F4K,115,1,40.850219293366166,49.8669603116806,1.1691877176637235,52.3253276145176,1,c,1.5883309000000736,correct,c
115,4F4K,116,1,55.31541055025347,71.5670876489357,1.579493846458112,69.29762432695811,1,c,1.8439189000000624,correct,c
116,4F4K,117,1,36.346582759221135,52.96798658822309,1.0646634718108148,55.022878749712085,1,n,1.152129800000239,incorrect,c
117,4F4K,118,1,29.027954211841298,49.48024047844585,0.9143628070997258,51.98550727842788,1,n,0.9517445999999836,incorrect,c
118,4F4K,119,2,44.02402346097506,53.61282011252108,1.2489543129939051,55.57665372895927,2,v,0.6427069000001211,incorrect,b
119,4F4K,120,1,42.07332464620311,53.31094086529001,1.1993059447571246,55.31774733221695,1,c,0.9943506999998135,correct,c
120,4F4K,121,2,38.77545663940331,47.10043020801385,1.1198175528269876,49.88170195161812,2,v,1.8974369000002298,incorrect,b
121,4F4K,122,2,44.32465956055856,62.89566881754824,1.2567866724496832,63.15442708872286,2,b,1.6132442999996783,correct,b
122,4F4K,123,2,33.4967263901315,42.1820561317955,1.0034034416992748,45.49446109883854,2,b,1.297330299999885,correct,b
123,4F4K,124,1,62.64408158724774,53.39583554319103,1.839511183837873,55.39061912497385,2,n,0.74617760000001,correct,n
124,4F4K,125,1,40.46394669760216,48.38172978339736,1.1598340522429351,51.01687270756796,1,n,1.139802900000177,incorrect,c
125,4F4K,126,2,65.1350717316693,42.19308940299242,1.9373064088326053,45.50431980876895,1,v,1.147421800000302,correct,v
126,4F4K,127,1,32.988400576761414,48.43832178329468,0.9928529872102372,51.06688587588479,1,c,0.5755082999999104,correct,c
127,4F4K,128,1,51.05447917906784,58.31059443990286,1.4455658959256197,59.51499939635694,1,n,1.036453000000165,incorrect,c
128,4F4K,129,2,48.125548072445575,32.28731932454066,1.360150639863579,36.77816140883567,1,v,2.458264099999724,correct,v
129,4F4K,130,2,67.37933779420358,49.155657140817326,2.029859867822183,51.6997954454672,1,v,0.9032051999997748,correct,v
130,4F4K,131,2,54.91497059271924,60.88931865001762,1.5663961431398186,61.59032647265265,2,v,0.6049427000002652,incorrect,b
131,4F4K,132,2,57.65003331876589,48.38091226421547,1.6580654995054456,51.01615014148628,1,b,0.8841941999999108,incorrect,v
132,4F4K,133,2,52.30502915235248,41.15602313157444,1.4836500833069473,44.57800405717708,1,b,1.0359306000000288,incorrect,v
133,4F4K,134,1,27.661145565126866,39.732462873221394,0.8887406407034795,43.308538263005694,1,c,3.1925968999998986,correct,c
134,4F4K,135,2,68.0615296143052,54.189344473585486,2.0588602235523186,56.06936447442314,1,v,2.907262499999888,correct,v
135,4F4K,136,2,41.91816388364734,53.13282843601548,1.195442647059806,55.164704117631096,2,b,0.9328261000000566,correct,b
136,4F4K,137,1,46.79436435052906,38.66070331644444,1.3230163864846582,42.35538670723725,2,c,1.6923031999999694,incorrect,n
137,4F4K,138,2,35.380521700905135,24.66086318175397,1.043489187117652,30.475493845937564,1,b,2.8829624999998487,incorrect,v
138,4F4K,139,1,37.97184998112719,51.04870954405445,1.101260289933932,53.3594372882666,1,c,3.3503967999999986,correct,c
139,4F4K,140,2,58.30624482089435,73.64975274175544,1.680845760555239,70.60121677944156,2,v,1.9530586000000767,incorrect,b
140,4F4K,141,1,45.75630912968469,60.567931025740016,1.294764103918428,61.33550989088688,1,c,1.419152600000416,correct,c
141,4F4K,142,1,68.7528898933247,48.18458139518201,2.08867307705633,50.84255472087688,2,n,2.3163938000002418,correct,n
142,4F4K,143,1,28.95470409835398,45.021962859222896,0.9129711159844308,48.03132780715893,1,c,1.1352951999997458,correct,c
143,4F4K,144,2,52.578637458538765,37.96273823620431,1.4921154062178053,41.73628383730408,1,v,1.3950816999999915,correct,v
144,4F4K,145,2,39.471928424942895,51.7297997622025,1.1361535704419452,53.95217826797642,2,v,0.8615709999999126,incorrect,b
145,4F4K,146,1,52.8264912675007,35.356050740379445,1.4998255837813812,39.43944219308357,2,c,1.0246686999998929,incorrect,n
146,4F4K,147,2,59.527298321181895,50.24711985967655,1.7240707149804648,52.658727940669785,1,v,0.5951698999997461,correct,v
147,4F4K,148,2,58.33372656929731,44.904375941381176,1.681806582771978,47.92641019245294,1,v,0.7408540000001267,correct,v
148,4F4K,149,2,46.30538440874977,57.38489123478241,1.309632048655329,58.75384992077812,2,b,0.9154865000000427,correct,b
149,4F4K,150,1,57.123127952275446,72.76309631588116,1.6399977534483414,70.05512244491,1,n,0.6180010000002767,incorrect,c
150,4F4K,151,1,50.67599699568736,42.07300980032924,1.4342334891939963,45.397026430213344,2,n,0.7517582000000402,correct,n
151,4F4K,152,2,52.77781015818413,40.2425872883202,1.4983080857345543,43.76307086638853,1,v,1.431242800000291,correct,v
152,4F4K,153,1,36.84181971572177,56.22098733810133,1.0756841990121797,57.78583008165278,1,c,1.4300641999998334,correct,c
153,4F4K,154,2,26.417411831382484,43.23620077322356,0.8660500785198326,46.4364990684491,2,b,1.340256699999827,correct,b
154,4F4K,155,2,59.68217810378896,49.40507583268485,1.7296322677303235,51.91938327951016,1,v,0.6240680999999313,correct,v
155,4F4K,156,1,67.4363152661235,54.14725233650381,2.032266297932941,56.03347100584162,2,n,1.3635423999999148,correct,n
156,4F4K,157,2,44.401074805355655,59.67953946938825,1.258785306977951,60.62532024956282,2,b,1.687510100000054,correct,b
157,4F4K,158,1,46.09585289152924,58.26170018951822,1.3039382830801405,59.47499928975122,1,c,0.8125960000002124,correct,c
158,4F4K,159,2,51.72568732854913,62.46679700203827,1.4658836716587578,62.824068621748616,2,v,0.5815856999997777,incorrect,b
159,4F4K,160,2,44.54982331667077,60.95470582764641,1.2626849319995996,61.64202972474408,2,b,0.7896378000000368,correct,b
160,4F4K,161,2,62.046224888745,51.34214599225035,1.8167837996875225,53.61511963364455,1,v,1.7419588000002477,correct,v
161,4F4K,162,1,36.411244669207576,55.33841548803481,1.0660959882305503,57.04414587196167,1,n,1.6800594000001183,incorrect,c
162,4F4K,163,1,50.63708212737159,63.3444022029843,1.4330733597917529,63.497681558422265,1,c,2.1791769000001295,correct,c
163,4F4K,164,2,48.025058533192194,71.68745622397384,1.3573114077113182,69.37492876561002,2,b,3.1561624000000847,correct,b
164,4F4K,165,1,44.71732143425852,55.31701878108974,1.2670905637485868,57.02608686488894,1,c,1.4022150999999212,correct,c
165,4F4K,166,1,56.21186051075258,73.6708396070824,1.6092135771323657,70.61404128425188,1,c,0.6908433999997214,correct,c
166,4F4K,167,1,62.030448474948415,49.2736987135734,1.8161878809825256,51.803751042702885,2,n,0.8971565000001647,correct,n
167,4F4K,168,1,52.44236225121813,66.94395686023462,1.4878930897302278,66.15652515593054,1,c,0.6413566000001083,correct,c
168,4F4K,169,1,53.8940316719699,42.39668177556236,1.5334923293615783,45.686246956744085,2,n,0.6059061999999358,correct,n
169,4F4K,170,1,54.68712777585737,75.08561947699907,1.5589923333044795,71.45688765458128,1,c,0.8180569000001015,correct,c
170,4F4K,171,2,31.702235610086557,45.91915521257343,0.9666510338917308,48.8311404300693,2,b,1.4082069999999476,correct,b
171,4F4K,172,1,53.98203361250537,70.51629750286637,1.5363011111563944,68.61280720439268,1,c,1.340199499999926,correct,c
172,4F4K,173,1,40.530834130327015,47.80741453597455,1.161448370506211,50.50869784882832,1,n,0.8243568999996569,incorrect,c
173,4F4K,174,2,47.86590436121995,54.389534353000045,1.3528267862811694,56.23989845231756,2,v,1.8196396000003006,incorrect,b
174,4F4K,175,2,72.15441471084827,54.9943912344871,2.241760944795771,56.75335292029435,1,v,0.6049355000000105,correct,v
175,4F4K,176,1,50.64617450963991,59.78481001512965,1.433344337697304,60.70991224571772,1,c,1.430276799999774,correct,c
176,4F4K,177,2,34.853160127872364,48.48476522289682,1.0321086161486523,51.10792167211633,2,b,1.5297600999997485,correct,b
177,4F4K,178,2,61.33852799434638,52.15154200441313,1.7902435134069767,54.31790766637525,1,v,0.9335928999998941,correct,v
178,4F4K,179,1,59.50519724036725,41.84325238640506,1.7232785502345578,45.19175517567605,2,n,1.0367302999998174,correct,n
179,4F4K,180,1,36.97128394502446,28.878726785782675,1.0785839854590356,33.89704119116907,2,c,0.8000302999998894,incorrect,n
180,4F4K,181,2,61.014593212400925,48.41803656798004,1.7782248958292055,51.04896013691607,1,v,0.9032155999998395,correct,v
181,4F4K,182,1,54.38091252661481,65.65667682097609,1.549096883419774,65.22568925018624,1,c,2.3906668999998146,correct,c
182,4F4K,183,1,70.41202039253591,51.24521894414881,2.161991141442608,53.53071430237564,2,n,0.5269714999999451,correct,n
183,4F4K,184,1,38.95303673374927,50.83053948718516,1.1239603185053515,53.16904400530666,1,n,0.6968309000003501,incorrect,c
184,4F4K,185,1,58.53452197034539,44.21992747984061,1.6888435174968497,47.31537769315756,2,n,0.6362176000002364,correct,n
185,4F4K,186,1,50.629087074433166,64.63489615512508,1.4328351276355646,64.4707067192387,1,c,0.6725711999997657,correct,c
186,4F4K,187,2,68.133173087927,53.09887512339712,2.061929766796074,55.135506065087824,1,v,2.000802400000339,correct,v
187,4F4K,188,2,61.9903566875543,51.74144691382497,1.814674382855248,53.96229227844215,1,v,1.5222880999999688,correct,v
188,4F4K,189,1,48.687684595179846,63.669505587466205,1.3761431377027795,63.74480428439265,1,c,0.6422902999997859,correct,c
189,4F4K,190,1,57.50977027180435,45.675970084671086,1.6532364854374004,48.614487844341056,2,n,1.0867364999999154,correct,n
190,4F4K,191,1,54.2223613383485,40.893679414466725,1.5439979532546309,44.34383542094739,2,n,0.6148028000002341,correct,n
191,4F4K,192,2,58.67490151110157,45.94066029123692,1.6937806408172131,48.850293724853,1,v,0.5942537000000812,correct,v
192,4F4K,193,1,57.93954802689109,50.89075401529528,1.6680776409289353,53.22161674880272,2,c,0.89110299999993,incorrect,n
193,4F4K,194,2,30.251597613605007,42.5189469671057,0.937927248929184,45.79550760734434,2,b,0.9690929000003052,correct,b
194,4F4K,195,1,56.52323811456541,47.99412595657891,1.6196669043386474,50.67402803940909,2,n,1.4069696999999906,correct,n
195,4F4K,196,1,59.38807329997918,54.54292319662653,1.7190865710926957,56.37036649068897,2,c,1.5404820999997355,incorrect,n
196,4F4K,197,2,34.64692810988343,59.16087975083145,1.0276919221289011,60.20686734087845,2,b,1.1034841999999117,correct,b
197,4F4K,198,2,39.41163662506283,51.372067296000026,1.1347300300770855,53.64116522336296,2,b,1.3090197000001353,correct,b
198,4F4K,199,1,43.47566714265235,55.84852425888252,1.2347936888063271,57.47359995747135,1,c,2.556289800000286,correct,c
199,4F4K,200,2,47.33085174504858,58.62200350611285,1.3378585152541156,59.76921751023936,2,b,2.0016359999999622,correct,b
200,4F4K,201,2,48.43258621122367,57.15172033691438,1.368862546322586,58.5608794725399,2,b,1.9157649000003403,correct,b
201,4F4K,202,2,43.608417910509885,55.23710150553315,1.238207014469366,56.95860416809141,2,b,0.5087386000000151,correct,b
202,4F4K,203,1,72.19614776959173,55.12684485773762,2.243707221965672,56.86542073940464,2,c,0.9093057999998564,incorrect,n
203,4F4K,204,1,41.18852526262266,50.051254574861794,1.1774418061474503,52.48703719044995,1,n,1.1828162000001612,incorrect,c
204,4F4K,205,1,53.98723723949407,38.30559382962107,1.5364673577344932,42.040222280684524,2,n,0.6785812000002807,correct,n
205,4F4K,206,1,45.40027122969293,25.379681961316823,1.2852135861344078,31.04568614397197,2,n,1.0853185999999369,correct,n
206,4F4K,207,1,47.43614514932592,35.59527378032545,1.3407909854310054,39.64903854359572,2,n,0.7716820000000553,correct,n
207,4F4K,208,2,40.87489205662766,29.92512518933654,1.1697877299801802,34.77176026063803,1,b,0.9092565000000832,incorrect,v
208,4F4K,209,2,55.1838117236244,72.50554420362471,1.5751774375649776,69.89400800420427,2,v,1.3401895000001787,incorrect,b
209,4F4K,210,2,81.23214340944119,65.11980540582302,2.7075055633764595,64.83074099996469,1,v,0.5694271000002118,correct,v
210,4F4K,211,2,50.7986314412379,64.4424087942291,1.437895612085794,64.3269310096869,2,b,0.6908157000002575,correct,b
211,4F4K,212,2,55.47177969806244,63.19148383364132,1.5846380955756525,63.3809870310277,2,v,1.182166099999904,incorrect,b
212,4F4K,213,1,57.02098246206984,33.84532329019643,1.6365180036793674,38.12251842220852,2,n,0.6424708999998074,correct,n
213,4F4K,214,2,63.566894921262566,46.73703799254318,1.8751510931494133,49.55887798576248,1,v,1.2795485000001463,correct,v
214,4F4K,215,2,58.90036991209294,47.14435473414158,1.7017405489309612,49.92069899736945,1,v,1.4919165999999677,correct,v
215,4F4K,216,2,47.664296675234006,33.75098589305382,1.3471671833465937,38.04069643311068,1,b,1.4326764999996158,incorrect,v
216,4F4K,217,2,62.33166406174964,68.5384672721376,1.8275994605901864,67.2766430645237,2,v,0.6572393000001284,incorrect,b
217,4F4K,218,2,57.38739794810861,43.49428029707555,1.6490349072007109,46.66711979082434,1,v,2.20947520000027,correct,v
218,4F4K,219,1,63.65728137187215,78.73636303840433,1.878678816461216,73.4665542264046,1,c,1.7641632999998365,correct,c
219,4F4K,220,1,39.116658091430025,54.01264552267232,1.1277910059652665,55.918602023071394,1,c,1.8066435999999158,correct,c
220,4F4K,221,2,60.21364078534732,79.498580986079,1.7488532364653195,73.8551325265372,2,v,2.622165799999948,incorrect,b
221,4F4K,222,2,36.61192550762553,24.0946818895493,1.070554145767979,30.030442667783323,1,v,1.0296997000000374,correct,v
222,4F4K,223,2,47.10821571239562,60.96595318472336,1.3316790991082763,61.65091848831297,2,b,0.7524392999998781,correct,b
223,4F4K,224,2,34.249838039069886,45.02090805343831,1.0192409459051823,48.03038673486546,2,v,0.7938094999999521,incorrect,b
224,4F4K,225,2,42.9649787049321,55.50444795118605,1.2217502172713732,57.18415558283081,2,b,3.0530656000000818,correct,b
225,4F4K,226,2,24.62423080159383,35.20028779479404,0.8343513386628709,39.30311712631248,2,b,0.7879487000000154,correct,b
226,4F4K,227,2,72.39800010954022,53.43378670971397,2.2531447545224204,55.42318000432995,1,v,1.0549572999998418,correct,v
227,4F4K,228,2,41.74000872101942,53.30551504151419,1.1910221646120942,55.313088286919566,2,b,1.7093816999999945,correct,b
228,4F4K,229,2,40.11734524162962,50.34201716401631,1.1515047459573526,52.74184754878664,2,b,1.6315245000000687,correct,b
229,4F4K,230,2,40.96650469714957,61.40737816007217,1.1720183362381205,61.99865370308742,2,b,1.2262077000000318,correct,b
230,4F4K,231,2,63.28001178228435,51.27127517999729,1.8639980535327556,53.55340938789602,1,v,0.7455696000001808,correct,v
231,4F4K,232,1,41.578654026585454,60.41475929873652,1.1870326525788517,61.2136672268981,1,c,0.7576238999999987,correct,c
232,4F4K,233,1,60.61742879659226,48.60471332209512,1.7635993665730942,51.21386733612059,2,c,0.9396519000001717,incorrect,n
233,4F4K,234,1,55.563220213185055,42.99226309640052,1.587654075404527,46.21850036658816,2,n,0.5344821000003321,correct,n
234,4F4K,235,1,56.53271309973781,43.17209620316473,1.6199860535292616,46.37921205080696,2,n,0.624069899999995,correct,n
235,4F4K,236,2,33.61327776968078,44.00915405314399,1.0058382574845364,47.12711978948151,2,b,1.7105891000001066,correct,b
236,4F4K,237,2,52.53797819917396,32.751317866559845,1.490854377399029,37.17693249475042,1,v,0.824625400000059,correct,v
237,4F4K,238,1,59.86197032470776,70.76300454565092,1.736110902350425,68.77518435153705,1,c,2.391434500000287,correct,c
238,4F4K,239,1,52.01615884744778,34.744572322818414,1.4747646753088033,38.90496328881365,2,n,0.727194199999758,correct,n
239,4F4K,240,2,45.4375947274816,57.36374870370147,1.2862114536939058,58.73637281639291,2,b,1.6850531999998566,correct,b
240,4F4K,241,2,30.683540895848488,49.55217804323394,0.946389666887013,52.048769847740814,2,b,2.2083300999997846,correct,b
241,4F4K,242,1,44.32542563041817,38.6670731136547,1.2568066931892932,42.3610431868479,2,n,2.3985889000000498,correct,n
242,4F4K,243,2,37.67127272685079,54.0636516589607,1.0943985180909783,55.96214413955183,2,b,1.054957899999863,correct,b
243,4F4K,244,1,40.605170533273466,61.45490845186465,1.1632451048638317,62.03596441132106,1,c,2.6707298999999693,correct,c
244,4F4K,245,2,53.17564104167371,33.41788806347056,1.5107544915504834,37.75220690833188,1,v,1.9715759000000617,correct,v
245,4F4K,246,1,38.08897311908262,51.76435186107389,1.1039456861066677,53.98217994851628,1,c,2.2025524999999107,correct,c
246,4F4K,247,2,26.87439671177335,45.600583086216105,0.8743191487224435,48.547303615247365,2,b,1.3462999000003038,correct,b
247,4F4K,248,1,36.30294255982775,41.368690005570514,1.0636977573034536,44.76788705109442,1,c,2.300301799999943,correct,c
248,4F4K,249,2,54.2352898915478,73.67276819424336,1.544413100100282,70.61521382240107,2,v,0.8243513000002167,incorrect,b
249,4F4K,250,1,49.85146513729893,65.81948982649561,1.409852225998141,65.34468946164529,1,c,1.9716042999998535,correct,c
250,4F4K,251,1,56.83581424191109,39.49149909375081,1.6302287645786948,43.09401118616879,2,n,2.264125100000001,correct,n
251,4F4K,252,2,40.12790649698511,59.16093606311899,1.1517576615942298,60.20691292285301,2,b,1.8501854000001003,correct,b
252,4F4K,253,1,43.51592865283219,54.57882677853444,1.2358279089427275,56.40087994659282,1,c,3.145066200000201,correct,c
253,4F4K,254,2,52.49074354613479,40.182546552635536,1.4893907538046072,43.70954873303426,1,v,1.771097099999679,correct,v
254,4F4K,255,1,33.546072637823,45.382528936149015,1.0044335888745242,48.35292001234246,1,c,2.8154224999998405,correct,c
255,4F4K,256,1,67.35314638871486,52.68500614684636,2.028754636163143,54.77900387595241,2,c,1.146023199999945,incorrect,n
256,4F4K,257,1,51.50126562665108,68.54854198385397,1.459058743193781,67.28360102740685,1,c,1.8014126000002761,correct,c
257,4F4K,258,1,40.90652814829462,60.28312451416021,1.1705575327364282,61.108753091410144,1,c,0.6726165999998557,correct,c
258,4F4K,259,2,40.525783496985454,25.58494034375476,1.1613263958337765,31.209537511618315,1,v,2.294444399999975,correct,v
259,4F4K,260,1,40.86495142712215,57.565445330350165,1.1695459486406,58.90293548695816,1,c,1.3453874000001633,correct,c
260,4F4K,261,2,56.94501882888163,36.59310050413406,1.6339349688251867,40.52606406288618,1,v,1.2791646000000583,correct,v
261,4F4K,262,1,35.475755662138965,52.32212116106217,1.045557692299341,54.4655347107372,1,c,2.6221795000001293,correct,c
262,4F4K,263,1,61.37526961664591,49.9239010334784,1.7916118188937846,52.37530691834277,2,c,2.2202078000000256,incorrect,n
263,4F4K,264,1,57.1107625796072,43.9112409416109,1.6395761138950409,47.03965447176871,2,n,0.6060023000000001,correct,n
264,4F4K,265,2,65.8310195576066,52.3031026068395,1.9655466252644989,54.44908382354119,1,v,2.4157563000003393,correct,v
265,4F4K,266,2,51.42176659222886,55.76850103096862,1.4566487133389572,57.40636834694529,2,v,0.9215516999997817,incorrect,b
266,4F4K,267,2,41.565067218544286,60.74177628717214,1.1866973279351305,61.47348683728085,2,b,0.9821953000000576,correct,b
267,4F4K,268,2,44.88561539881488,25.090397227799112,1.2715326098178144,30.815532742268893,1,v,1.5162258999998812,correct,v
268,4F4K,269,2,57.92905147782371,42.36547298354548,1.6677135900186306,45.65835830328106,1,v,1.2385417000000416,correct,v
269,4F4K,270,1,42.40537457685787,60.96613157186237,1.20761554848824,61.65105945594642,1,c,1.022086599999966,correct,c
270,4F4K,271,2,44.04053251503145,63.02239971978163,1.2493831477782873,63.25161977745066,2,b,1.534419899999648,correct,b
271,4F4K,272,2,70.82528912066067,52.05755737780496,2.1806506671344263,54.23649511671763,1,v,1.0118483000001106,correct,v
272,4F4K,273,1,45.0086368624816,38.59187673167144,1.274789557061273,42.29427465559199,2,n,2.9984512999999424,correct,n
273,4F4K,274,2,43.4995027459204,59.45759035267426,1.235405862830965,60.44659122752463,2,b,2.000763200000165,correct,b
274,4F4K,275,1,47.41844380100355,43.55625151303976,1.3402975455831203,46.72249381276207,2,c,1.559399900000244,incorrect,n
275,4F4K,276,1,41.535006749398136,56.83350684498064,1.1859557672363883,58.29674331856658,1,c,0.8860358000001725,correct,c
276,4F4K,277,1,57.98406441621113,34.72447985113474,1.6696224824578625,38.88743308898457,2,n,1.1283364999999321,correct,n
277,4F4K,278,2,43.656155488204064,24.7192131574961,1.2394367619129576,30.52156606559897,1,b,3.5859073999999964,incorrect,v
278,4F4K,279,2,64.74805928573164,47.99523654260161,1.921778120043382,50.6750111061256,1,v,1.9471932999999808,correct,v
279,4F4K,280,1,56.1995804589758,70.52663406569543,1.6088027064502792,68.61962995796803,1,c,2.4044913000002452,correct,c
280,4F4K,281,1,39.94959992256203,48.45138267038311,1.1474951036418792,51.07842680351137,1,c,2.895114100000228,correct,c
281,4F4K,282,1,48.66175406487965,60.73996016279335,1.3754013072793143,61.472047138914895,1,c,1.3341109000002689,correct,c
282,4F4K,283,2,71.82491085076224,56.53506700917739,2.226453259945019,58.04821238695321,1,v,2.9195095000000038,correct,v
283,4F4K,284,2,45.8491290881748,54.25610508312118,1.297265589059044,56.12626749676597,2,v,0.7333149000000958,incorrect,b
284,4F4K,285,1,47.768112572053866,57.4986367793368,1.3500785769973862,58.847805715516,1,c,1.3462525999998434,correct,c
285,4F4K,286,1,71.76777940916256,58.88148819261976,2.223809770794496,59.98032037066205,2,c,1.5347618000000693,incorrect,n
286,4F4K,287,2,23.129741863917303,38.21777915244307,0.8088209413304853,41.96234148695029,2,b,2.068522900000062,correct,b
287,4F4K,288,2,39.04487841370272,30.2249659951339,1.1261089022522204,35.02408319732735,1,b,1.6366932999999335,incorrect,v
288,4F4K,289,1,40.90285476048906,52.549891671618695,1.1704681219998068,54.66238337273199,1,c,3.738805499999671,correct,c
289,4F4K,290,1,30.9118812488102,50.91631033462874,0.950894003528726,53.243924104911066,1,c,0.8668594000000667,correct,c
290,4F4K,291,2,49.165110121471976,33.487624215658606,1.3898732324655425,37.81254950475307,1,b,1.9228657999997267,incorrect,v
291,4F4K,292,2,33.36784044703491,48.72065439099968,1.0007178127615062,51.31622321302167,2,b,0.9032600999998976,correct,b
292,4F4K,293,2,61.85119715093059,76.77399334408899,1.8094307752847367,72.4164438755931,2,v,0.7216653999998925,incorrect,b
293,4F4K,294,2,65.06215530158163,55.40810314230489,1.934371185034356,57.10293780475882,1,b,1.3962118999997983,incorrect,v
294,4F4K,295,1,49.49028773345314,65.55942597213922,1.399303232508233,65.1544359879012,1,c,0.7879523999999947,correct,c
295,4F4K,296,1,74.34726488639774,55.173186025728384,2.346349533959052,56.9045975214999,2,c,0.945862600000055,incorrect,n
296,4F4K,297,1,30.185262699202788,47.96141715301735,0.936634367954794,50.64507308924557,1,c,2.6282109999997374,correct,c
297,4F4K,298,2,56.4944204904065,39.21470307066304,1.6186966167442185,42.847739215548046,1,v,1.2855838000000404,correct,v
298,4F4K,299,2,60.82459869709008,45.54588027163985,1.771213300584379,48.49854663306439,1,v,1.5467513999997209,correct,v
299,4F4K,300,2,65.39102332162972,49.17530363421289,1.947644946439072,51.71710144949108,1,v,0.9031282999999348,correct,v
300,4F4K,301,1,43.73359359190493,60.77568639819334,1.2414342100565876,61.5003617557698,1,c,0.8669419000002563,correct,c
301,4F4K,302,2,30.595676457178364,49.218688276904885,0.9446621068172047,51.75531211759641,2,b,1.0549503000002005,correct,b
302,4F4K,303,1,53.14468756433658,40.69275793539858,1.5097823930044547,44.1645508124516,2,n,3.022736999999779,correct,n
303,4F4K,304,2,39.48374253292622,24.28452134939679,1.1364327207018654,30.179261176384944,1,b,1.1087029000000257,incorrect,v
304,4F4K,305,2,35.29773604855113,46.28464150561756,1.0416943874374602,49.15652793401764,2,b,1.0003770000002987,correct,b
305,4F4K,306,2,59.973601374329846,47.29412388901133,1.7401456218785083,50.05362655826273,1,v,0.7871060000002217,correct,v
306,4F4K,307,1,49.01225604419081,65.32990556206161,1.3854625183213298,64.98576364573246,1,c,5.0,correct,c
307,4F4K,308,2,54.32621913160797,44.35122034837792,1.5473360704177008,47.43262603657538,1,v,1.1520695000003798,correct,v
308,4F4K,309,1,69.96020516239446,53.47994001720281,2.1417738514517786,55.46276500256059,2,c,1.9826422000001003,incorrect,n
309,4F4K,310,1,51.706681713174405,35.53314164379045,1.4653044532675945,39.59457522447782,2,n,1.393921599999885,correct,n
310,4F4K,311,2,37.30119305550073,49.32880799257487,1.086008798662757,51.85226449746801,2,b,1.7589535000001888,correct,b
311,4F4K,312,1,50.17958636013335,35.126635010279415,1.419504665513645,39.23869687592357,2,n,1.2741203000000496,correct,n
312,4F4K,313,1,45.61401742241902,53.38481286863241,1.2909387237344132,55.3811602148372,1,c,2.890217399999983,correct,c
313,4F4K,314,2,54.39085607549953,32.77678900537356,1.5494172237430393,37.19886365144722,1,v,1.8742975000000115,correct,v
314,4F4K,315,1,53.3299080920118,40.89287933337229,1.515608612092152,44.34312139416909,2,c,1.6133121000002575,incorrect,n
315,4F4K,316,2,71.29587596323782,53.65084428538427,2.2020943432398843,55.60922130215484,1,v,1.1656512999998085,correct,v
316,4F4K,317,1,63.57992516655449,50.51492463956286,1.875659246055043,52.89318404644851,2,c,1.6096716000001834,incorrect,n
317,4F4K,318,2,70.53438606291331,52.98517697020337,2.167499381674213,55.03767709591272,1,v,1.200627700000041,correct,v
318,4F4K,319,2,60.343915071552665,50.01298131512964,1.7535972635836194,52.45346696032289,1,b,2.0260097999998834,incorrect,v
319,4F4K,320,2,20.178813640077,33.82112882612468,0.7606814922943859,38.101528847804936,2,b,2.549476700000014,correct,b
320,4F4K,321,2,45.446553563840574,58.224570524759166,1.2864510891886778,59.44460836388485,2,b,2.8110844999996516,correct,b
321,4F4K,322,1,72.26037669447823,60.17088034464346,2.2467059260342137,61.019145997234574,2,c,1.8924411999996664,incorrect,n
322,4F4K,323,1,48.86372131258261,62.69665567862173,1.3811898519338976,63.00140448763074,1,c,1.0306570999996438,correct,c
323,4F4K,324,2,37.912875151251946,49.20568316783944,1.099910590327556,51.74385877934949,2,b,2.2155939999997827,correct,b
324,4F4K,325,1,51.32468176767176,37.016292834140366,1.4537109650124111,40.89926947561682,2,n,2.434010699999817,correct,n
325,4F4K,326,1,24.923329712214795,45.03727508894522,0.8395568306253438,48.04498883387105,1,n,1.648687400000199,incorrect,c
326,4F4K,327,1,52.2738056889234,37.504951647873,1.4826871010267566,41.33104208305101,2,n,0.7878584999998566,correct,n
327,4F4K,328,2,54.75418012569718,35.55506998222609,1.5611675749241416,39.61379493977802,1,v,1.2370599000000766,correct,v
328,4F4K,329,1,56.05122823906648,36.667324638324416,1.6038473619945797,40.59147018646868,2,n,2.47048070000028,correct,n
329,4F4K,330,2,28.338441825560288,38.0107895487079,0.9013462058288988,41.77885916988358,2,b,0.7211537000002863,correct,b
330,4F4K,331,1,38.855033791954746,29.55506537791066,1.1216721165386974,34.46135906009548,2,n,1.7579507999998896,correct,n
331,4F4K,332,1,78.44601782745367,61.99146847910103,2.5551013800218625,62.4553538261099,2,c,0.9277425000000221,incorrect,n
332,4F4K,333,1,57.98219989482727,42.69752371435895,1.6695577497239484,45.95509586868916,2,c,1.1217525000001842,incorrect,n
333,4F4K,334,1,29.65556668810376,41.669417799061904,0.9263742137707394,45.03646938252454,1,c,1.20669960000032,correct,c
334,4F4K,335,1,48.450579499966935,30.510501499506155,1.3693748156539114,35.26503466594392,2,n,1.0913399999999456,correct,n
335,4F4K,336,1,64.48881623210714,49.9947183180981,1.911446057760389,52.437445754320926,2,n,1.6436327999999776,correct,n
336,4F4K,337,1,45.62092759742435,38.83878157873193,1.2911242359846469,42.51356373459439,2,n,0.8364947999998549,correct,n
337,4F4K,338,1,53.841742989121535,37.55275984619134,1.5318258499971658,41.37333015247605,2,n,0.9700480000001335,correct,n
338,4F4K,339,2,63.36624087512077,71.59541442253236,1.867343356138229,69.31583797173991,2,v,1.3948602000000392,incorrect,b
339,4F4K,340,2,43.10258557939446,53.89314339715799,1.225251206514764,55.8165153450584,2,b,2.2080307000005632,correct,b
340,4F4K,341,2,41.43109283977881,55.4176644046715,1.183395886345321,57.11100115746881,2,b,0.8304860000007466,correct,b
341,4F4K,342,1,51.09275829508314,40.65013542406761,1.446717012662248,44.126525318442575,2,n,1.352358600000116,correct,n
342,4F4K,343,2,58.67234576753912,46.89030741497128,1.6936906269095124,49.69507882835706,1,v,2.8587773999997808,correct,v
343,4F4K,344,2,50.7921987431175,65.25127333133284,1.4377032859973804,64.92781411601561,2,v,1.52224760000081,incorrect,b
344,4F4K,345,1,48.23209329985489,67.63870193065884,1.3631674565050629,66.64914399175696,1,c,2.2627118999998856,correct,c
345,4F4K,346,2,48.11738490486051,58.99520800663626,1.3599197762025117,60.07262568590484,2,v,1.564923799999633,incorrect,b
346,4F4K,347,1,74.20429020680845,56.45370685596174,2.3393840207235046,57.980324760341766,2,n,1.1764323999996122,correct,n
347,4F4K,348,2,55.64533396484342,73.1550326097103,1.590367322373103,70.29816168035282,2,v,3.345083799999884,incorrect,b
348,4F4K,349,2,28.88902038563406,42.56090924615069,0.9117249815737244,45.83300744833771,2,b,0.8910614999995232,correct,b
349,4F4K,350,2,77.51344386883932,63.62857305550788,2.5060293583666997,63.713762974895054,1,v,1.0297299999992902,correct,v
350,4F4K,351,1,41.97279873808081,27.091949279714825,1.1968015610678042,32.42600205626282,2,n,1.1160326999997778,correct,n
351,4F4K,352,2,45.74822242511701,29.86975021425148,1.2945463969005415,34.725240675469244,1,b,1.2384415999995326,incorrect,v
352,4F4K,353,2,48.17968606455436,36.92740885180014,1.361682716009294,40.820826945235126,1,b,0.9821461999999883,incorrect,v
353,4F4K,354,2,55.68740314456746,68.6304769316602,1.5917591907845332,67.34013163716733,2,v,1.2921589000006861,incorrect,b
354,4F4K,355,1,65.41600327135886,54.24765296150499,1.948656900656592,56.11906515676144,2,n,2.6473243000000366,correct,n
355,4F4K,356,2,52.01294145807552,73.28785034371879,1.474666011349966,70.37993228757033,2,b,2.2277250999995886,correct,b
356,4F4K,357,2,42.43630407843765,26.48430298477728,1.2083924894189086,31.93271237309131,1,b,0.775804099999732,incorrect,v
357,4F4K,358,2,46.67623244743305,27.59803426477536,1.3197704065564757,32.839617938800146,1,v,1.2916693999995914,correct,v
358,4F4K,359,1,51.01642133708668,56.14988248098837,1.4444223412574415,57.726313165049845,1,c,3.0227387000004455,correct,c
359,4F4K,360,1,59.23394971080825,41.64790519924959,1.7135858727851137,45.01725379991459,2,n,1.2431244999997944,correct,n
360,4F4K,361,1,41.50400105223404,59.08494823989862,1.1851913742194755,60.14537539558549,1,c,3.5747872000001735,correct,c
361,4F4K,362,1,71.56059254906371,53.6842286475691,2.2142494744920564,55.63780672052132,2,n,1.7528839000005974,correct,n
362,4F4K,363,1,48.640048560092765,58.478503218215714,1.3747806554604776,59.652188659069786,1,c,1.0064101999996637,correct,c
363,4F4K,364,1,35.80211092360171,45.33903621069744,1.052677361412611,48.31413909109066,1,c,0.8546635000002425,correct,c
364,4F4K,365,1,57.45997352333514,44.48622328944232,1.651525454557266,47.55317022265711,2,n,1.540523900000153,correct,n
365,4F4K,366,1,64.23929016215602,49.84663079353751,1.9015537309996733,52.30747998980774,2,n,1.315953399999671,correct,n
366,4F4K,367,2,68.43726915824585,56.784050194521605,2.075009691569921,58.25561106087133,1,v,1.3586427000000185,correct,v
367,4F4K,368,1,72.17320081453914,62.43559040971538,2.242636850914413,62.79994383666597,2,n,2.458327299999837,correct,n
368,4F4K,369,2,24.88146222084168,40.7655089930708,0.8388262221299381,44.22946119958073,2,v,2.361172599999918,incorrect,b
369,4F4K,370,2,74.73230158228135,54.06772039566184,2.365211255140661,55.96561667911648,1,v,0.7328565000007075,correct,v
370,4F4K,371,2,38.83954486650664,55.31253329659391,1.1213109030235082,57.02230061976745,2,b,1.3523627000004126,correct,b
371,4F4K,372,2,26.55115997232899,45.51195237668159,0.8684621020954294,48.46830385902603,2,b,0.6291025999998965,correct,b
372,4F4K,373,1,40.91401435580642,53.72744421186809,1.1707397691438104,55.67479873511855,1,c,2.098065199999837,correct,c
373,4F4K,374,2,46.31958602838631,57.328678950885816,1.310018858942106,58.707374059249766,2,b,1.9712250999991738,correct,b
374,4F4K,375,2,48.20613143073231,41.13008929558945,1.3624317329559423,44.55485189471718,1,v,1.3697635999997146,correct,v
375,4F4K,376,2,20.103821906571344,35.858582133512755,0.7594962029476775,39.88004508153504,2,b,1.018435099999806,correct,b
376,4F4K,377,1,39.44315131921751,52.97257660414219,1.1354738960135238,55.02683025276194,1,n,1.5397523999999976,incorrect,c
377,4F4K,378,1,38.28411338123978,53.24998187892336,1.1084344085361657,55.26539185114116,1,c,1.8682576000001063,correct,c
378,4F4K,379,1,62.40050043420017,43.551430026728426,1.830217381831951,46.71818566177046,2,n,1.0792926000003717,correct,n
379,4F4K,380,1,47.37063384276071,29.754086322001296,1.3389657105429793,34.62815450505878,2,c,1.4312534999999116,incorrect,n
380,4F4K,381,2,58.928259859566566,45.96248495752077,1.7027277683764384,48.86973071662673,1,v,1.328077299999677,correct,v
381,4F4K,382,1,59.97164085905979,40.221949943358375,1.7400746814698962,43.74467341780343,2,n,1.2544039999993402,correct,n
382,4F4K,383,1,52.62839142052764,42.10565927444266,1.493659954473067,45.426198672019645,2,n,0.8674964000001637,correct,n
383,4F4K,384,1,65.19655746096797,49.11453546263908,1.9397849550690205,51.66356754840135,2,n,0.5043564999996306,correct,n
384,4F4K,385,1,39.92728974338255,45.36231851644656,1.146962872994969,48.3348994779464,1,c,0.8985376000000542,correct,c
385,4F4K,386,1,59.43044386271185,69.49826431336923,1.7206018760071438,67.93260404948404,1,n,0.6726382999995622,incorrect,c
386,4F4K,387,1,51.20390680060609,62.50341152433722,1.450064630814833,62.85235923293883,1,c,0.6786951999993107,correct,c
387,4F4K,388,1,43.76724837901303,47.69369051360878,1.2423033090517734,50.40794220493791,1,c,1.1279124000002412,correct,c
388,4F4K,389,2,34.96251675186114,52.61039813215059,1.0344583090330832,54.714621968214736,2,b,0.8900320999991891,correct,b
389,4F4K,390,2,63.829538091608725,43.70081015555433,1.8854202689119937,46.85165634509811,1,v,2.0744970000005196,correct,v
390,4F4K,391,1,46.81587864358593,35.319540832646695,1.3236084061995448,39.4074778551364,2,c,1.4679701999993995,incorrect,n
391,4F4K,392,1,54.77421001390372,39.501715737459776,1.5618179519785151,43.10310444243523,2,n,1.9654409000004307,correct,n
392,4F4K,393,2,58.50457202503804,45.738407010263984,1.6877920473903176,48.67012326766081,1,v,1.6982255000002624,correct,v
393,4F4K,394,1,31.274404030164405,41.83440083344005,0.9580893566042036,45.18384760925448,1,n,2.331833199999892,incorrect,c
394,4F4K,395,2,51.00368563904589,59.00291307015444,1.4440398635211422,60.07887512782713,2,v,1.1280705999997735,incorrect,b
395,4F4K,396,1,39.60665344027641,28.205448695376507,1.139340999159559,33.33926528018634,2,n,1.2066892000002554,correct,n
396,4F4K,397,2,45.65160764487793,26.010444421817727,1.2919482020347175,31.55063223869431,1,b,0.9940094000003228,incorrect,v
397,4F4K,398,2,57.67083983310312,45.35096902742861,1.6587830321803674,48.32477946459866,1,v,2.3854741999994076,correct,v
398,4F4K,399,2,39.42274430567509,59.96376973284699,1.1349921577095428,60.85345135548855,2,b,0.5087553000003027,correct,b
399,4F4K,400,1,42.23240303367382,30.010964810368648,1.2032797482823967,34.84392207643448,2,n,1.0127198000000135,correct,n
