,condition,trial,sub_task,x,y,xt,yt,cat,resp,rt,acc,correct_resp
0,2F4K,1,1,43.99973936073842,59.55447795299682,1.248323783166757,60.44694370182778,1,n,5.0,NA,c
1,2F4K,2,2,41.7583924999828,54.7916940226099,1.191477555527644,56.51953698598329,2,v,2.251960500000223,incorrect,b
2,2F4K,3,2,71.89568375005992,56.97216201202035,2.229732301316748,58.34261384240579,1,v,2.1691624000000047,correct,v
3,2F4K,4,2,65.06581280729732,46.19537276152688,1.9345183105706167,49.04485778069061,1,v,1.8802974999998696,correct,v
4,2F4K,5,2,65.14977901406641,44.97634950297972,1.9378989845815495,47.96272894500197,1,v,2.829300599999897,correct,v
5,2F4K,6,2,77.68394914184569,61.46321422088722,2.514930399749818,61.95871666558229,1,v,0.9153095000001485,correct,v
6,2F4K,7,1,41.27977847960344,53.12475357223446,1.1796781906071871,55.10136586190922,1,c,1.2916858000000957,correct,c
7,2F4K,8,1,63.06250124200416,52.66727109590655,1.855586219610712,54.70887439854589,2,c,0.4966233000000102,incorrect,n
8,2F4K,9,2,55.87373177064084,70.98539690852878,1.5979385763319909,68.80961246748667,2,v,1.7407195999999203,incorrect,b
9,2F4K,10,2,31.0457776057377,42.83935092468004,0.9535452635791196,46.06153077861642,2,v,1.9840554999998403,incorrect,b
10,2F4K,11,1,61.64587456393152,54.9395733555617,1.801721765054419,56.64437886535338,2,c,1.3623430000000099,incorrect,n
11,2F4K,12,2,46.180391086640185,55.890677138349936,1.306232521283501,57.443251438008986,2,v,1.7649810000000343,incorrect,b
12,2F4K,13,2,54.70061993736331,39.36328051198162,1.5594297880690364,42.97192820324054,1,v,1.0549453000000995,correct,v
13,2F4K,14,2,42.56102735736215,52.655284460014606,1.211530580584737,54.69857283558299,2,b,1.5032473000001119,correct,b
14,2F4K,15,1,71.17101705667903,49.70036930277827,2.1963843118958586,52.13446716299506,2,n,1.1575477999999748,correct,n
15,2F4K,16,1,72.8414428957742,54.126071750763984,2.27401738990261,55.955600246166505,2,n,1.1034485000000132,correct,n
16,2F4K,17,1,55.73905643717379,72.56052287947365,1.5934698178975688,69.8133757566533,1,c,0.6907665999999608,correct,c
17,2F4K,18,2,33.290719844671514,20.948558997843666,0.9991142699050852,27.68040215779073,1,b,0.8728203000000576,incorrect,v
18,2F4K,19,1,51.56685228338536,33.9261337035212,1.461050017882731,38.203697957477445,2,c,2.8224239999999554,incorrect,n
19,2F4K,20,2,50.893594013412034,71.8265447736861,1.4407378171763947,69.35068940869661,2,b,2.025966500000095,correct,b
20,2F4K,21,1,46.37216041482343,68.91441065260842,1.31145182497238,67.42964610379094,1,c,1.9166569999999865,correct,c
21,2F4K,22,2,45.43883530458774,57.42977171971691,1.286244634616129,58.72009752004696,2,v,1.8367149000000609,incorrect,b
22,2F4K,23,2,37.65647801639813,51.5079304048324,1.0940618810668363,53.708532660018825,2,v,2.4400909000000865,incorrect,b
23,2F4K,24,2,45.96271933585741,59.78796664774579,1.3003334076333084,60.63396952506046,2,b,1.1960200999999415,correct,b
24,2F4K,25,1,64.47825710612369,53.99945430657153,1.911026405994004,55.84796325139303,2,c,1.5880839999999807,incorrect,n
25,2F4K,26,2,60.129786692484814,48.20136215471521,1.745806423731705,50.81809842936173,1,v,1.6314833999999792,correct,v
26,2F4K,27,1,61.94173742000738,40.07747808704392,1.812840657387452,43.60539183584455,2,n,1.2067713000001277,correct,n
27,2F4K,28,1,60.342912830433306,48.60643936445348,1.7535607172119947,51.17466926350592,2,n,0.8621780999999373,correct,n
28,2F4K,29,2,58.701478419213736,42.070619673142566,1.6947169695434972,45.37730783597458,1,v,2.5736517999998796,correct,v
29,2F4K,30,2,56.872267304690446,39.11057512043191,1.6314649792784284,42.74805115869861,1,v,0.8212321000000884,correct,v
30,2F4K,31,1,61.42036058699385,55.16813646325872,1.7932924942720956,56.83700693607849,2,n,1.0321182999998655,correct,n
31,2F4K,32,2,62.05711545691487,52.066823991134,1.8171952805855376,54.19176002960216,1,v,0.6232081999999082,correct,v
32,2F4K,33,2,59.71053772774245,46.888244701663815,1.7306525704050704,49.658575224582485,1,v,0.6837608000000728,correct,v
33,2F4K,34,2,51.24502486205044,68.78087552264506,1.451305004049681,67.3383987671094,2,b,1.357795299999907,correct,b
34,2F4K,35,1,38.9165864124362,52.69185664785651,1.1231087208122872,54.73000093040724,1,c,2.1063094000001,correct,c
35,2F4K,36,1,42.70342776127436,33.763931271734585,1.2151234007387528,38.06353000679554,2,n,0.763638599999922,correct,n
36,2F4K,37,1,39.88011336435659,59.49266950101334,1.145838248147217,60.39734032005415,1,c,0.6666854000000058,correct,c
37,2F4K,38,2,49.995427816370885,34.24699583325695,1.4140791111576545,38.48141016688956,1,b,2.622146100000009,incorrect,v
38,2F4K,39,2,36.268000756407545,49.06104534967915,1.0629251612114965,51.57411642496273,2,b,1.1170677000000069,correct,b
39,2F4K,40,2,49.60715744819216,37.71300560859261,1.4027080070844349,41.512970599818544,1,v,0.7031500000000506,correct,v
40,2F4K,41,1,55.27678920275712,43.92996622357204,1.578225851008064,47.03219395950039,2,n,3.0345573999998123,correct,n
41,2F4K,42,2,55.63041538685063,37.37694354599485,1.5898740301984329,41.21687588620756,1,v,0.8242649999999685,correct,v
42,2F4K,43,2,49.28213879554693,33.48771859278711,1.393259667398859,37.82519114219025,1,v,0.6360940000001847,correct,v
43,2F4K,44,1,59.86531995576137,47.42141856581766,1.736231832970418,50.1300039507065,2,c,2.0322865999999067,incorrect,n
44,2F4K,45,1,42.09261068308873,49.82849684992277,1.1997870131050343,52.2465578364838,1,c,1.2127508000000944,correct,c
45,2F4K,46,1,57.16354931218257,42.90074600160936,1.6413768142771077,46.11618071832056,2,n,0.6051069000000098,correct,n
46,2F4K,47,1,46.86117685551367,60.53019059695503,1.324855766304401,61.22467722308407,1,c,2.288406299999906,correct,c
47,2F4K,48,2,55.86749783924517,43.19610751208279,1.597731447447172,46.37908837240309,1,v,0.8303630999998859,correct,v
48,2F4K,49,1,54.188604541965255,49.53532976695463,1.5429145197994625,51.98997889576487,2,n,1.7649739999999383,correct,n
49,2F4K,50,1,61.75949079999967,42.38678017218084,1.8059835150343624,45.65869255930066,2,n,0.5515866000000642,correct,n
50,2F4K,51,1,55.89934519897395,70.65218759032274,1.598789891106544,68.59212362765352,1,c,0.6179162999999335,correct,c
51,2F4K,52,2,63.066484344385,50.66896650034754,1.8557399172898248,52.979957314846345,1,v,2.2701689000000442,correct,v
52,2F4K,53,2,62.99637757994056,54.8527097848252,1.8530365364941184,56.57106742814148,1,v,0.5526899999999841,correct,v
53,2F4K,54,2,55.52050961413951,35.40116115587796,1.5862446392174745,39.48488070839584,1,b,0.5755100000001221,incorrect,v
54,2F4K,55,1,36.34408913509196,49.58719273605497,1.0646082667615857,52.03539638241253,1,n,0.7942175999999108,incorrect,c
55,2F4K,56,1,41.44712324206216,56.92771539025167,1.1837904286513743,58.30585032018355,1,c,0.7031827000000703,correct,c
56,2F4K,57,2,41.26851972718266,62.849635631401966,1.1794020376501524,63.03102973009344,2,b,1.947101999999859,correct,b
57,2F4K,58,2,53.77920238749798,60.821592438114585,1.5298350125724318,61.45496921597038,2,b,1.0731008000000202,correct,b
58,2F4K,59,2,27.440427972360908,41.04938662892396,0.8846709402098527,44.4688531808599,2,b,0.7939440000000104,correct,b
59,2F4K,60,2,50.0424718442048,66.31912024975604,1.4154631152146426,65.60925612175924,2,b,1.0913485999999466,correct,b
60,2F4K,61,2,61.19472986923955,52.49319888588516,1.784898326490067,54.55918584363367,1,v,0.7383641999999782,correct,v
61,2F4K,62,1,68.88143974655078,58.15433459969448,2.0942638178761235,59.31387503694024,2,c,0.8244855000000371,incorrect,n
62,2F4K,63,2,40.25683206356926,52.66942368630198,1.154849588092992,54.71072428456234,2,b,2.0563154999999824,correct,b
63,2F4K,64,2,54.71102076044333,47.03172838490545,1.55976709651506,49.78551890741994,1,v,3.344271800000115,correct,v
64,2F4K,65,1,33.73141357924918,48.04405825050979,1.0083122021027568,50.67947722231994,1,c,1.2058997999999974,correct,c
65,2F4K,66,1,47.86923352842216,64.32791507497495,1.3529204431318005,64.14867682616939,1,n,2.439311699999962,incorrect,c
66,2F4K,67,2,46.46875247974207,65.36199228495869,1.314088622225499,64.91382692406428,2,b,1.8635948000001008,correct,b
67,2F4K,68,1,48.068879558927655,65.00570297483205,1.358548797821693,64.65178911910887,1,c,2.9082621000000017,correct,c
68,2F4K,69,2,50.131266330311696,29.350829914989877,1.4180790823249394,34.31710069307192,1,v,3.155369500000006,correct,v
69,2F4K,70,1,42.42423747316723,52.68528034854365,1.20808932002595,54.72435024093616,1,c,2.6479512000000796,correct,c
70,2F4K,71,2,34.451220690579,44.98307234022612,1.0235181038041044,47.96870344031628,2,b,2.1894729000000552,correct,b
71,2F4K,72,1,45.44745881224474,33.825883953444205,1.2864753057151814,38.11704887865892,2,c,2.2512267000001884,incorrect,n
72,2F4K,73,2,53.69619598669527,75.34502007082531,1.5271966885144612,71.48583508886577,2,b,2.3150993000001563,correct,b
73,2F4K,74,2,59.0736280471941,50.60856308114956,1.7078826402886818,52.92736184449666,1,b,2.2802452000000812,incorrect,v
74,2F4K,75,2,42.91811747378598,57.864262990269054,1.2205602603138674,59.07674928849355,2,b,4.696260799999891,correct,b
75,2F4K,76,1,67.20240670760737,44.24577889296875,2.0224053726265523,47.31315534994839,2,n,1.4190523999998277,correct,n
76,2F4K,77,1,22.521785455300467,39.07922707745695,0.798660110071915,42.72028976751395,1,c,1.6002814999999373,correct,c
77,2F4K,78,2,39.794636775401045,51.30766195354192,1.143803403278182,53.53495338386269,2,b,1.6452097000001231,correct,b
78,2F4K,79,2,46.99109649942049,52.96125171813118,1.3284398398705473,54.96124480296337,2,b,0.789218000000119,correct,b
79,2F4K,80,2,37.10805746469798,52.60139771975239,1.0816559800512402,54.652250433577095,2,b,0.6800184999999601,correct,b
80,2F4K,81,2,45.23747901465466,62.42709359943117,1.2808702765794313,62.706623103982,2,b,2.3367591999999604,correct,b
81,2F4K,82,2,44.910324708941374,56.68809045208271,1.2721861110594266,58.10734909292624,2,b,0.773442599999953,correct,b
82,2F4K,83,1,41.35658705887869,54.600008514301045,1.1815638657219163,56.35746872119447,1,c,1.4667475000001104,correct,c
83,2F4K,84,2,50.35375578072669,72.65699938036603,1.4246550794889865,69.87352895083997,2,b,3.62813210000013,correct,b
84,2F4K,85,1,56.80848973291214,68.25699633572569,1.6293027362819263,66.97783754734263,1,n,4.92686730000014,incorrect,c
85,2F4K,86,2,40.278584619618,47.69060263765321,1.1553720813164494,50.36770451454695,2,b,2.7556864000000587,correct,b
86,2F4K,87,1,53.68673440073808,42.84207658862248,1.5268962449498236,46.06395698913478,2,n,2.758042800000112,correct,n
87,2F4K,88,2,47.48941451246917,63.8243481655261,1.3422770095528518,63.77103949806839,2,b,2.2959536000000753,correct,b
88,2F4K,89,2,50.03185784341208,42.07723173836138,1.4151507400757837,45.38319216624874,1,b,1.061012299999902,incorrect,v
89,2F4K,90,2,50.40143604373548,35.975123427191505,1.4260683015378484,39.98632371165592,1,v,0.6422001000000819,correct,v
90,2F4K,91,1,47.929166338824096,67.52615798259556,1.354607595360653,66.46805394546081,1,n,1.2491116999999576,incorrect,c
91,2F4K,92,1,37.74660005054559,45.0147022047237,1.0961141137192256,47.996811644302966,1,c,2.4704341000001477,correct,c
92,2F4K,93,1,32.58120586745003,43.57770059607858,0.9844816194886484,46.71872205000675,1,c,1.1717227999999977,correct,c
93,2F4K,94,2,43.92723836269332,58.4656595638912,1.2464432083669117,59.56748370611569,2,b,2.4151425000000017,correct,b
94,2F4K,95,2,63.0679181777101,48.13187219756645,1.8557952483472195,50.75687197071454,1,v,0.8306287000000339,correct,v
95,2F4K,96,1,56.5718499065941,74.6653728897764,1.6213049785670364,71.08996036996187,1,n,2.8831912000000557,incorrect,c
96,2F4K,97,2,40.19279888046036,57.01653378441886,1.1533128915146176,58.37929806433981,2,b,0.8781392000000778,correct,b
97,2F4K,98,1,56.95900966890152,38.229634592302105,1.6344104008698528,41.968875610660376,2,n,1.3825996000000487,correct,n
98,2F4K,99,1,51.432360466278354,60.82636705905894,1.456969638810224,61.45873479248471,1,n,0.6728570000000218,incorrect,c
99,2F4K,100,1,39.6937633216784,19.729599211760096,1.1414066706882622,26.78705937926108,2,n,2.907408100000339,correct,n
100,2F4K,101,2,51.40687475252078,33.30579733864786,1.4561977069889342,37.66846191681724,1,v,3.1258069000000432,correct,v
101,2F4K,102,2,55.34295919347636,41.863402033071736,1.580398931253318,45.19290908055533,1,v,0.6604268000000957,correct,v
102,2F4K,103,2,52.60805753808776,60.830225697668986,1.4930285219484722,61.461777782066285,2,b,1.7164941999999428,correct,b
103,2F4K,104,2,62.74375820643415,44.89299127690081,1.8433279241342837,47.88864455212181,1,v,1.309779400000025,correct,v
104,2F4K,105,2,42.7460434050045,35.17397681835165,1.2162006807369323,39.28682732190428,1,b,0.623088700000153,incorrect,v
105,2F4K,106,1,37.4958889398152,50.59858886113288,1.0904145123136113,52.918675186248095,1,c,1.302837499999896,correct,c
106,2F4K,107,2,53.35950890236155,40.66774015019652,1.516541804181052,44.12962785373159,1,v,1.7953084999999191,correct,v
107,2F4K,108,1,68.48869132855135,53.86771946570696,2.077229673617998,55.73585614163066,2,n,4.9631319999998595,correct,n
108,2F4K,109,1,56.10614442449388,37.48569282746432,1.6056799215926645,41.31264954499811,2,c,0.8667700000000877,incorrect,n
109,2F4K,110,1,43.783172767673065,49.78068068563985,1.242714751441946,52.204734986737016,1,c,1.9533274999998866,correct,c
110,2F4K,111,2,49.6360568368982,60.10837627281048,1.4035512120367373,60.88969087705343,2,b,3.6538595000001806,correct,b
111,2F4K,112,2,61.67070049886159,50.982622462694266,1.8026521274719376,53.25277362354304,1,v,1.0731583000001592,correct,v
112,2F4K,113,1,52.562342349846745,67.91111121736108,1.491609892652474,66.73754722963395,1,c,2.378512700000101,correct,c
113,2F4K,114,1,66.80755893255828,46.52986323333678,2.005868136566467,49.341277358918354,2,n,1.573586499999692,correct,n
114,2F4K,115,2,71.18822605046692,58.83156630017972,2.1971704307913,59.86435277952408,1,v,1.7892362999996294,correct,v
115,2F4K,116,1,56.128613782607054,41.050093361301855,1.6064303302256933,44.46948152593401,2,c,1.1580926000001455,incorrect,n
116,2F4K,117,1,53.64613011914803,64.11969987302518,1.52560756598354,63.99292406294119,1,n,5.0,incorrect,c
117,2F4K,118,1,38.43179671731119,52.731876633956325,1.1118436301745231,54.764382303713305,1,c,1.5405697999999575,correct,c
118,2F4K,119,2,43.94599267399501,53.88939339194242,1.246929397243827,55.7543091199361,2,b,2.1488342000002376,correct,b
119,2F4K,120,2,33.10217921451584,46.44292489725553,0.9952048189942132,49.264258548917,2,b,0.9942077000000609,correct,b
120,2F4K,121,2,28.760453513015683,41.03804823766366,0.9092907648464634,44.45877246813754,2,b,0.8908304000001408,correct,b
121,2F4K,122,1,57.11887601619722,46.463845543818486,1.6398527569558874,49.282793789334605,2,n,1.309848200000033,correct,n
122,2F4K,123,2,55.64776384631195,32.666592854378855,1.5904476824271785,37.11938969552018,1,v,1.3584115000003294,correct,v
123,2F4K,124,1,43.09446305163941,53.02316578270628,1.2250442751212998,55.01432544060823,1,n,0.7271473000000697,incorrect,c
124,2F4K,125,1,51.97258843149578,34.40925162961738,1.473429112173144,38.62206176837972,2,c,1.3887167999996564,incorrect,n
125,2F4K,126,2,43.75070085423706,53.12789269979609,1.241875910859999,55.10405440007907,2,b,1.054895000000215,correct,b
126,2F4K,127,1,56.41221962695033,49.22861052209246,1.6159321114038063,51.72114656860499,2,n,1.1817126000000826,correct,n
127,2F4K,128,2,59.907458717932506,37.87617621979079,1.7377538744690997,41.656871388885136,1,v,0.6899435999998786,correct,v
128,2F4K,129,2,51.69449519786364,41.49755777659402,1.464933175369053,44.867422319194254,1,v,3.071211200000107,correct,v
129,2F4K,130,1,39.52282725675655,48.36688107727406,1.137356724997188,50.96386742147816,1,c,1.291595099999995,correct,c
130,2F4K,131,1,43.581705994554085,37.868035717096674,1.2375194326186332,41.64969020994732,2,c,0.7326582000000599,incorrect,n
131,2F4K,132,1,63.91699338177646,78.10542083173223,1.8888521792443853,73.0088395668682,1,c,0.6668742000001657,correct,c
132,2F4K,133,1,37.680970445789285,52.20581566645519,1.094619234994903,54.311654472685134,1,n,0.9578105000000505,incorrect,c
133,2F4K,134,1,36.52073549429294,47.32254922632428,1.0685260384423874,50.042644334084926,1,n,2.227694899999733,incorrect,c
134,2F4K,135,1,58.29596989943276,41.621809917455245,1.680486667757417,44.97795624262083,2,n,1.322394599999825,correct,n
135,2F4K,136,1,56.948897738392986,71.66828746337356,1.634066766772596,69.24976585928802,1,n,3.313151800000014,incorrect,c
136,2F4K,137,2,46.277641137062965,58.82788338132619,1.3088767331194056,59.86137129708271,2,b,1.4190588000001298,correct,b
137,2F4K,138,2,42.46918133758233,57.229778112358645,1.2092189055809794,58.5553531114324,2,b,0.6483668999999281,correct,b
138,2F4K,139,2,45.976031863941024,36.349672683912665,1.300693423868945,40.31433800998945,1,v,0.660406200000125,correct,v
139,2F4K,140,2,43.06416075390878,61.10370321978219,1.224272595128512,61.67702667400798,2,b,0.5512026000001242,correct,b
140,2F4K,141,1,56.951284469470856,72.56084294332238,1.6341478686258994,69.81357557328445,1,n,1.5282996000000821,incorrect,c
141,2F4K,142,1,40.13958870277608,49.1185159173542,1.1520374858965057,51.62455671366372,1,c,0.4905398000000787,correct,c
142,2F4K,143,1,53.50288113289714,43.18147332542088,1.5210698800502902,46.36606247852134,2,c,0.7995618999998442,incorrect,n
143,2F4K,144,1,55.19602209316966,42.4556195823521,1.5755774377044025,45.71996475721689,2,n,1.4372434000001704,correct,n
144,2F4K,145,2,51.8963738784058,39.70130270912762,1.4710958165198351,43.271611465783074,1,v,5.0,correct,v
145,2F4K,146,2,42.94957536193934,64.70618567118207,1.2213589490504122,64.43020287067264,2,b,0.8549984999999651,correct,b
146,2F4K,147,1,37.07502412681031,48.16787412595138,1.0809132360050018,50.788594729334726,1,c,1.2976616000000831,correct,c
147,2F4K,148,2,46.82217325346373,35.0293017851171,1.323781668259963,39.16083480749526,1,v,2.6716882999999143,correct,v
148,2F4K,149,1,63.08280999320667,48.51616521759517,1.8563700151363336,51.09525591721868,2,n,1.3537708999997449,correct,n
149,2F4K,150,2,66.71282558494931,42.17513093389106,2.0019206170464106,45.4703188798354,1,v,1.3149210999999923,correct,v
150,2F4K,151,1,47.8395684041056,65.16436062870096,1.3520861259199592,64.76868512542798,1,c,2.221589899999799,correct,c
151,2F4K,152,1,43.24981891301321,34.31383585327774,1.229008222080095,38.53933317652929,2,n,1.0199321999998574,correct,n
152,2F4K,153,2,59.39117332347755,45.83966606733934,1.7191973924455315,48.72937404427039,1,v,2.5796669000001202,correct,v
153,2F4K,154,2,65.3297828386346,51.32239385728076,1.945166276998636,53.54772942820791,1,v,2.7389216999999917,correct,v
154,2F4K,155,1,73.99074178903496,60.61520493884764,2.3290187492150984,61.291959147478494,2,n,1.9288172999999915,correct,n
155,2F4K,156,2,50.5291283680435,40.23873274668233,1.42985995423403,43.74855248911524,1,v,2.5128765999997995,correct,v
156,2F4K,157,1,72.17455189085308,53.998132332781246,2.242699858327786,55.84683884886765,2,n,1.408031199999641,correct,n
157,2F4K,158,1,39.95512875589788,54.28566769308559,1.1476270374265298,56.09110935880365,1,c,1.2786096999998335,correct,c
158,2F4K,159,1,54.99755772983551,65.91622277846591,1.5690885066995404,65.31804657032332,1,n,2.0138191999999435,incorrect,c
159,2F4K,160,2,70.81504809704154,53.54017561082631,2.1801863337172067,55.45659370507996,1,v,0.9153347999999824,correct,v
160,2F4K,161,1,63.54269736607625,54.33359175583588,1.8742078031852647,56.131764762606295,2,n,3.6058634000000893,correct,n
161,2F4K,162,1,31.608892419729024,49.20905527556339,0.9647765675019586,51.70399364990881,1,c,1.0359373000001142,correct,c
162,2F4K,163,2,29.53202745837168,42.59451923926091,0.9239974810410037,45.84359929928411,2,b,1.479765000000043,correct,b
163,2F4K,164,2,43.61541350534408,26.037335782577088,1.2383871486849751,31.609621798814924,1,v,2.167014599999675,correct,v
164,2F4K,165,2,52.01141554548478,59.94599019990044,1.4746192202609902,60.76022453720933,2,b,0.7334607000002507,correct,b
165,2F4K,166,1,39.79372517867517,48.67962548355261,1.1437817214079602,51.23902842348879,1,c,1.170124499999929,correct,c
166,2F4K,167,2,40.979738202258616,23.68020905813474,1.172340900143073,29.751761442865156,1,b,1.2616484999998647,incorrect,v
167,2F4K,168,1,63.4325703878208,75.60764616276369,1.869920728964132,71.636628452813,1,n,2.239718900000298,incorrect,c
168,2F4K,169,2,32.91547333204685,44.39273503318864,0.9913484871462828,47.4438651059156,2,b,1.5586803999999574,correct,b
169,2F4K,170,1,62.2587026680482,46.14918721197864,1.824828748202912,49.00390956339732,2,n,1.091294199999993,correct,n
170,2F4K,171,2,54.82020257535875,65.05309867726777,1.5633123711046286,64.68674441641491,2,v,2.5493790000000445,incorrect,b
171,2F4K,172,2,49.24159918019808,58.06973413583903,1.3920856477571173,59.24479850029567,2,b,0.6998038000001543,correct,b
172,2F4K,173,2,63.008727674246856,48.04065588564839,1.853512481462117,50.676478032180185,1,v,1.1643612000002577,correct,v
173,2F4K,174,2,46.840728647749714,62.95044145573769,1.3242925460873298,63.10810496692461,2,b,1.7711000000003878,correct,b
174,2F4K,175,1,47.43006358084131,63.01311627358078,1.340621436155586,63.15596319772754,1,c,2.6030526999998074,correct,c
175,2F4K,176,2,36.13328130496829,53.30095578240647,1.0599516366355834,55.252176275233104,2,v,3.121351499999946,incorrect,b
176,2F4K,177,2,66.66742502158023,46.88107959419774,2.000031539342892,49.65223465839974,1,v,1.0551460000001498,correct,v
177,2F4K,178,1,49.56968357759604,65.06685063823352,1.4016153765219377,64.69688118976039,1,n,2.3368877999996585,incorrect,c
178,2F4K,179,2,31.55419190670903,44.579302953641886,0.9636797916295337,47.60977645934668,2,b,1.5586335999996663,correct,b
179,2F4K,180,1,35.42140050775647,42.94871600456951,1.0443765831437943,46.15888045656596,1,c,1.6010725999999522,correct,c
180,2F4K,181,2,34.54582508119307,55.76696590854961,1.0255335944577728,57.33974897605291,2,v,2.543291599999975,incorrect,b
181,2F4K,182,2,75.52360292959722,64.01503347715364,2.404451936438996,63.91441986887478,1,b,0.8561070000000655,incorrect,v
182,2F4K,183,2,53.53071926563873,44.871323531685576,1.5219506483828835,47.86938589870918,1,b,1.6427230999997846,incorrect,v
183,2F4K,184,1,70.42479626355765,59.550832308176325,2.162565586946653,60.44401904054003,2,n,1.649702800000341,correct,n
184,2F4K,185,2,66.31353372817644,45.87460441872656,1.9853674046973044,48.76037281033666,1,v,1.9540953000000627,correct,v
185,2F4K,186,1,51.48474855159006,62.28810737304778,1.458557696667347,62.59944997276717,1,c,3.241198799999893,correct,c
186,2F4K,187,2,46.32889374722583,57.54417670763372,1.3102724357606437,58.81417520471292,2,b,1.6075496000003113,correct,b
187,2F4K,188,2,39.16644441548726,58.1863535544331,1.1289591872150904,59.340000865473705,2,b,1.1702088000001822,correct,b
188,2F4K,189,1,48.21056727973131,41.45933150338404,1.3625574106634324,44.833419125798606,2,c,1.3878630000003795,incorrect,n
189,2F4K,190,1,42.51182267936876,58.901663761440446,1.2102915976396595,59.92107406625741,1,c,2.264192500000263,correct,c
190,2F4K,191,1,65.26170534375946,49.206597431013634,1.942414586087689,51.70183763722641,2,n,1.4812560000000303,correct,n
191,2F4K,192,1,30.41758379791655,47.04130772136865,0.9411701785863414,49.79399204768514,1,c,2.9802583999999115,correct,c
192,2F4K,193,1,71.24548705828971,51.55425251820941,2.1997881799814465,53.74865029269591,2,n,0.9274679999998625,correct,n
193,2F4K,194,2,56.490062388002976,47.03010167547328,1.618549930318314,49.78408002161059,1,v,3.095577300000059,correct,v
194,2F4K,195,1,51.57923820877187,65.81938657430666,1.4614263715813065,65.24772167111132,1,c,2.3733667000001333,correct,c
195,2F4K,196,1,37.281515909427554,24.47905059097536,1.0855645221839891,30.374481412548946,2,n,0.7590167999996993,correct,n
196,2F4K,197,1,43.78126315370821,66.5865746960746,1.2426654050812835,65.80132469606521,1,c,2.42190329999994,correct,c
197,2F4K,198,1,58.551817205914105,47.17592064977342,1.6894510096977224,49.913033910602095,2,c,1.8270112000000154,incorrect,n
198,2F4K,199,1,51.40093117325405,73.11489608403716,1.4560177418939253,70.15690329814872,1,c,1.783162899999752,correct,c
199,2F4K,200,2,47.67461650370733,56.78332384021823,1.347456309440649,58.18629878974594,2,b,1.1350357999999687,correct,b
200,2F4K,201,2,43.4078325471835,33.07875216966113,1.2330531404696312,37.47313950475804,1,v,1.000336999999945,correct,v
201,2F4K,202,2,38.014590335416045,58.47512287260256,1.102239481849614,59.5751779922801,2,b,0.9516991999998936,correct,b
202,2F4K,203,1,58.05786958233542,50.51779673303141,1.6721868783242,52.84829437529368,2,n,1.8134866999998849,correct,n
203,2F4K,204,1,58.28407417463538,76.76775588014499,1.6800710261822125,72.28801454362022,1,c,0.7514556999999513,correct,c
204,2F4K,205,1,59.35561846282943,54.86409037453939,1.7179267864389238,56.58067571628423,2,n,0.6486266000001706,correct,n
205,2F4K,206,1,39.13286960827694,51.51020715761642,1.128171258571063,53.71050473642392,1,c,0.527487000000292,correct,c
206,2F4K,207,2,38.73450991519921,55.304757395364994,1.1188644752106522,56.9519552264144,2,b,1.2065189999998438,correct,b
207,2F4K,208,1,41.473669870637735,51.93656422649788,1.18444408696468,54.07929504380114,1,c,3.5491948999997476,correct,c
208,2F4K,209,2,58.1304930270099,47.44039043954618,1.6747140592805718,50.14676398834307,1,v,2.0259707000000162,correct,v
209,2F4K,210,1,33.46864794455456,48.33153883187521,1.0028177506554168,50.93275028100347,1,c,1.2005552000000534,correct,c
210,2F4K,211,1,34.46275055934363,53.25016697700893,1.0237635287320894,55.20872736480848,1,c,1.1633968999999524,correct,c
211,2F4K,212,1,45.995524307904574,59.86534230885112,1.301220745971209,60.695822574831446,1,c,2.3066122999998697,correct,c
212,2F4K,213,1,46.0506275800842,28.71555852353096,1.302712591728758,33.790157999060824,2,n,0.7422704999999041,correct,n
213,2F4K,214,2,53.6514271494417,43.78618058818606,1.525775618850153,46.90425165868757,1,v,1.880977900000289,correct,v
214,2F4K,215,1,43.79568977896942,61.505750631530574,1.2430382522238437,61.99194868098966,1,c,1.7953379000000496,correct,c
215,2F4K,216,1,50.59761332155958,33.07337649635302,1.4318976749532195,37.46851876948466,2,n,0.5390566999999464,correct,n
216,2F4K,217,1,47.7190593400498,25.8412773588073,1.348702154031027,31.4527895814607,2,n,0.8303547000000435,correct,n
217,2F4K,218,2,51.96693606208816,67.04872138161674,1.4732559388557231,66.13083745052062,2,b,2.439359699999841,correct,b
218,2F4K,219,2,51.13472577026255,34.513251268034075,1.447980097908818,38.71228862802574,1,v,0.745655799999895,correct,v
219,2F4K,220,1,40.6897881877836,54.927506413857,1.1652937232930891,56.63419799006184,1,c,1.303864699999849,correct,c
220,2F4K,221,2,39.29916684522939,58.03420376434565,1.1320792887051272,59.21576762159004,2,v,0.8121440999998413,incorrect,b
221,2F4K,222,2,43.002439835388,29.367400154101382,1.222702309859753,34.33089169433022,1,v,0.774971700000151,correct,v
222,2F4K,223,2,39.01796566538622,54.39109669052705,1.1254788687555906,56.18052593192895,2,b,0.6062855999998646,correct,b
223,2F4K,224,1,31.24092813109867,49.95986383478733,0.9574226514215444,52.36140654427089,1,c,2.586644299999989,correct,c
224,2F4K,225,2,27.022232831741952,44.56562589565558,0.8770110862645173,47.59761496709849,2,v,1.3795321000002332,incorrect,b
225,2F4K,226,2,62.46708992515399,47.08585854016464,1.832753420099152,49.83339500947151,1,v,1.0185215999999855,correct,v
226,2F4K,227,1,31.29383485641747,46.68858358922593,0.9584765533883902,49.48184168916834,1,c,1.6610337000001891,correct,c
227,2F4K,228,2,69.92370370716301,51.69074037650107,2.140148805310077,53.86678737990277,1,v,1.788360300000022,correct,v
228,2F4K,229,2,61.603779121461216,73.00361237017091,1.8001453177673097,70.08835807673908,2,b,0.9517153000001599,correct,b
229,2F4K,230,2,43.00322446833127,53.28200573331388,1.2227222596130591,55.23596684033317,2,b,1.8621013000001767,correct,b
230,2F4K,231,2,44.75223934875868,59.47808412168339,1.2680109292879256,60.38562932464263,2,b,0.6846976000001632,correct,b
231,2F4K,232,1,55.674174585180296,74.84651508594742,1.5913213896307907,71.19626171819637,1,c,2.3186844000001656,correct,c
232,2F4K,233,2,41.77126049571564,28.781905147996596,1.191796416668622,33.84502672380523,1,b,0.7626427000000149,incorrect,v
233,2F4K,234,2,48.05406197218324,59.93035736894192,1.3581302621003406,60.74774617188937,2,b,2.573299499999848,correct,b
234,2F4K,235,2,44.882250568771816,37.420991217240825,1.2714436442084616,41.2556629701283,1,v,0.5056691999998293,correct,v
235,2F4K,236,2,50.96584059425944,74.03963664874789,1.4429039008887965,70.71836802506685,2,b,1.4433716000003187,correct,b
236,2F4K,237,2,52.56670424425044,44.9911312983636,1.4917451923465022,47.97586524690245,1,b,2.573622500000056,incorrect,v
237,2F4K,238,2,52.1487202507039,70.47320222880721,1.4788355266850313,68.47456915297253,2,b,2.173110500000348,correct,b
238,2F4K,239,2,66.43117882573766,51.46676159489412,1.9902302758913224,53.672868166071545,1,v,1.0184919999996964,correct,v
239,2F4K,240,1,29.685783489814323,41.51578260597133,0.926956475328174,44.88363419728756,1,c,3.417181199999959,correct,c
240,2F4K,241,1,47.73100283309077,33.67263769684879,1.3490371565395614,37.98470500050872,2,n,0.9151919999999336,correct,n
241,2F4K,242,1,51.07438563570463,68.85609470246897,1.4461644018606032,67.38983070712673,1,c,0.44195330000002286,correct,c
242,2F4K,243,1,61.938148132441015,71.78670155363328,1.8127053572007528,69.32531921239536,1,c,0.6786276000002545,correct,c
243,2F4K,244,1,37.26594828767489,49.7370525231927,1.0852131605522404,52.16656638315651,1,n,0.6352781999999024,incorrect,c
244,2F4K,245,1,50.80321797651267,33.791235107361246,1.4380327569417235,38.08711416044749,2,n,1.0002542000001995,correct,n
245,2F4K,246,2,47.55679601525672,33.091890321261275,1.3441590712379734,37.48443334160264,1,b,1.1884605000000192,incorrect,v
246,2F4K,247,2,44.67633787598666,57.15811598397009,1.2660111722620224,58.49623393389023,2,b,1.321961199999805,correct,b
247,2F4K,248,1,62.22766037766838,53.50103401059722,1.8236511898845515,55.42317279711613,2,n,2.603961899999831,correct,n
248,2F4K,249,1,69.25803907969923,49.6301897406788,2.110728724694323,52.07304098741975,2,c,2.0805688000000373,incorrect,n
249,2F4K,250,1,45.50948782443224,41.102943426786624,1.288135745589288,44.51647134936974,2,c,2.5918557999998484,incorrect,n
250,2F4K,251,1,64.81363569058894,46.94025468033074,1.924400488451324,49.70459603766376,2,n,2.8482279999998354,correct,n
251,2F4K,252,1,59.83859458498243,77.82617758175067,1.7352672102254425,72.86107198232914,1,c,0.7651071999998749,correct,c
252,2F4K,253,2,67.16031965110392,53.16585367854024,2.0206361868020304,55.13656138786226,1,v,1.0913038000003326,correct,v
253,2F4K,254,1,61.68312438219655,77.12325461260227,1.8031178981089573,72.48276902805367,1,n,2.319486599999891,incorrect,c
254,2F4K,255,2,53.7406638479699,41.21404988287492,1.5286095147125878,44.61526800825548,1,v,1.6025931999997738,correct,v
255,2F4K,256,1,46.535898786382965,29.956498391631246,1.3159247239197012,34.82267177809713,2,c,1.6465694000003168,incorrect,n
256,2F4K,257,2,52.38090679556736,43.68129786786,1.4859928805317797,46.81091776638313,1,b,3.1441094000001613,incorrect,v
257,2F4K,258,2,35.801722002795074,54.32680020881651,1.0526688480443367,56.12600430244941,2,b,0.8364325000002282,correct,b
258,2F4K,259,2,47.37803143887293,30.76329852363912,1.3391716977226549,35.50072882637455,1,v,0.5139634999995906,correct,v
259,2F4K,260,1,73.26599114721544,57.30913923950797,2.2941818217803136,58.620769939014906,2,n,2.482593299999735,correct,n
260,2F4K,261,2,60.5654360656593,41.76473270760136,1.7616936665905851,45.10511455587182,1,v,2.3369455999995807,correct,v
261,2F4K,262,2,73.76111906771355,55.76420227619401,2.3179244947544504,57.33743537350648,1,v,1.6496522000002187,correct,v
262,2F4K,263,2,69.37156880434216,53.65547812544968,2.115717586333042,55.55498397032755,1,v,0.8492762000000766,correct,v
263,2F4K,264,2,45.40277281180719,62.87603352310097,1.285280443318759,63.05122525749791,2,b,0.787957699999879,correct,b
264,2F4K,265,2,61.51870501662657,49.950205949279606,1.796963556594687,52.352965704968,1,v,1.510104500000125,correct,v
265,2F4K,266,1,50.84462707535384,65.80355235513804,1.4392715485883831,65.23621026639567,1,c,2.196418800000174,correct,c
266,2F4K,267,2,41.45958382160386,63.85769293923271,1.1840972008847883,63.79614541418501,2,b,1.2067575999999463,correct,b
267,2F4K,268,2,41.23979655832978,27.480791655753315,1.1786978129569807,32.776289334367966,1,v,2.4157922999997936,correct,v
268,2F4K,269,2,43.26013215086613,30.931704064966357,1.2292718206852171,35.64289773389023,1,b,2.1995434000000387,incorrect,v
269,2F4K,270,1,45.37607073218847,58.05618168949984,1.2845669841304914,59.23372658151654,1,c,3.132004600000073,correct,c
270,2F4K,271,1,49.30122950146255,33.31842327647574,1.393812873516965,37.67933300381036,2,n,0.6057951000002504,correct,n
271,2F4K,272,2,57.41976376799314,41.05088926183611,1.650145127930594,44.47018914976307,1,v,1.5283034000003681,correct,v
272,2F4K,273,1,63.81880035548779,48.08945168496737,1.884999329946356,50.71948791609292,2,n,1.715541999999914,correct,n
273,2F4K,274,2,60.93176463009454,42.241576709880505,1.77516476724618,45.529455630060006,1,v,1.2916118999996797,correct,v
274,2F4K,275,1,51.847366445702,33.9608576400326,1.4695974144764683,38.23372431760002,2,c,3.1744180000000597,incorrect,n
275,2F4K,276,1,68.44272531844263,61.57985672838642,2.07524513067349,62.0497955329879,2,n,4.562736700000187,correct,n
276,2F4K,277,1,40.184324734136105,54.59471886349114,1.153109678482003,56.352992493089886,1,c,0.733250599999792,correct,c
277,2F4K,278,2,47.06272683935603,39.33409550418365,1.3304200400836717,42.94606507165224,1,v,2.094198199999937,correct,v
278,2F4K,279,2,48.2193847792592,61.39817309313388,1.3628072649395482,61.90786280541862,2,b,0.5466239000002133,correct,b
279,2F4K,280,2,57.01754067260599,52.04148347622826,1.6364008822772662,54.16988902124721,1,v,1.6799620000001596,correct,v
280,2F4K,281,1,36.8252144066187,48.8644203589932,1.075312831856854,51.40144579503278,1,c,2.1303585999999086,correct,c
281,2F4K,282,2,79.4618598719551,62.28269639571387,2.60964903621291,62.595272904664434,1,v,1.2551499000001058,correct,v
282,2F4K,283,1,52.4010862692678,67.27777548696227,1.486616564243849,66.29302854902174,1,c,3.22301970000035,correct,c
283,2F4K,284,2,54.91744005207683,49.01639759116941,1.5664765811566288,51.53492129534408,1,b,2.8831648999998833,incorrect,v
284,2F4K,285,1,37.34111575496311,20.4944349901869,1.086910744047111,27.34525812097886,2,c,2.1065576000000874,incorrect,n
285,2F4K,286,1,21.16477318835916,38.51948979984546,0.7764383030925118,42.22501418698975,1,c,2.5493603999998413,correct,c
286,2F4K,287,1,56.2268386660435,71.28609634629294,1.609714864046503,69.00435515616562,1,c,0.8865010999998049,correct,c
287,2F4K,288,2,64.27161005343258,50.78120510940336,1.9028321439324716,53.07763919958804,1,v,0.8303855999997722,correct,v
288,2F4K,289,1,43.07581215452989,62.09759483125271,1.2245692528054268,62.45217362389219,1,c,1.6922797000001992,correct,c
289,2F4K,290,1,65.87781006063904,43.12472619475069,1.967459995781082,46.3155514363087,2,n,0.8062073999999484,correct,n
290,2F4K,291,2,45.35955824834182,25.392889191237654,1.2841259813598354,31.09563570515643,1,v,1.9834348999997928,correct,v
291,2F4K,292,2,57.414581806580586,43.516299112669984,1.6499673247058786,46.66407580585594,1,v,1.4070864000000256,correct,v
292,2F4K,293,2,44.30415161503527,35.46216160960131,1.256250829108524,39.53810145852073,1,v,0.539085200000045,correct,v
293,2F4K,294,1,57.32722529400864,34.988480117850806,1.6469728341128596,39.125303443218286,2,c,2.258114100000057,incorrect,n
294,2F4K,295,1,63.23762849480963,44.78963406253742,1.8623559692486809,47.796773521530575,2,n,1.4325603000002047,correct,n
295,2F4K,296,2,29.560036147639792,41.81737438541917,0.9245357963942672,45.151953539754345,2,b,0.9521933999999419,correct,b
296,2F4K,297,2,51.06027940520339,65.68374694009391,1.4457402594851336,65.1490015174587,2,b,1.9473220999998375,correct,b
297,2F4K,298,2,70.09694708111809,51.19833724146923,2.1478725840917128,53.44010663850968,1,v,1.079171999999744,correct,v
298,2F4K,299,2,42.843117363798704,28.431021505028585,1.2186581783535355,33.55528905326163,1,b,1.3826226999999562,incorrect,v
299,2F4K,300,1,63.11420733914726,48.66040232575458,1.8575824152813845,51.22212568963938,2,n,2.356092499999704,correct,n
300,2F4K,301,1,66.50942624624088,53.43705813201298,1.9934712341979608,55.36852502302095,2,n,1.1247714999999516,correct,n
301,2F4K,302,2,40.21681752829667,57.39888478813084,1.153889061825896,58.694678090862304,2,b,0.8485542000003079,correct,b
302,2F4K,303,2,54.22575994363879,42.3464455915006,1.544107074549665,45.62279243382362,1,b,3.633388300000206,incorrect,v
303,2F4K,304,1,46.57914065602498,58.82905503670907,1.3171085216330307,59.86231981746866,1,c,1.8135378000001765,correct,c
304,2F4K,305,2,38.99084330007517,56.91331145552853,1.1248442846963664,58.293932536190674,2,b,1.3876791000002413,correct,b
305,2F4K,306,1,38.0397834169957,43.19447826330104,1.102817069282184,46.377638179853776,1,c,1.9045372000000498,correct,c
306,2F4K,307,1,39.30446143388763,56.13947047137539,1.1322039350918256,57.65102291552628,1,c,1.1937723999999434,correct,c
307,2F4K,308,1,45.42634813037528,32.61458489978266,1.2859106872067905,37.07482917965221,2,n,0.6725754999997662,correct,n
308,2F4K,309,2,64.32023836957299,47.21871689576214,1.9047572560322164,49.950869343536766,1,v,1.6242551000000276,correct,v
309,2F4K,310,1,44.100730095374125,35.28061275358499,1.2509480717457673,39.37975869041359,2,n,2.6646209000000454,correct,n
310,2F4K,311,1,34.62212890703704,26.987462501345707,1.027162093520149,32.37523026388426,2,c,2.074510499999633,incorrect,n
311,2F4K,312,2,54.30384990289302,37.150421377279145,1.546616486626543,41.01751591678554,1,v,4.320005499999752,correct,v
312,2F4K,313,2,34.20443691766944,41.00992831764229,1.0182791450306554,44.43377232071374,2,b,0.9096346000001176,correct,b
313,2F4K,314,1,55.06626968895151,42.317821464626135,1.5713320620619105,45.59731561597808,2,n,1.9842709999998078,correct,n
314,2F4K,315,1,19.73180187981392,35.49884569954749,0.753643454108252,39.570115505531845,1,c,0.9097270000002027,correct,c
315,2F4K,316,2,43.795051136893406,60.5198306727742,1.2430217445509908,61.21647281269445,2,b,3.1448992999999064,correct,b
316,2F4K,317,2,46.64725540015515,61.5776449341947,1.3189754042417117,62.04806992618405,2,b,2.9388473999997586,correct,b
317,2F4K,318,1,38.38331673426859,59.63128745159387,1.1107233310494982,60.50853099494248,1,c,1.554018299999825,correct,c
318,2F4K,319,1,57.83755997289136,43.39076112184043,1.6645437605755231,46.55234437870024,2,n,0.5937008999999307,correct,n
319,2F4K,320,2,36.86766104357955,53.122177322007175,1.076262378954643,55.09915935792363,2,b,2.786855900000319,correct,b
320,2F4K,321,1,26.5112887269328,39.64644588287363,0.8677423592370117,43.22296017319981,1,c,2.087915300000077,correct,c
321,2F4K,322,1,66.20459867709029,48.873339171010784,1.9808751595655372,51.40928130460778,2,n,0.8901320999998461,correct,n
322,2F4K,323,1,44.373653147846255,56.680314892198616,1.2580677303782637,58.10089958035926,1,c,2.714231800000107,correct,c
323,2F4K,324,1,42.16990583396834,57.69546603329259,1.201716990360058,58.93839942504831,1,c,0.839412799999991,correct,c
324,2F4K,325,1,54.70343176167657,39.14808136977028,1.559520970973168,42.78126927695904,2,n,0.715039600000182,correct,n
325,2F4K,326,2,25.643439036307324,39.14406326624092,0.8522231642976748,42.77771040680104,2,b,0.7338228999997227,correct,b
326,2F4K,327,1,61.99512387653546,45.99191614837503,1.8148542820912652,48.8644392065681,2,n,1.686238200000389,correct,n
327,2F4K,328,2,62.52647111798248,49.41500528436242,1.8350178966721555,51.88456414474768,1,v,0.9517662999996901,correct,v
328,2F4K,329,2,55.04544713541831,76.47200208335039,1.5706518338259057,72.12424688955154,2,b,0.9084454999997433,correct,b
329,2F4K,330,2,60.55959785458306,52.66586776477185,1.7614798061095038,54.70766839294024,1,v,1.3462052999998377,correct,v
330,2F4K,331,2,48.410319335484665,62.517260515960345,1.3682288731791832,62.776028486519785,2,b,0.9396461000001182,correct,b
331,2F4K,332,2,55.03049847683882,67.6585408727847,1.5701636747521914,66.56097440764316,2,b,3.8881728000001203,correct,b
332,2F4K,333,1,40.92548214576097,54.83949723638705,1.1710189840501224,56.559911244249456,1,c,1.3583551000001535,correct,c
333,2F4K,334,1,48.19996927396599,64.85524244595888,1.3622571642533556,64.54062445757617,1,c,2.0494492000002538,correct,c
334,2F4K,335,2,57.614659484084335,44.89204252653873,1.6568463111070466,47.88780129979355,1,v,0.5950729999999567,correct,v
335,2F4K,336,1,36.7293921271079,48.12984852211222,1.0731723308656136,50.75508869787558,1,c,1.1519641999998385,correct,c
336,2F4K,337,2,62.17588948300412,51.33664851085605,1.821689002801812,53.5600904699046,1,v,0.8979454999998779,correct,v
337,2F4K,338,2,62.240553358111335,79.03598841028793,1.8241401799466563,73.49084087310175,2,b,1.340013199999703,correct,b
338,2F4K,339,1,36.90540334052261,46.069999756973125,1.0771073924349506,48.93369131425339,1,c,0.9765076999997291,correct,c
339,2F4K,340,1,46.25949557921892,63.62799780674577,1.3083829527107331,63.6229191203486,1,c,3.2239391000002797,correct,c
340,2F4K,341,1,36.78938769320085,49.42569861054199,1.0745120269046486,51.89393490659506,1,c,1.4189790000000357,correct,c
341,2F4K,342,2,39.70370135695613,51.2055945551424,1.141642573181886,53.44640483706347,2,b,1.576843899999858,correct,b
342,2F4K,343,2,61.27264598403006,45.52545705211295,1.787792598606958,48.45049280176629,1,v,0.5390431000000717,correct,v
343,2F4K,344,1,46.34855416903256,35.33648866139436,1.3108082199953923,39.42847557822687,2,n,2.1109174000002895,correct,n
344,2F4K,345,1,39.451421890664506,50.14790888935679,1.135669193535971,52.52566990467382,1,c,0.6058024999997542,correct,c
345,2F4K,346,1,43.86494957770545,61.77292010276532,1.244829786869092,62.20020413931152,1,c,0.5757031000002826,correct,c
346,2F4K,347,2,46.49159141946691,57.55724776692892,1.3147128605688494,58.824916203079766,2,b,1.2856681000002936,correct,b
347,2F4K,348,1,63.78411728429759,44.47242755834756,1.883640331804248,47.51473862390452,2,n,1.3340742999998838,correct,n
348,2F4K,349,1,54.83348451445004,45.71771322791189,1.563744202227987,48.62115422697548,2,c,1.582912800000031,incorrect,n
349,2F4K,350,1,43.85266044054276,60.63058297428417,1.2445117169566875,61.30412119607472,1,c,1.1949782000001505,correct,c
350,2F4K,351,1,41.55870971247824,59.53446900828746,1.1865404561795716,60.43089015204989,1,c,0.8182111999999506,correct,c
351,2F4K,352,1,53.52896070592776,64.4916565360656,1.521894994372562,64.27076886800897,1,c,1.8377959999997984,correct,c
352,2F4K,353,2,55.00514739459183,36.4105783750153,1.5693361639353585,40.36773269317072,1,v,1.4311846000000514,correct,v
353,2F4K,354,2,68.42355505095259,50.04166143322878,2.0744180312224723,52.43287932295105,1,v,2.488664599999993,correct,v
354,2F4K,355,1,44.85155386483416,27.637288008989277,1.2706323152554937,32.904004754274766,2,c,0.8803938000000926,incorrect,n
355,2F4K,356,1,59.52088173643648,43.55446547496003,1.7238406890734754,46.69804339694487,2,c,2.197417100000166,incorrect,n
356,2F4K,357,1,30.005757676456497,49.58142762469091,0.933144707946928,52.03034832397135,1,c,1.1277445000000625,correct,c
357,2F4K,358,1,65.43535988307097,52.81687622459899,1.9494414113010767,54.83737254099093,2,n,2.27018870000029,correct,n
358,2F4K,359,2,64.73265091146138,59.4213924494546,1.9211624653348007,60.34008930752413,1,v,1.1004038999999466,correct,v
359,2F4K,360,1,52.45218231790123,63.83171876213088,1.48819695231107,63.77659017167609,1,c,2.0744981000002554,correct,c
360,2F4K,361,2,42.65917362240552,37.2292394578773,1.2140057112089055,41.08686204660047,1,b,3.53694379999979,incorrect,v
361,2F4K,362,1,48.37761789938757,62.28326082578838,1.3672987838995294,62.5957086393279,1,c,0.7992901000002348,correct,c
362,2F4K,363,1,48.46139876306727,70.63422423356828,1.369682932603029,68.58034853724851,1,c,0.7030372000003808,correct,c
363,2F4K,364,1,59.55632320648319,41.83734991960301,1.7251116014662604,45.169727660406615,2,n,0.7029263000003994,correct,n
364,2F4K,365,2,37.42831265409585,54.49324444723105,1.0888833277067025,56.26708242713443,2,b,3.6296275999998215,correct,b
365,2F4K,366,2,49.19452281912445,62.43290433547376,1.3907235665424806,62.71109880078396,2,b,0.611897300000237,correct,b
366,2F4K,367,1,48.18069587052566,67.46390415830115,1.3617113093655229,66.42426974407482,1,c,0.8303671999997277,correct,c
367,2F4K,368,2,64.98639434338297,49.54679650189381,1.9313261665108368,52.00002154741943,1,v,1.0790928000001259,correct,v
368,2F4K,369,1,44.370400911393176,28.13387176186248,1.2579826522030049,33.31078770784777,2,n,1.0126097000002119,correct,n
369,2F4K,370,1,53.24110559892477,62.59819487088054,1.512812477855222,62.83824442631235,1,c,0.6544094999999288,correct,c
370,2F4K,371,2,53.19590270196909,37.109603638787256,1.5113911509178086,40.98161234882584,1,b,2.992254899999807,incorrect,v
371,2F4K,372,1,58.41460843208512,35.36104058823653,1.6846375782645784,39.44988657106688,2,n,1.0549168000002282,correct,n
372,2F4K,373,2,50.50677757877077,66.19457602323189,1.4291955503495584,65.51947651429721,2,b,1.1034726000002593,correct,b
373,2F4K,374,1,46.54228406959911,61.18633659841614,1.3160994616780883,61.74190179810986,1,c,0.8910556000000724,correct,c
374,2F4K,375,1,64.99968935215462,45.04840786510318,1.931860178494248,48.02676299742293,2,n,0.630251699999917,correct,n
375,2F4K,376,2,47.49934346166857,37.58905804168004,1.3425541736614497,41.4037192955994,1,v,2.9377681999999368,correct,v
376,2F4K,377,1,62.99876178185447,40.82772957415536,1.8531284087745064,44.27181106512303,2,n,2.410401600000114,correct,n
377,2F4K,378,1,66.2721014742055,53.00264452336966,1.983657629189784,54.99673472848989,2,c,0.7332163999999466,incorrect,n
378,2F4K,379,2,51.27595640339685,38.04452809433531,1.4522387885214092,41.805430652769495,1,v,5.0,incorrect,v
379,2F4K,380,1,67.09104321140585,50.78376499593082,2.0177274285700144,53.079866343877015,2,n,2.1609527000000526,correct,n
380,2F4K,381,2,48.93174787332112,62.06986149272474,1.3831450277462545,62.43069870064391,2,b,2.065363300000172,correct,b
381,2F4K,382,1,38.82936997168037,53.59988310608952,1.121073680049549,55.50755475586202,1,c,1.165571,correct,c
382,2F4K,383,1,37.58595408079959,43.890220896729424,1.092458610815522,46.99682940414296,1,c,2.2944728000002215,correct,c
383,2F4K,384,1,39.16275044604017,50.53601150220444,1.1288724707477773,52.86416468709135,1,c,1.5419050999998944,correct,c
384,2F4K,385,1,69.25742408886921,59.707634709435176,2.110701732076894,60.569687082927146,2,c,1.3826238999999987,incorrect,n
385,2F4K,386,1,60.61426360360899,77.43692745187687,1.7634832932142164,72.65270013780763,1,c,1.3098101999999017,correct,c
386,2F4K,387,2,25.014608961070177,35.25074479876777,0.8411519056125805,39.353723709171554,2,b,1.4797234999996363,correct,b
387,2F4K,388,1,52.187761323484224,44.24350338551237,1.4800365864921936,47.31113124882842,2,n,2.3673555999998825,correct,n
388,2F4K,389,2,48.63086387705774,34.49545245183211,1.3745181110181706,38.69684282975311,1,b,2.1365249999998923,incorrect,v
389,2F4K,390,1,53.515012761307965,39.87809727907734,1.521453648937439,43.42844760891927,2,n,3.527923699999974,correct,n
390,2F4K,391,1,67.93095993441663,48.76522657140294,2.053277752612733,51.31427982762507,2,c,0.661945199999991,incorrect,n
391,2F4K,392,1,45.69428154525334,30.709106698115413,1.2930951583123116,35.45502560339718,2,n,2.725337700000182,correct,n
392,2F4K,393,1,32.32606757615993,43.4868002828137,0.979272330921218,46.63782178643781,1,n,2.088149700000031,incorrect,c
393,2F4K,394,2,46.874522444254815,32.505558300195844,1.325223482972473,36.98147207612059,1,v,5.0,incorrect,v
394,2F4K,395,1,65.63835520568169,41.041883020529504,1.9576877253808755,44.46218187192336,2,n,1.813536500000282,correct,n
395,2F4K,396,2,51.045430479733895,44.18291615746731,1.4452939203471835,47.257236243382216,1,v,1.4060937999997805,correct,v
396,2F4K,397,2,53.30950360321631,73.89787778871462,1.5149656766507915,70.63324549155658,2,b,0.6716790000000401,correct,b
397,2F4K,398,1,63.52493728945805,51.80890271116819,1.8735157665271465,53.96897829349098,2,n,1.4498797999999624,correct,n
398,2F4K,399,1,50.25513549923795,59.555697500446826,1.4217364602187577,60.44792203400627,1,c,1.5344084999996994,correct,c
399,2F4K,400,2,24.54957604330268,35.92713599253451,0.8330570947820347,39.94434225700776,2,b,1.1089851000001545,correct,b
