,condition,trial,sub_task,x,y,xt,yt,cat,resp,rt,acc,correct_resp
0,4F4K,1,1,25.852698622539418,37.66897476324181,0.8559396345114983,41.47109105842557,1,c,5.0,NA,c
1,4F4K,2,2,63.748752259728015,53.04875054869673,1.8822556213165995,54.97060838019383,1,b,1.1572212999999465,incorrect,v
2,4F4K,3,1,47.88215239954499,33.42922983865044,1.3532839410069883,37.78878697726623,2,n,1.0624428000010084,correct,n
3,4F4K,4,1,40.80656555773081,63.86778484779191,1.1681268645072849,63.697640160225504,1,n,2.074892299999192,incorrect,c
4,4F4K,5,2,31.30717394405956,43.339638592779565,0.958742451080982,46.480556331490725,2,v,0.8669363000008161,incorrect,b
5,4F4K,6,1,57.07060375202725,42.91294315552049,1.6382075092767352,46.10250409143115,2,c,0.7772463000001153,incorrect,n
6,4F4K,7,2,40.91975819811532,52.61240508646312,1.1708796104692474,54.59779799866296,2,v,1.7287194999989879,incorrect,b
7,4F4K,8,1,52.72930370972006,31.69594346056412,1.4967975593809155,36.31156401093047,2,n,1.0854315999986284,correct,n
8,4F4K,9,2,52.49527149483328,34.69261307564325,1.4895309955514664,38.87699422995637,1,b,0.8790248000004794,incorrect,v
9,4F4K,10,2,42.13676585755984,49.84824872292967,1.200889140692308,52.210979696311824,2,v,1.3888852000000043,incorrect,b
10,4F4K,11,1,41.25556236532094,50.681369989427566,1.1790843014700427,52.93454959831686,1,n,1.372950300001321,incorrect,c
11,4F4K,12,2,72.33325416407081,61.24655055947292,2.250113265061404,61.69232252792632,1,b,1.6194605000000593,incorrect,v
12,4F4K,13,2,36.64252521949403,53.25385179581734,1.0712355594811491,55.14542543820659,2,b,2.7071519999990414,correct,b
13,4F4K,14,1,49.18038589424967,59.16559639118187,1.3903147968889469,60.04503408743567,1,n,1.3281698000009783,incorrect,c
14,4F4K,15,1,42.42323622359218,33.09167002547991,1.2080641673854002,37.4995914845544,2,n,4.668167900001208,correct,n
15,4F4K,16,2,52.13351975740928,46.81172382664796,1.4783681622747094,49.55033619299852,1,v,2.098882099999173,correct,v
16,4F4K,17,2,39.75848660586465,51.94933996909008,1.1429439045972667,54.02905033185717,2,b,1.3544223999997484,correct,b
17,4F4K,18,1,35.41072230638769,56.32446482588163,1.0441447082479698,57.726759685467954,1,c,1.4861753000004683,correct,c
18,4F4K,19,1,59.2187038157565,68.13717446600306,1.7130427016604917,66.77443109662738,1,n,0.9459651000015583,incorrect,c
19,4F4K,20,1,49.05067083590679,62.01586221034025,1.3865696861331358,62.28928715579423,1,c,1.2673531000000366,correct,c
20,4F4K,21,1,55.48418336344126,64.06739041069325,1.5850468691937112,63.846914378237074,1,c,1.4326753999994253,correct,c
21,4F4K,22,1,39.96232048398906,53.96155956324785,1.1477986753376723,55.74648588358203,1,n,1.4925192000009702,incorrect,c
22,4F4K,23,2,35.57204390904412,48.09015272237114,1.0476532655891535,50.67437780040303,2,b,2.931729699999778,correct,b
23,4F4K,24,2,48.77045133992908,68.33738079735471,1.3785136378237768,66.91242394565612,2,b,1.1764019999991433,correct,b
24,4F4K,25,1,42.22537851984043,34.24978386547356,1.2031039972532485,38.49456081686874,2,n,1.061194300000352,correct,n
25,4F4K,26,2,56.95627328248393,43.46556284789926,1.6343174030209364,46.592116727398974,1,v,2.020001900000352,correct,v
26,4F4K,27,2,61.962302839641794,78.48841661582087,1.8136160770147327,73.05962808495893,2,v,3.582085600000937,incorrect,b
27,4F4K,28,1,61.79745893641478,46.5109534221972,1.8074099475605812,49.28523841377677,2,c,2.505546800000957,incorrect,n
28,4F4K,29,1,55.323412657707486,42.580943165348536,1.579756694754496,45.808344988167725,2,n,1.4495289999995293,correct,n
29,4F4K,30,2,41.69579377905864,57.11972619532167,1.189927613658586,58.38308074018703,2,b,1.121998700000404,correct,b
30,4F4K,31,1,47.15358788977472,53.42909552632633,1.3329361151277996,55.29457527365791,1,c,1.4023579999993672,correct,c
31,4F4K,32,2,45.182576494331606,63.75482305817841,1.279408785197294,63.6129393162749,2,b,0.8972728000007919,correct,b
32,4F4K,33,2,45.85116062504618,58.79960484600713,1.2973203927105896,59.75067043475903,2,b,0.8782919000004767,correct,b
33,4F4K,34,1,42.79457075822729,58.84407595933553,1.2174285657648471,59.78650905803172,1,c,1.1582318999990093,correct,c
34,4F4K,35,2,49.94216441333207,34.63383664900037,1.4125137705670086,38.82617445954104,1,b,1.9242310000008729,incorrect,v
35,4F4K,36,1,56.16250862892869,34.252557682187835,1.6075629792094157,38.49695305021741,2,n,1.607399799999257,correct,n
36,4F4K,37,1,54.72828991333039,70.71790363760543,1.5603273124851536,68.5067645772634,1,c,1.303946599999108,correct,c
37,4F4K,38,1,23.086085275976423,38.05038487254799,0.8080870161669165,41.8059844669632,1,n,1.9956904999999097,incorrect,c
38,4F4K,39,1,44.68321073187274,58.76869681929759,1.2661921197364778,59.72575063867308,1,n,2.5310339000006934,incorrect,c
39,4F4K,40,1,44.44804953470256,53.36160983694688,1.260015504354697,55.23716229372439,1,c,1.1086515999995754,correct,c
40,4F4K,41,1,44.24640167144412,39.037222758578935,1.2547431326988645,42.67445304230854,2,c,4.824935699998605,incorrect,n
41,4F4K,42,2,38.87480906384394,61.67584621434577,1.1221334600325783,62.0262781100603,2,v,2.974985700000616,incorrect,b
42,4F4K,43,1,61.097169476157006,50.70684108826458,1.7812809535542382,52.95661888884199,2,c,1.552716899999723,incorrect,n
43,4F4K,44,2,43.71847548061454,57.22115427725667,1.2410439988844486,58.46639107929106,2,v,2.615136000000348,incorrect,b
44,4F4K,45,1,25.530015607093823,42.6414866441665,0.8502155015222852,45.86198704228608,1,c,2.8345792000000074,correct,c
45,4F4K,46,1,61.09063282144834,51.47195766930341,1.7810388477681165,53.61799607621799,2,n,1.1390310000006139,correct,n
46,4F4K,47,1,43.305927010480815,53.241516981856286,1.2304429859268946,55.13491966157442,1,c,0.8086428999995405,correct,c
47,4F4K,48,1,64.00467106829157,43.614898591510354,1.892299087574369,46.7244100109317,2,n,0.7081164000010176,correct,n
48,4F4K,49,2,19.188238317636547,34.268588493224016,0.7451729187229937,38.5107793853891,2,b,2.1305732000000717,correct,b
49,4F4K,50,2,58.34840099526886,44.01603393576616,1.6823198578158622,47.07970756152865,1,v,1.279610199999297,correct,v
50,4F4K,51,2,43.101968627921416,53.47839271710701,1.2252354876899314,55.33649534391521,2,v,3.0703974000007292,incorrect,b
51,4F4K,52,1,44.36124553509418,57.62583637412935,1.2577431793837577,58.79786572794475,1,c,2.6221620999986044,correct,c
52,4F4K,53,1,57.47895839699186,45.61663287561402,1.6521775714144866,48.49580710458284,2,n,1.8584121000003506,correct,n
53,4F4K,54,2,61.99898937796138,49.79139889975638,1.8150001674704903,52.16148875385436,1,v,1.2128233000003092,correct,v
54,4F4K,55,2,59.784536779334616,44.630157960204265,1.7333176914765311,47.62341001649597,1,v,1.0115765999998985,correct,v
55,4F4K,56,2,47.16526836197551,30.730502337148764,1.3332599094243511,35.4976946122095,1,b,1.407523099998798,incorrect,v
56,4F4K,57,2,74.29676496717109,51.47889948586712,2.34388688732948,53.62398246705125,1,v,1.2310428999990108,correct,v
57,4F4K,58,2,50.279851009851065,36.12250668536264,1.4224673417881264,40.11853057598789,1,v,0.9458125000001019,correct,v
58,4F4K,59,2,43.70331127281159,49.235838834811695,1.2406527211363323,51.67711007782818,2,b,1.0985041999992973,correct,b
59,4F4K,60,2,74.56837509868825,63.35582471613314,2.3571625543278527,63.31248644314856,1,v,0.5938456000003498,correct,v
60,4F4K,61,2,40.915924490431365,50.85536356547985,1.170786272006568,53.08524062887915,2,v,1.4143726000002061,incorrect,b
61,4F4K,62,2,56.29680457872664,37.54983273552432,1.6120585431062402,41.36657662814027,1,v,2.3671856000000844,correct,v
62,4F4K,63,1,62.60093570547719,44.68410956485787,1.8378615267060248,47.67115668897855,2,n,4.181996799999979,correct,n
63,4F4K,64,2,38.816976027974746,55.75460354748501,1.1207847887726272,57.25317336027946,2,b,2.7059430999997858,correct,b
64,4F4K,65,1,41.34277196150555,25.226914835656096,1.18122447849976,31.009413077684947,2,c,1.8136997999990854,incorrect,n
65,4F4K,66,2,50.16472583860509,60.27229612614886,1.4190660838293778,60.92683965769105,2,v,1.760423300000184,incorrect,b
66,4F4K,67,1,32.29032989936295,48.2553971459681,0.9785448608098372,50.819296569516936,1,c,2.183838499999183,correct,c
67,4F4K,68,2,31.65351663855686,45.06285132520384,0.9656722325011208,48.0062381389771,2,b,1.2329788999995799,correct,b
68,4F4K,69,1,50.065168961847306,60.98390372695575,1.4161313336805128,61.48698424613883,1,n,2.8900514999986626,incorrect,c
69,4F4K,70,1,48.36865729672133,66.14427179633984,1.367044038175555,65.36930223549314,1,c,1.1463459000005969,correct,c
70,4F4K,71,1,43.73913575160401,63.81272105319984,1.2415772885921226,63.65637235543042,1,c,0.9664434999995137,correct,c
71,4F4K,72,1,32.637942773943976,50.78912839204932,0.985643806984646,53.02789411257724,1,c,0.9579098000012891,correct,c
72,4F4K,73,2,49.95885192848171,66.64269125758922,1.41300400795875,65.72599258477551,2,v,1.5904993000003742,incorrect,b
73,4F4K,74,1,62.93331713093696,48.73843532215445,1.8506082325698563,51.24236970249832,2,n,3.108096199999636,correct,n
74,4F4K,75,2,52.91675409778059,35.401993633663835,1.5026433441813989,39.49171933536271,1,v,2.3247979000007035,correct,v
75,4F4K,76,2,42.09386801896013,54.09456452298789,1.1998183826237712,55.85906362466648,2,b,2.567534700001488,correct,b
76,4F4K,77,1,52.22131771365122,68.19663564258146,1.4810696949890634,66.81547658207906,1,n,2.118428199999471,incorrect,c
77,4F4K,78,2,62.272064009404886,52.31110346650689,1.8253358314040755,54.33968005922119,1,v,1.1816383999994287,correct,v
78,4F4K,79,2,55.6992243170761,38.65641817593303,1.5921505161648963,42.33901004156986,1,v,1.3514546999995218,correct,v
79,4F4K,80,2,49.400935957004926,59.55219366277024,1.3967057158375535,60.35450826636986,2,b,0.9579395999990084,correct,b
80,4F4K,81,2,28.878882396880584,46.86487177636416,0.91153279785225,49.59715729820745,2,b,1.1094782000000123,correct,b
81,4F4K,82,2,60.55567219507638,71.70775567795934,1.7613360192207088,69.14362840816571,2,v,0.9591860000000452,incorrect,b
82,4F4K,83,1,33.153625304941535,53.12715658192312,0.9962700502128028,55.03746961497287,1,c,2.318705499999851,correct,c
83,4F4K,84,1,37.11722149152364,43.85086577286339,1.0818621206834356,46.93342529582183,1,c,0.9277719000001525,correct,c
84,4F4K,85,1,56.9510694954044,68.4600128841225,1.634140563576308,66.99665591076423,1,n,1.3546425000004092,incorrect,c
85,4F4K,86,1,45.25918142252827,27.045119652769685,1.2814484495499152,32.460687584884155,2,n,1.133909100000892,correct,n
86,4F4K,87,2,49.81670641459751,40.72909231469201,1.4088335708670816,44.16857916423598,1,v,2.7738656000001356,correct,v
87,4F4K,88,1,53.24680653530835,42.52728553919756,1.5129918288339723,45.76080439753398,2,n,1.9957592000009754,correct,n
88,4F4K,89,2,57.17664945142797,48.60902450942861,1.6418240022106103,51.12910695455408,1,v,1.3965599999992264,correct,v
89,4F4K,90,1,57.47870974680172,71.03712681212045,1.6521690287940385,68.71386522749297,1,n,1.0671631999994133,incorrect,c
90,4F4K,91,2,43.240350039353686,29.217427066299415,1.228766254561651,34.23663115404245,1,b,1.674067300000388,incorrect,v
91,4F4K,92,1,70.05661400041888,59.74494030652522,2.146071912485747,60.50823222469852,2,n,1.9365390000002662,correct,n
92,4F4K,93,2,48.17072257411883,38.38591145739317,1.361428934879445,42.10096055280773,1,v,1.983578800000032,correct,v
93,4F4K,94,1,57.30111598804388,44.96870985399908,1.64607888954597,47.92296660149916,2,n,1.5899779999999737,correct,n
94,4F4K,95,2,56.35058224217666,46.06989590287758,1.6138622763396906,48.89611489209673,1,v,0.6836141000003408,correct,v
95,4F4K,96,2,48.80905837914251,58.72047025413188,1.3796207678244117,59.68684892038774,2,v,1.2374029000002338,incorrect,b
96,4F4K,97,1,33.37038535755682,50.27851941260454,1.0007707720759853,52.585080146742506,1,c,2.130644900000334,correct,c
97,4F4K,98,2,41.57757303329311,34.81354245601808,1.1870059700185671,38.98160935643207,1,b,1.0489417999997386,incorrect,v
98,4F4K,99,2,36.334339276144526,53.88097861160169,1.064392447173934,55.67822052275744,2,v,1.0554680999994162,incorrect,b
99,4F4K,100,2,52.67800580047962,64.58832562199973,1.4952017616823483,64.23409801955272,2,v,0.8729951999994228,incorrect,b
100,4F4K,101,1,24.20601594887414,33.33562558846921,0.8271268339999462,37.70852491087156,1,c,1.5162184999990131,correct,c
101,4F4K,102,1,70.6742888296546,58.549218980900655,2.1738142438792853,59.54852628174251,2,n,1.3526531999996223,correct,n
102,4F4K,103,2,37.39701980935717,49.21274245281686,1.088175003937391,51.656945040143405,2,b,2.2202360999999655,correct,b
103,4F4K,104,2,34.99282112935228,56.56972117347397,1.0351103905949977,57.92974777408382,2,b,0.6969726000006631,correct,b
104,4F4K,105,1,58.60059223964305,46.6585112296438,1.6911654017974402,49.41532272974634,2,n,2.093206100000316,correct,n
105,4F4K,106,2,51.584647755885136,37.588843321846376,1.4615907742980832,41.40079247116208,1,v,1.3767079999997804,correct,v
106,4F4K,107,1,55.89498123374339,43.82958564624632,1.5986448137325266,46.91457708880085,2,n,1.1161588999984815,correct,n
107,4F4K,108,2,34.99768634823948,45.14040204894188,1.0352151173716546,48.074825184420845,2,b,0.8729869999988296,correct,b
108,4F4K,109,2,65.31957191690047,53.2252656142042,1.9447533033994429,55.12107656661816,1,v,1.1228766000003816,correct,v
109,4F4K,110,1,57.29755235921132,68.14167756996844,1.6459569137295098,66.77754136682587,1,n,1.1946537000003445,incorrect,c
110,4F4K,111,1,39.41715069745641,24.91978832192108,1.1348601478515608,30.76769722832389,2,c,2.403654599998845,incorrect,n
111,4F4K,112,2,53.400747538410336,64.53595488807485,1.5178428470873928,64.19533163735163,2,v,1.254613099999915,incorrect,b
112,4F4K,113,1,54.0174835785496,50.42870145621689,1.5374340304329126,52.71545346200847,2,c,3.3322358000004897,incorrect,n
113,4F4K,114,1,68.19271844119817,56.28596493017844,2.064484451819943,57.69484886185341,2,c,0.7383332999997947,incorrect,n
114,4F4K,115,1,51.65999454446668,41.12322893475599,1.4638825785693932,44.5173231768336,2,c,1.5526695999997173,incorrect,n
115,4F4K,116,1,40.26208472201172,20.829984901751683,1.1549757345389726,27.65361311012945,2,c,0.7626094999995985,incorrect,n
116,4F4K,117,2,55.13628806688557,49.32835287124014,1.5736215741258757,51.75786062614754,1,v,1.279591900000014,correct,v
117,4F4K,118,1,50.01753690560216,68.64551838254206,1.4147293772542404,67.12364890371806,1,n,0.951848799999425,incorrect,c
118,4F4K,119,1,54.995017865743804,49.67893198653013,1.569005637495667,52.06353814289437,2,n,1.8682666000004247,correct,n
119,4F4K,120,2,42.07195749996154,48.65868369373906,1.1992718501648068,51.17257693116155,2,b,1.1448175999994419,correct,b
120,4F4K,121,2,59.123412178966575,42.23919488831098,1.7096516103979855,45.505569300392565,1,v,0.9579669000013382,correct,v
121,4F4K,122,1,53.98490988260762,41.14066026737465,1.536393000619732,44.5327512178752,2,n,1.9229090000008,correct,n
122,4F4K,123,1,56.54595891873149,42.54877128662925,1.6204323224265391,45.779840675799214,2,n,0.9714901999996073,correct,n
123,4F4K,124,1,67.61660370615787,53.9512381482917,2.0398995490437373,55.73774446920605,2,n,1.0854291999985435,correct,n
124,4F4K,125,2,46.650012553739856,32.126928210635725,1.3190510277500629,36.67703079058015,1,b,1.8258233000015025,incorrect,v
125,4F4K,126,1,46.20279391465562,58.61976323285567,1.3068411763137164,59.6055407162239,1,c,1.984963199998674,correct,c
126,4F4K,127,1,37.324309716801565,57.38387039000456,1.086530965823949,58.59984962415752,1,c,1.176432800000839,correct,c
127,4F4K,128,2,63.29361409578923,44.86722171786396,1.864525363975985,47.83318327073395,1,v,1.1816032999995514,correct,v
128,4F4K,129,2,61.09305089844555,46.965904728639686,1.7811284051012508,49.68614304658525,1,v,1.0854492999987997,correct,v
129,4F4K,130,2,72.81486072402069,58.43455006458971,2.272760749750703,59.45574704311196,1,v,0.6836437000001752,correct,v
130,4F4K,131,2,42.09633201007932,56.817981531663015,1.1998798595990368,58.13469848000901,2,b,0.7745915000014065,correct,b
131,4F4K,132,1,53.250438857851584,68.24269326362067,1.5131061124849192,66.84723393656088,1,n,2.4765167999994446,incorrect,c
132,4F4K,133,1,42.12824263391081,49.96339879296142,1.2006763194214507,52.31118009890974,1,c,1.1753635000004579,correct,c
133,4F4K,134,2,50.75493401248155,74.18328534039354,1.4365896437161023,70.66585101496327,2,v,1.8804174000015337,incorrect,b
134,4F4K,135,1,61.39361376111872,36.88179041462663,1.792295369906868,40.781473515960855,2,n,1.8574972999995225,correct,n
135,4F4K,136,2,56.35108384801674,39.25670216506262,1.6138791099796883,42.86795107971874,1,v,1.4070616000008158,correct,v
136,4F4K,137,2,36.58996474290856,50.19256979540864,1.0700653767675976,52.51041912647218,2,b,0.9592613999993773,correct,b
137,4F4K,138,2,47.79773665034202,68.27212234666061,1.350910502391997,66.8675093086328,2,v,2.792081900000994,incorrect,b
138,4F4K,139,2,65.51645673287112,54.35364487804621,1.952731647891401,56.07799350190333,1,v,0.5825967999990098,correct,v
139,4F4K,140,1,27.70164953052786,44.68509615117993,0.8894895034145842,47.67202977738108,1,c,1.4966850000000704,correct,c
140,4F4K,141,1,46.89062578713078,67.04213269206332,1.3256673210872765,66.00934313316237,1,c,1.1824807000011788,correct,c
141,4F4K,142,1,58.72267199560235,43.93956055681759,1.6954640095244198,47.011980754450335,2,n,1.675456099999792,correct,n
142,4F4K,143,1,50.306252013751504,41.35162815647785,1.4232484814316275,44.71949915757659,2,n,0.6908996000001935,correct,n
143,4F4K,144,2,35.42033430403096,48.68074833595325,1.044353428440374,51.191888653721584,2,b,1.0624870999999985,correct,b
144,4F4K,145,1,31.20846632607621,39.7381255130537,0.9567765859853478,43.29276383420242,1,c,1.2421662000015203,correct,c
145,4F4K,146,1,46.529599571077874,35.8234131789202,1.315752364203011,39.858050261560194,2,n,1.1400689000001876,correct,n
146,4F4K,147,1,54.066985858251776,33.50529158059162,1.539017435205008,37.85404550907537,2,n,0.6506921999989572,correct,n
147,4F4K,148,2,70.00829612905234,57.26893263067885,2.143916747011747,58.50560316079208,1,v,0.9643453000007867,correct,v
148,4F4K,149,2,48.4310561607094,56.21373875928201,1.3688189945920002,57.63495036940781,2,v,1.7093946000004507,incorrect,b
149,4F4K,150,2,58.41466189202546,47.14410589849452,1.684639451023657,49.8430297202686,1,v,0.7454156000003422,correct,v
150,4F4K,151,2,44.07616538000267,56.52615346300168,1.250309239516732,57.89372596706826,2,b,1.7372353999999177,correct,b
151,4F4K,152,1,50.92649886340249,64.88055413593645,1.441723960810558,64.449758859204,1,n,3.3807431000004726,incorrect,c
152,4F4K,153,2,47.53695583339852,67.27724120542153,1.343604632651758,66.17506502763455,2,b,1.7907653000002028,correct,b
153,4F4K,154,2,55.40397404259194,62.44732831663188,1.5824053636123028,62.62109674514824,2,v,1.1815252999986114,incorrect,b
154,4F4K,155,1,49.289467074707126,67.95133937906002,1.393471998629385,66.6458162869337,1,n,2.767815699999119,incorrect,c
155,4F4K,156,1,35.34631352019217,54.41860344325063,1.042747176379064,56.1328096100252,1,c,1.7590320999988762,correct,c
156,4F4K,157,2,42.46380521835594,57.24080586293589,1.20908373061764,58.48252176629537,2,b,1.243156700000327,correct,b
157,4F4K,158,1,39.19475857443963,49.76717351400456,1.12962408744195,52.14039486551053,1,c,0.9106881000006979,correct,c
158,4F4K,159,2,69.69649959148333,49.55782523005033,2.13006135621687,51.95800148247343,1,v,0.8247926999993069,correct,v
159,4F4K,160,2,49.11215416488261,66.58676643935063,1.3883435628994756,65.6861424501647,2,b,1.6498191000009683,correct,b
160,4F4K,161,1,50.941320447634936,64.62627663512967,1.4421683775271217,64.26216825691378,1,c,1.7290293999994901,correct,c
161,4F4K,162,1,29.91266432617059,51.55686337335717,0.9313400533886158,53.6911977873483,1,c,1.0307376000000659,correct,c
162,4F4K,163,2,51.94512613745818,38.704579886633965,1.4725879324869122,42.38141394100859,1,v,1.158215299999938,correct,v
163,4F4K,164,1,67.08207701322183,50.51586509758069,2.0173512647156806,52.79107076306372,2,n,1.4995355000010022,correct,n
164,4F4K,165,1,48.70733783782351,61.79263014859712,1.3767056516395286,62.11676301486349,1,c,1.2492239000002883,correct,c
165,4F4K,166,2,63.40560830479371,50.76805769404246,1.8688726316374755,53.009646429509104,1,v,0.8655901000001904,correct,v
166,4F4K,167,2,44.64831676027081,67.00888293809814,1.2652737043035949,65.9858428047141,2,b,0.837942699999985,correct,b
167,4F4K,168,1,49.18194078788599,61.004226077034616,1.390359750808895,61.502899709853374,1,c,1.1049608000012086,correct,c
168,4F4K,169,1,55.52713714868302,45.3520206269147,1.5864632637076876,48.26193830155835,2,n,1.4252842999994755,correct,n
169,4F4K,170,1,44.20017948612252,60.26367119561043,1.2535376990219869,60.92001696144268,1,c,0.8450717000014265,correct,c
170,4F4K,171,1,56.87626955339445,38.14619112858785,1.6316007626587592,41.89017774243501,2,n,1.5284246999999596,correct,n
171,4F4K,172,2,58.22953807011828,44.55467619968941,1.6781668275910206,47.55660383196427,1,v,0.8681651999995665,correct,v
172,4F4K,173,2,61.89398713542485,45.61000159716589,1.8110415101075008,48.48994772884167,1,v,0.6350848000001861,correct,v
173,4F4K,174,2,41.06132389059984,35.21440402613698,1.1743314958482454,39.32891955617212,1,b,0.5538063999993028,incorrect,v
174,4F4K,175,2,52.36317807997586,70.01890825428627,1.485445157924522,68.04766427554469,2,v,1.2549578000016481,incorrect,b
175,4F4K,176,1,48.638265150740224,61.49146711358388,1.3747296727271765,61.883102683563045,1,c,1.2868521000000328,correct,c
176,4F4K,177,2,41.33939366756484,58.70372188199001,1.1811415008110162,59.67333359617765,2,b,1.3221304999988206,correct,b
177,4F4K,178,1,57.88517893207978,45.19537324852016,1.6661928221437516,48.12343724803518,2,n,1.3295604000013554,correct,n
178,4F4K,179,2,28.475212488430724,41.59236604298194,0.9039133427325676,44.93265144992839,2,b,0.703030900000158,correct,b
179,4F4K,180,1,56.33304398284034,45.18248630774846,1.6132738115492298,48.1120414863101,2,n,1.0624852000000828,correct,n
180,4F4K,181,2,44.9969373839045,59.83865277342804,1.2744794591135131,60.58283302660809,2,b,0.8790245000000141,correct,b
181,4F4K,182,1,45.29507236246846,58.29873417843484,1.2824051913785348,59.34569390316092,1,n,0.7235017000002699,incorrect,c
182,4F4K,183,2,56.78797245469783,39.13770885810338,1.6286077509978942,42.76302968171681,1,v,0.6544864000006783,correct,v
183,4F4K,184,1,63.35889012904289,48.63105838194388,1.867057946177412,51.14839578468075,2,n,1.177960000000894,correct,n
184,4F4K,185,1,45.76285944771338,27.1774880248886,1.2949404757928415,32.56764493381304,2,c,0.9094005999995716,incorrect,n
185,4F4K,186,1,37.50173771478596,47.10770601643242,1.0905471386158327,49.810990548997125,1,c,2.2577882000005047,correct,c
186,4F4K,187,2,60.64880592660823,38.9482600713225,1.7647504361002808,42.596054632983055,1,v,0.7941102000004321,correct,v
187,4F4K,188,1,54.569642670610655,47.35308689343292,1.555188310468576,50.02690360583568,2,n,2.1291641000007075,correct,n
188,4F4K,189,2,68.83517997978525,49.63609976389715,2.092250220311728,52.026219865784064,1,v,0.8661682000001747,correct,v
189,4F4K,190,1,58.54909003543344,70.2462055476663,1.689355203789665,68.19779334133533,1,n,0.8243958000002749,incorrect,c
190,4F4K,191,2,22.4616635762933,34.26589959052957,0.7976622496314286,38.50846014925106,2,b,0.8560608000007051,correct,b
191,4F4K,192,1,56.33572314058454,41.2542183051995,1.6133636919876602,44.63326664756746,2,n,1.3524151999990863,correct,n
192,4F4K,193,1,55.896079952953606,46.2776216271506,1.5986813387454226,49.079434298298885,2,n,1.1642912000006618,correct,n
193,4F4K,194,2,38.37703860529161,55.347922848111445,1.1105783355589958,56.91359123014593,2,b,0.8378225000014936,correct,b
194,4F4K,195,2,48.605011766956125,33.9376077468804,1.3737793968127456,38.22560088770331,1,v,1.504206300000078,correct,v
195,4F4K,196,1,51.20052255185925,67.50405860904942,1.449962588319365,66.33419372293982,1,n,1.8453531000013754,incorrect,c
196,4F4K,197,1,54.59473480275088,45.777373457988574,1.5559999824828563,48.637812760856974,2,n,1.2189034999992145,correct,n
197,4F4K,198,2,62.32273955559292,40.72014569164144,1.8272603263554477,44.160665229482944,1,v,0.8173246000005747,correct,v
198,4F4K,199,2,39.02197181387425,54.12299712970334,1.1255726312587784,55.883113310284685,2,b,1.1460865999997623,correct,b
199,4F4K,200,1,47.47636832523728,34.15642814784077,1.3419129155157772,38.41407225009472,2,c,1.9181059999991703,incorrect,n
200,4F4K,201,1,36.48883681678814,51.73772072333704,1.0678175048026155,53.84699155034834,1,n,1.1267604999993637,incorrect,c
201,4F4K,202,2,46.72982791637738,62.12834947760005,1.3212420927208128,62.3760033865712,2,v,1.249514299999646,incorrect,b
202,4F4K,203,2,41.91290510137771,24.458792669857875,1.1953119286050595,30.40682837164936,1,b,1.8562495999995008,incorrect,v
203,4F4K,204,2,53.13152059062629,47.34402040006846,1.509369071894407,50.01892892720628,1,v,0.7104392000001098,correct,v
204,4F4K,205,2,34.084685555885144,49.010290914718446,1.0157466219810765,51.48009667614906,2,b,0.7265704000001278,correct,b
205,4F4K,206,1,74.29322523000202,61.8757494862229,2.343714367747186,62.181068838713045,2,n,1.2385057999999844,correct,n
206,4F4K,207,1,34.000703158880626,54.98340532771353,1.0139743057887003,56.60811503510517,1,c,1.2735151999986556,correct,c
207,4F4K,208,2,66.39630652329387,51.6804586530523,1.988787585257437,53.79768470534359,1,v,1.0199431000000914,correct,v
208,4F4K,209,1,59.4773366099744,71.95060504766703,1.7222804656688686,69.29745987910863,1,n,1.3706461000001582,incorrect,c
209,4F4K,210,2,54.517949442999296,46.198370069744826,1.553517489368556,49.00950506857821,1,v,1.0617423000003328,correct,v
210,4F4K,211,2,45.427673277031815,32.70097867366045,1.2859461217999106,37.16575624006197,1,v,4.072547499999928,correct,v
211,4F4K,212,2,40.009009513712414,52.439990870207474,1.1489135810038762,54.45016224291987,2,b,1.934740900000179,correct,b
212,4F4K,213,2,45.97279561432428,32.16016297750044,1.3006058954549338,36.7052660052032,1,b,1.736128500000632,incorrect,v
213,4F4K,214,1,54.63333701897663,59.34262971757872,1.5572495014721637,60.18693905563139,1,n,0.9209757000007812,incorrect,c
214,4F4K,215,2,38.10044276338413,59.43542887153938,1.1042090135750189,60.26119738935377,2,b,0.6971066000005521,correct,b
215,4F4K,216,1,39.86002946022687,64.72286970056933,1.1453598081429366,64.33352822037389,1,c,0.8196686999999656,correct,c
216,4F4K,217,1,33.200499538444376,23.73801661972739,0.9972416102551196,29.84739890926705,2,c,2.0193397999992158,incorrect,n
217,4F4K,218,1,43.13606497598243,50.75621250945819,1.2261045043814216,52.999387262458654,1,c,0.7344836000011128,correct,c
218,4F4K,219,2,33.66620211064132,44.7112711281175,1.0069458227409245,47.695193139750366,2,b,1.1461041000002297,correct,b
219,4F4K,220,1,38.32176432302248,56.26201826596492,1.1093025741504423,57.67499428604827,1,c,1.583005200000116,correct,c
220,4F4K,221,2,66.43449323070692,47.52962620861833,1.9903674495056605,50.182135894104256,1,v,0.5830360999989352,correct,v
221,4F4K,222,1,51.01642926556832,44.4411612171741,1.444422579396687,47.45612424226682,2,n,1.0604927999993379,correct,n
222,4F4K,223,2,56.295752059781805,77.06151178612879,1.6120232611469654,72.30308711740767,2,v,0.880342100001144,incorrect,b
223,4F4K,224,2,78.11399651070806,64.46433731866448,2.537521234858556,64.14226069049161,1,v,0.5936767999992298,correct,v
224,4F4K,225,1,53.24221955895374,31.18134613418704,1.5128475212726245,35.87690793781786,2,n,1.342489900000146,correct,n
225,4F4K,226,2,44.214430184575285,36.00168566052174,1.2539092210901015,40.013260531516295,1,b,1.067315199999939,incorrect,v
226,4F4K,227,2,68.52686703650686,48.9426574697293,2.078879319492453,51.42098048020815,1,v,0.6316098000006605,correct,v
227,4F4K,228,1,47.81438542907435,40.32744583596614,1.3513782707643558,43.81340814842873,2,c,1.0186442000012903,incorrect,n
228,4F4K,229,1,65.71777422478131,49.72386740336029,1.960923463121052,52.10268030227197,2,n,1.1824838000011368,correct,n
229,4F4K,230,2,42.660348132701536,55.42612678161039,1.2140353615420476,56.97899395035273,2,b,0.7637479999993957,correct,b
230,4F4K,231,1,48.80148569225882,60.40037624308498,1.3794035366023594,61.02806299680797,1,c,1.2856665999988763,correct,c
231,4F4K,232,1,44.874906947508144,37.000544086374205,1.2712495015634109,40.88536481283861,2,c,0.9228797999985545,incorrect,n
232,4F4K,233,1,37.45017002611573,56.026970586185406,1.0893783499429617,57.479858981308055,1,c,0.6971678999998403,correct,c
233,4F4K,234,1,36.5762165026442,29.092586939714945,1.069759503119271,34.13342539986845,2,c,0.758897400000933,incorrect,n
234,4F4K,235,1,29.372187461268947,43.47152663962515,0.92093141562537,46.59740010140165,1,c,0.8426425000016025,correct,c
235,4F4K,236,1,41.60829470858728,24.5742328151282,1.1877645183252998,30.496973712359974,2,n,1.6435989000001427,correct,n
236,4F4K,237,2,44.77976549541426,64.30465556309213,1.2687369339856671,64.02369312305021,2,v,1.250617699999566,incorrect,b
237,4F4K,238,2,40.54143650731257,57.76030447038081,1.161704463526672,58.90767805459896,2,b,0.6302181999999448,correct,b
238,4F4K,239,2,72.04169578790263,58.204164021684605,2.2365125805571053,59.2689584740894,1,v,0.6242498000010528,correct,v
239,4F4K,240,1,56.895837232942334,40.32123270305474,1.6322647935793686,43.8079158962551,2,n,1.547145399999863,correct,n
240,4F4K,241,2,38.40102162854294,53.31029221607552,1.1111323334866825,55.19348398734207,2,b,1.4250461000010546,correct,b
241,4F4K,242,2,59.66417599209564,51.19535520060299,1.7289849124997534,53.379251431094026,1,v,0.6969895999991422,correct,v
242,4F4K,243,2,29.328546360320548,39.75063745950055,0.9200960575834828,43.303810973045856,2,b,0.6314483999994991,correct,b
243,4F4K,244,1,54.69270358555009,63.27274419125349,1.5591731022460804,63.24967710846786,1,n,1.279883699999118,incorrect,c
244,4F4K,245,1,41.4249921499407,29.6761136114244,1.1832457699353274,34.61695824275517,2,c,1.6983405999999377,incorrect,n
245,4F4K,246,1,55.47245022253597,35.45641107461398,1.5846601905992492,39.53897692888591,2,n,0.655819400000837,correct,n
246,4F4K,247,2,50.80241132799517,41.91146997026021,1.4380086358926458,45.21526085340591,1,v,0.6484510000009323,correct,v
247,4F4K,248,1,39.73948773079155,32.97958252509474,1.142492450360578,37.40371778637012,2,c,0.5587208999986615,incorrect,n
248,4F4K,249,1,58.271913161283216,67.01504978132223,1.679646221581096,65.99020260261774,1,n,1.2540578999996796,incorrect,c
249,4F4K,250,2,66.60179052586955,46.87307071212469,1.9973036963038333,49.60437957357683,1,v,0.9882737999996607,correct,v
250,4F4K,251,2,54.6062434501668,39.02141897782061,1.5563724021060112,42.660524528836376,1,v,0.6687206999995396,correct,v
251,4F4K,252,2,41.37102934644517,51.22185215102212,1.1819187650033376,53.402139546052354,2,b,0.6180899999999383,correct,b
252,4F4K,253,1,40.10794925242765,54.95879184379351,1.151279782213674,56.5874514829608,1,c,1.0867416000000958,correct,c
253,4F4K,254,2,38.266906143832266,51.529150813158886,1.1080378656444825,53.66730966922543,2,b,1.0916741000000911,correct,b
254,4F4K,255,1,29.799267865754317,40.27119513285353,0.9291465285343524,43.76368624814884,1,c,0.865622400000575,correct,c
255,4F4K,256,1,47.97129224305494,32.74619217619902,1.3557947292130763,37.2043405960917,2,n,1.5526967000005243,correct,n
256,4F4K,257,1,60.40081647173475,45.98398584641316,1.7556734028810812,48.82027242142723,2,n,0.8361317999988387,correct,n
257,4F4K,258,2,60.42287366482709,49.05612894552798,1.7564788560467657,51.520152026341854,1,v,0.6436255999997229,correct,v
258,4F4K,259,2,61.211774360525446,70.50660300207197,1.785531060542091,68.36879169458787,2,v,0.5816807000010158,incorrect,b
259,4F4K,260,2,54.1475758246516,43.14994651217758,1.5415987155894066,46.312493100065545,1,v,0.6484062999988964,correct,v
260,4F4K,261,2,27.271663560003,37.259916326181184,0.8815717550441029,41.11245745084479,2,b,0.6983610999996017,correct,b
261,4F4K,262,1,43.42192440373245,60.15885540685889,1.2334145173425952,60.83703979141828,1,n,2.3797958999984985,incorrect,c
262,4F4K,263,2,50.137227540073184,39.62612359202881,1.418254878122294,43.19388834141734,1,v,0.9336608000012347,correct,v
263,4F4K,264,1,47.14745127026347,58.32751269221188,1.332766033447365,59.36902822034936,1,c,2.6941824000005,correct,c
264,4F4K,265,2,68.69846330487772,57.63909927481386,2.0863105186163327,58.80870416260418,1,v,1.6619074999998702,correct,v
265,4F4K,266,2,57.78498130704839,46.26494768717362,1.6627248384736193,49.068252103163374,1,v,1.0017596000016056,correct,v
266,4F4K,267,2,65.63717592243749,55.39197187665094,1.9576397185611485,56.95043576970485,1,b,1.0298469999997906,incorrect,v
267,4F4K,268,2,55.294960761695855,36.60073230792205,1.578822323075887,40.53580653114134,1,v,0.4929279999996652,correct,v
268,4F4K,269,2,56.40213737036932,38.19589214804243,1.6155933592638814,41.93386525525201,1,v,0.48455449999892153,correct,v
269,4F4K,270,2,59.9088443197877,75.76194492299456,1.7378039447115134,71.58197843943734,2,b,1.5237046999991435,correct,b
270,4F4K,271,1,45.614600154196886,59.51437297404279,1.2909543668652372,60.32429970076835,1,c,1.522361399998772,correct,c
271,4F4K,272,2,56.58373842052433,51.755719242182,1.6217058385338263,53.86248579217429,1,v,0.6316611000002013,correct,v
272,4F4K,273,2,52.936317518540086,39.23260326826513,1.5032547587236578,42.84669940314347,1,v,0.6120088999996369,correct,v
273,4F4K,274,1,37.84653077649494,51.718992303798046,1.0983942081735003,53.83086703045042,1,c,0.6736428999993223,correct,c
274,4F4K,275,1,30.117169821390902,46.19908731936616,0.9353090775289432,49.01013800908369,1,c,1.4205149000008532,correct,c
275,4F4K,276,2,47.78424806977267,31.71286243479985,1.3505316424934766,36.32588669621015,1,v,0.6973723999999493,correct,v
276,4F4K,277,2,47.19216203491302,34.20148595162084,1.3340057278313942,38.45291380195519,1,v,0.6908276000012847,correct,v
277,4F4K,278,1,59.59874953819793,43.34598246217558,1.7266342195478528,46.486176699784046,2,n,0.793160799999896,correct,n
278,4F4K,279,2,47.53019481148585,62.87724092084214,1.3434157465415404,62.94951595069655,2,v,1.1521781999999803,incorrect,b
279,4F4K,280,2,34.689954032416495,52.11396849616244,1.0286118084174671,54.17050444702448,2,b,0.7165676000004169,correct,b
280,4F4K,281,2,50.723143903223765,33.00349198381682,1.435640290275125,37.42416212088736,1,v,0.9759725000003527,correct,v
281,4F4K,282,2,53.13578505200528,68.18056384335091,1.5095029241223048,66.80438750294248,2,v,0.8966110000001208,incorrect,b
282,4F4K,283,2,35.60663821325952,53.62285664687033,1.0484071853127637,55.45924688855006,2,b,0.583032300000923,correct,b
283,4F4K,284,2,34.272923333497914,49.74256109938477,1.0197303450887751,52.118961335677405,2,b,0.6133840000002238,correct,b
284,4F4K,285,2,69.3183201985163,55.489401689429656,2.1133762045557334,57.031876168618346,1,v,0.6969810999999027,correct,v
285,4F4K,286,2,33.321825688857174,51.2533492563728,0.9997607338889966,53.42934195853186,2,b,0.6484229999987292,correct,b
286,4F4K,287,1,62.11268040219166,49.25870608874846,1.8192961551926612,51.6970729332027,2,n,1.5540663000010682,correct,n
287,4F4K,288,1,61.79403759465775,42.575321127588914,1.807281364312199,45.80336384404517,2,n,0.9943437000001722,correct,n
288,4F4K,289,1,47.274004256136976,25.16219642964404,1.3362779533068518,30.958392970882173,2,c,0.44340179999926477,incorrect,n
289,4F4K,290,2,58.448467364839466,47.53379254823922,1.6858241100093925,50.185798277071726,1,v,0.7697965000006661,correct,v
290,4F4K,291,1,45.79346563001628,49.64406825197205,1.2957648870062637,52.03316314250274,1,c,1.9350488999989466,correct,c
291,4F4K,292,1,64.57817626319614,47.5684004690351,1.9150011889924117,50.2162180473328,2,n,0.8136165999985678,correct,n
292,4F4K,293,1,68.97382604106471,61.12558347345978,2.098291014984126,61.59784546170196,2,n,1.2310304000002361,correct,n
293,4F4K,294,1,51.78616428299965,66.39864626421684,1.4677283015625435,65.55177421546676,1,c,0.6376811000009184,correct,c
294,4F4K,295,1,40.49645913473564,58.51765444984257,1.1606184546416347,59.52299993233856,1,c,1.4506062000000384,correct,c
295,4F4K,296,1,44.67067463048079,57.45396931774113,1.265862090653075,58.65727074843632,1,c,0.5769359999994776,correct,c
296,4F4K,297,2,55.68018631163613,44.87658657593975,1.591520333689226,47.84146862849533,1,v,0.5386517000006279,correct,v
297,4F4K,298,1,52.72297272283564,38.92383624214029,1.4966005201929673,42.574534562546944,2,c,1.2141841000011482,incorrect,n
298,4F4K,299,2,57.641810277651366,67.18584493852524,1.6577820055979522,66.1107357367302,2,b,0.9085295000004407,correct,b
299,4F4K,300,2,58.67352448340211,74.37791221260981,1.693732140973515,70.78113873135612,2,v,0.38276760000007926,incorrect,b
300,4F4K,301,2,50.70748403450213,36.15224396199218,1.4351728676164324,40.14444997856225,1,v,1.612715900000694,correct,v
301,4F4K,302,2,33.74070602335772,48.71365077314008,1.0085070580459303,51.22068262282798,2,v,0.6800763999999617,incorrect,b
302,4F4K,303,1,57.10199687678899,51.203928637043575,1.6392772830239863,53.386657588254,2,n,1.0184943999993266,correct,n
303,4F4K,304,2,66.56706343222643,47.16677748650852,1.99586190480453,49.86298341701546,1,v,0.5647852000001876,correct,v
304,4F4K,305,2,58.17524343642816,39.99974743067346,1.6762732041822035,43.52382007357436,1,v,0.7458268000009411,correct,v
305,4F4K,306,1,22.01859481529664,43.894318025376165,0.7903468548734218,46.97191086864785,1,c,0.9568765000003623,correct,c
306,4F4K,307,1,39.4702031580619,51.320003711011786,1.1361128106227818,53.486890506677305,1,c,0.4738296999985323,correct,c
307,4F4K,308,2,44.66060128109493,32.08647521597206,1.2655969590350178,36.64267327415035,1,b,1.2856776999997237,incorrect,v
308,4F4K,309,1,50.868210627068606,40.274188147825576,1.4399775493374871,43.76633174449899,2,n,1.6510588000001007,correct,n
309,4F4K,310,2,50.05467300350043,57.567362349933845,1.415822286380744,58.750061584848766,2,v,0.5027735000003304,incorrect,b
310,4F4K,311,1,66.17813461080836,50.69576787079584,1.9797853743655365,52.94702495844137,2,n,1.6437182999998186,correct,n
311,4F4K,312,2,71.06196684391406,52.94803630004549,2.191409355847263,54.88466570546355,1,v,0.5587278000002698,correct,v
312,4F4K,313,2,38.84447894088833,51.178856938596034,1.1214259567614229,53.36499832551785,2,b,0.5526774999998452,correct,b
313,4F4K,314,2,37.54574408651333,48.455385186443294,1.0915455406221162,50.994559343621,2,b,1.231109700000161,correct,b
314,4F4K,315,2,66.41660555332788,50.44573593442501,1.9896272425507964,52.73023431342021,1,v,0.6249415000002045,correct,v
315,4F4K,316,2,57.74844360786664,44.09164137037226,1.6614620130331856,47.146663200096135,1,v,0.7104650000001129,correct,v
316,4F4K,317,1,46.04725852102739,59.32559862354752,1.3026213299902138,60.17330118547002,1,c,0.9824275999999372,correct,c
317,4F4K,318,2,42.75090707666102,55.68290202591788,1.2163236900995231,57.19339764631008,2,b,1.8332125999986602,correct,b
318,4F4K,319,2,69.57278265591593,54.10049853691933,2.124588557627871,55.86408337539304,1,v,0.7992730000005395,correct,v
319,4F4K,320,2,51.840280928139954,63.54204315308233,1.4693809011263652,63.45295874300973,2,v,0.9761582999999519,incorrect,b
320,4F4K,321,1,34.246255413691884,45.9962096856772,1.0191650167095938,48.83106468951655,1,c,1.4905319000008603,correct,c
321,4F4K,322,1,43.9698577778822,53.11239846335541,1.2475483530981188,55.02488757132418,1,c,1.388836199999787,correct,c
322,4F4K,323,1,54.51056984232643,41.33883776894707,1.5532791134373398,44.70817587495047,2,n,0.6133853999999701,correct,n
323,4F4K,324,1,46.02829793261013,63.874403649670704,1.3021078410437188,63.70259807892194,1,c,0.7215341999999509,correct,c
324,4F4K,325,1,67.46923582374708,44.86345589489811,2.0336579900694844,47.82985150761549,2,n,0.9471823000003496,correct,n
325,4F4K,326,1,43.0736660687915,64.69487651585021,1.22451460566458,64.31286022816113,1,c,1.231047799999942,correct,c
326,4F4K,327,1,40.7511491606048,56.43245184252235,1.1667815469544058,57.8161986719787,1,c,0.9943550000007235,correct,c
327,4F4K,328,2,33.30569168403859,22.12980457197737,0.9994253732229998,28.62121796607772,1,b,3.070256099999824,incorrect,v
328,4F4K,329,2,45.3191760793683,59.680728829807485,1.2830481230865305,60.45706335886874,2,b,2.293087899999591,correct,b
329,4F4K,330,1,45.16523963072407,30.084668730610048,1.278947628738683,34.95717847631758,2,n,1.2006854999999632,correct,n
330,4F4K,331,1,53.23832127741954,31.90032436349857,1.5127248910625872,36.48471545385479,2,n,0.915479299999788,correct,n
331,4F4K,332,1,38.50969118428359,50.64702945569134,1.1136460203602476,52.90479033567115,1,c,1.432649099999253,correct,c
332,4F4K,333,2,22.345061342885177,39.84868961274919,0.7957305205472195,43.39039456629825,2,b,1.1582299000001512,correct,b
333,4F4K,334,2,37.71042786348333,51.962046594570815,1.0952899491691177,54.03997386259609,2,v,1.8070470000002388,incorrect,b
334,4F4K,335,1,67.1919523325771,44.731402356765024,2.021965764414871,47.713007576758045,2,n,0.8111302000015712,correct,n
335,4F4K,336,1,43.54466615492648,33.10800212898405,1.2365666351384277,37.51356758997007,2,n,1.238458999998329,correct,n
336,4F4K,337,1,33.855631048789164,51.52699008947474,1.0109200690798936,53.66544695636966,1,c,2.544381900001099,correct,c
337,4F4K,338,2,46.45259070753264,63.58422499257829,1.3136470646129002,63.484718465660976,2,v,1.1699060999999347,incorrect,b
338,4F4K,339,1,77.47382717815539,63.7870075219999,2.5039657266694766,63.63708816751921,2,n,1.1413522999991983,correct,n
339,4F4K,340,1,69.65014197836385,52.17833065601575,2.1280090101790665,54.225763472769685,2,n,1.035977899999125,correct,n
340,4F4K,341,1,60.48388399420211,46.15532566643034,1.758708669492134,48.97151831619211,2,n,1.7832170999990922,correct,n
341,4F4K,342,2,62.17897348372496,42.75398617360949,1.821805831449304,45.96166385025319,1,v,0.8682587999992393,correct,v
342,4F4K,343,1,59.820738298215765,45.47685328678242,1.734623005952041,48.372282181223206,2,n,0.7334004000003915,correct,n
343,4F4K,344,2,39.23027460632931,48.58652881001612,1.130458662647749,51.109411996690845,2,b,0.95660449999923,correct,b
344,4F4K,345,2,47.51658746100405,56.63295165191527,1.3430356715632688,57.98199789438623,2,v,1.1703523999985919,incorrect,b
345,4F4K,346,1,44.89480757087239,60.64663396990117,1.2717756812224366,61.22218743231405,1,c,3.5259712000006402,correct,c
346,4F4K,347,1,55.09507253342496,43.69816205603573,1.5722734749325618,46.79816673809142,2,n,1.255289200000334,correct,n
347,4F4K,348,2,61.61397217693313,46.56076093707063,1.8005269145423293,49.32915361377744,1,v,0.631527500001539,correct,v
348,4F4K,349,2,25.427447204406857,34.6143838847239,0.8484040518737408,38.80935900916389,2,b,0.6133828000001813,correct,b
349,4F4K,350,2,46.345624295707786,58.95501295025053,1.3107283614333285,59.87582640453404,2,b,2.3733340999988286,correct,b
350,4F4K,351,1,54.80115204354527,69.8501824078531,1.562693195887035,67.93570196786841,1,c,1.837914499999897,correct,c
351,4F4K,352,1,61.101456213831305,39.72444569532245,1.7814397443790058,43.28068590739672,2,n,0.5647821000002295,correct,n
352,4F4K,353,1,69.9838969577831,55.60106907350893,2.1428292713663537,57.1251252332091,2,n,0.6011758000004193,correct,n
353,4F4K,354,1,37.78949194655873,25.336790624121445,1.097092187057866,31.096135980415696,2,c,0.9640321000006224,incorrect,n
354,4F4K,355,1,46.94541049380419,57.69673856538341,1.3271784030034837,58.85578819541163,1,c,0.9692174000010709,correct,c
355,4F4K,356,1,58.64617969052388,49.03802352559154,1.6927693264899626,51.50433167728964,2,n,0.7357412000001204,correct,n
356,4F4K,357,2,48.66254949751797,65.12544088977073,1.3754240573707956,64.62961943462378,2,v,0.9397587999992538,incorrect,b
357,4F4K,358,2,66.97458765303156,55.91299436526978,2.0128471603397027,57.38507243005641,1,v,1.014251399999921,correct,v
358,4F4K,359,2,33.77417415187862,57.12936975686485,1.009209172992259,58.39100564148809,2,b,1.9835891000002448,correct,b
359,4F4K,360,2,40.88944335119323,47.417976989148485,1.1701417445344156,50.08397252012954,2,v,1.9000077999990026,incorrect,b
360,4F4K,361,1,44.792109744585765,55.88103803751795,1.269062649705364,57.35847738372932,1,c,1.4136448000008386,correct,c
361,4F4K,362,1,52.90844477699738,67.27758051145383,1.5023837286721529,66.17530362597826,1,n,0.6787578000003123,incorrect,c
362,4F4K,363,2,60.97584644820365,48.176842587085005,1.7767927280643516,50.75041605143476,1,v,0.6388085999988107,correct,v
363,4F4K,364,2,35.45823479067445,51.60900847410567,1.0451768270852404,53.73613517184703,2,b,1.4184423999995488,correct,b
364,4F4K,365,2,24.877392578160197,36.895134101671474,0.838755238759399,40.79314454244603,2,b,0.8877330000013899,correct,b
365,4F4K,366,1,46.96116229118629,56.29790476866072,1.327613190720745,57.7047465847456,1,c,1.3028860999984317,correct,c
366,4F4K,367,2,59.31201291202967,43.42098185816605,1.7163697590218032,46.5526216182481,1,v,0.9444249999996828,correct,v
367,4F4K,368,1,40.41050706898508,46.37800576448791,1.1585459073359472,49.1679905300313,1,c,1.1568913999999495,correct,c
368,4F4K,369,1,41.40867483105198,54.87918887149593,1.1828443519754606,56.52059163009108,1,c,5.0,correct,c
369,4F4K,370,2,53.2194873184209,39.93583541448452,1.5121325617182049,43.46736300590244,1,v,0.776114599999346,correct,v
370,4F4K,371,1,55.12557175578027,39.13778856812551,1.5732709482674343,42.76309995424334,2,n,1.370688799999698,correct,n
371,4F4K,372,1,28.519957473122737,47.69525339458695,0.9047547764989812,50.32768859270821,1,c,1.4013692999997147,correct,c
372,4F4K,373,1,61.311362622873,38.94031971219826,1.789232511872711,42.589058142363854,2,n,0.8729770999998436,correct,n
373,4F4K,374,2,78.17255028470092,62.66754271361219,2.540612780884925,62.78959959731554,1,v,0.9168484999991051,correct,v
374,4F4K,375,1,47.68432109090338,43.86818839388027,1.347728255203131,46.94876805345018,2,n,0.9943144999997457,correct,n
375,4F4K,376,1,39.17260052482223,28.39376862674048,1.1291037175736989,33.55821113360648,2,n,1.7104968999992707,correct,n
376,4F4K,377,2,38.17515515655557,25.38777449712372,1.1059258465862365,31.136420641763067,1,b,1.0260781999986648,incorrect,v
377,4F4K,378,1,42.74805423022829,59.18542661219955,1.216251535936406,60.06094516040127,1,n,1.85007190000033,incorrect,c
378,4F4K,379,2,60.55936887667097,48.15646954753004,1.761471418910619,50.73254853159406,1,v,0.7165412000013021,correct,v
379,4F4K,380,1,66.0165912195803,56.49997866319407,1.9731460362505733,57.87207684653093,2,n,0.8794392999989213,correct,n
380,4F4K,381,2,74.46667614853831,58.10101511665066,2.352182964361747,59.18516528455106,1,v,0.6983391000012489,correct,v
381,4F4K,382,1,45.22173093926773,58.13679527612727,1.2804508960719776,59.21424276833066,1,c,1.5528016000007483,correct,c
382,4F4K,383,2,43.230083193339325,27.881133477212973,1.2285039494938106,33.139028238639995,1,b,0.7636727999997674,incorrect,v
383,4F4K,384,2,53.14182407223569,65.13284820732945,1.5096924962253724,64.63504750283877,2,v,0.8972370999999839,incorrect,b
384,4F4K,385,2,52.57619508234397,66.00729885620756,1.4920396269054104,65.27067746201382,2,b,0.9653687000009086,correct,b
385,4F4K,386,2,69.69179859434374,54.74563240132934,2.1298531433379133,56.40830814302667,1,v,0.6548148000001675,correct,v
386,4F4K,387,2,66.4275214283941,49.23024173690098,1.990078917788758,51.67222355046667,1,v,0.5405163000013999,correct,v
387,4F4K,388,2,36.0357914015536,41.97891097687414,1.0578050309799625,45.27499752074369,2,b,0.6545196999995824,correct,b
388,4F4K,389,2,38.65004342631698,60.23347651209341,1.1169009915390733,60.896125400653226,2,b,2.251217600000018,correct,b
389,4F4K,390,1,39.29542343641608,22.83598645518612,1.1319911688212274,29.155807378628147,2,n,1.2856218999986595,correct,n
390,4F4K,391,2,38.714151286303405,21.75270570021853,1.118390908897547,28.338281944197096,1,b,0.8985639000002266,incorrect,v
391,4F4K,392,2,42.466018504663936,58.39497151078332,1.2091393787616866,59.42369437613336,2,b,1.10226110000076,correct,b
392,4F4K,393,2,64.45994604903349,56.30316478640764,1.9102988873281288,57.70910658247583,1,v,0.5888551999996707,correct,v
393,4F4K,394,2,35.277863484999784,55.3373112242376,1.04126400830675,56.90471293181013,2,b,0.6532426000012492,correct,b
394,4F4K,395,1,54.29621573459204,67.9102915849786,1.5463709837359518,66.61733931437419,1,n,0.9215490999995382,incorrect,c
395,4F4K,396,2,51.07821331366501,38.45529902638357,1.4462795129218942,42.16200310666759,1,b,0.7637223000001541,incorrect,v
396,4F4K,397,2,73.67739727317088,60.67572888045535,2.313892624550214,61.24507946967924,1,v,0.46164200000021083,correct,v
397,4F4K,398,1,49.85873960674103,60.668971294539,1.4100655081343412,61.239763385328125,1,n,0.5395652999995946,incorrect,c
398,4F4K,399,2,47.10102361645869,33.01737532222661,1.3314799541591238,37.43603502325753,1,b,0.8197695999988355,incorrect,v
399,4F4K,400,2,50.09617666263034,38.31867273884226,1.4170447312124133,42.04182152953005,1,v,0.5877352000006795,correct,v
