,condition,trial,sub_task,x,y,xt,yt,cat,resp,rt,acc,correct_resp
0,4F4K,1,1,56.501466625334,47.22580695021421,1.618933805964217,50.334785511196166,2,c,5.0,NA,n
1,4F4K,2,1,44.38820774110111,27.30013111507693,1.2584485475592366,32.69331493884272,2,c,0.7637168999999631,incorrect,n
2,4F4K,3,1,60.79286153038144,71.73379253459142,1.7700447636765868,70.0190184271172,1,n,0.9095720000000256,incorrect,c
3,4F4K,4,1,44.39409464846779,58.05656021460678,1.2586026097126537,59.77951146820796,1,c,2.2155513000000155,correct,c
4,4F4K,5,2,63.03669696305402,50.97662014802079,1.8545908071575328,53.68473258474374,1,b,1.9532262000000173,incorrect,v
5,4F4K,6,2,46.53991856312175,56.60859960727088,1.3160347252269602,58.56528965326653,2,v,1.164224699999977,incorrect,b
6,4F4K,7,1,45.465540611101744,60.18219143974315,1.286959111942188,61.52494022443691,1,n,1.1035216000000219,incorrect,c
7,4F4K,8,1,54.8175383366982,38.85689316593627,1.5632257639887628,42.76663038527532,2,c,1.9592486999999892,incorrect,n
8,4F4K,9,2,36.95649633789117,46.19599473020091,1.0782523722536796,49.4065637071936,2,b,3.907388600000104,correct,b
9,4F4K,10,2,42.65271517499067,54.204466368642976,1.2138426816284151,56.50955651614473,2,b,1.479800800000021,correct,b
10,4F4K,11,2,54.39732809915596,34.96561983768376,1.549625761364434,39.28674070672793,1,v,0.823665500000061,correct,v
11,4F4K,12,2,53.759512842872304,42.17948782642001,1.5292087765005484,45.77074464483746,1,b,1.2431155000001581,incorrect,v
12,4F4K,13,1,24.95267304334881,34.34644038304083,0.8400692655661578,38.73919862891543,1,c,1.7347211999999672,correct,c
13,4F4K,14,2,47.72010066330735,29.4046286038704,1.3487313587503835,34.45740087360182,1,b,1.47388490000003,incorrect,v
14,4F4K,15,2,59.16869503225649,53.47692527930765,1.711262228619299,55.87874379320235,1,v,0.8304541999998492,correct,v
15,4F4K,16,1,33.62014577442352,50.29131048826563,1.005981917683915,53.07720496990578,1,c,1.1572682999999415,correct,c
16,4F4K,17,1,58.11827060498952,50.38437189495301,1.674288471187861,53.15984171761095,2,c,0.939702699999998,incorrect,n
17,4F4K,18,2,64.24311993895915,50.34980747202445,1.9017051729084549,53.12915408936578,1,b,2.111607499999991,incorrect,v
18,4F4K,19,1,48.34983421833394,64.53142141610283,1.3665090614602204,64.93749659068729,1,c,1.1216305000000375,correct,c
19,4F4K,20,2,64.26668031030641,75.9209565243626,1.9026370924635687,72.58800132326463,2,v,1.7529523000000609,incorrect,b
20,4F4K,21,2,45.84155695446557,69.98873704097672,1.2970613401727975,68.86069460270534,2,v,1.1763650999998845,incorrect,b
21,4F4K,22,2,29.649327729282334,45.31595941589382,0.9262540379432422,48.61148086699166,2,v,1.0126830000001519,incorrect,b
22,4F4K,23,1,44.34155191984824,60.37782483190398,1.2572282173479927,61.68319894342638,1,n,1.4676791999997931,incorrect,c
23,4F4K,24,1,65.78683575461814,51.76967914063941,1.9637415568565149,54.38467777067641,2,c,0.9699838999999884,incorrect,n
24,4F4K,25,2,37.46416442246116,52.98086063486301,1.0896954109377963,55.44654001744338,2,v,1.7529277000001002,incorrect,b
25,4F4K,26,1,41.28793344266124,50.23333219970466,1.1798782546718634,53.02570016955516,1,n,1.0124587000000247,incorrect,c
26,4F4K,27,2,23.30498808630808,36.56214505673314,0.8117737773089255,40.70724681609509,2,v,1.2249477999998817,incorrect,b
27,4F4K,28,2,44.97480416942316,61.358966882793176,1.2738930184032904,62.470477911588496,2,b,0.7811234000000695,correct,b
28,4F4K,29,1,41.94298280158335,52.173238580947256,1.1960597681337697,54.73948092721786,1,n,1.1520603000001302,incorrect,c
29,4F4K,30,1,30.393881981758263,48.096503780051776,0.94070642265316,51.11725564884499,1,c,1.5465611999998146,correct,c
30,4F4K,31,1,41.640381789665,23.23323259227177,1.1885572973857828,29.412440055587293,2,n,0.7992884000000231,correct,n
31,4F4K,32,1,49.31243921108884,33.80266083373081,1.3941378082734592,38.26007263483624,2,n,1.2794894000001023,correct,n
32,4F4K,33,2,48.75044097885856,62.69080672201927,1.3779401524378334,63.52130581253241,2,b,1.7468562999999904,correct,b
33,4F4K,34,1,60.38207516300548,41.37210073652437,1.7549893247011004,45.03938254968742,2,n,1.0436887000000752,correct,n
34,4F4K,35,1,74.46424825883541,62.46328079975658,2.352064213763483,63.34329152412163,2,n,1.00654140000006,correct,n
35,4F4K,36,2,49.65780117917142,62.07767179958071,1.4041859864958672,63.04016293910353,2,v,1.9835385000001224,incorrect,b
36,4F4K,37,1,34.86273621442852,51.19159377884361,1.0323141594952618,53.87480665564736,1,c,3.186572500000011,correct,c
37,4F4K,38,1,31.246428778541656,47.3500258646192,0.9575321703188192,50.44655978509866,1,c,0.9458625999998276,correct,c
38,4F4K,39,2,50.7934319683369,30.195833346569053,1.437740155217153,35.130760937306164,1,b,2.1110879000000295,incorrect,v
39,4F4K,40,2,35.28153634531665,45.17643642558424,1.0413435378648837,48.4853005121556,2,v,2.0759451999999783,incorrect,b
40,4F4K,41,1,41.065978788845015,53.163897477598624,1.1744451718095903,55.6062049047909,1,n,5.0,incorrect,c
41,4F4K,42,2,49.09411358594904,64.55672914013641,1.387822832804193,64.9566635067514,2,b,1.0432220000000143,correct,b
42,4F4K,43,2,51.42361159933268,32.23246341953198,1.4567045999685566,36.8866541023612,1,v,0.891134600000214,correct,v
43,4F4K,44,1,55.13175816354002,40.15822372324549,1.5734733511603538,43.9411081958866,2,c,1.3160305999999764,incorrect,n
44,4F4K,45,2,43.59251564713547,64.60845155627878,1.2377976340054262,64.99580928907453,2,v,1.0549943000000894,incorrect,b
45,4F4K,46,2,44.376778723065165,50.52443301770461,1.258149500530617,53.2841332917084,2,b,0.611871199999996,correct,b
46,4F4K,47,1,59.03866689839399,46.60701347202286,1.7066414665471126,49.77735318650456,2,c,1.1641958000000159,incorrect,n
47,4F4K,48,2,53.01530352956051,67.62451207294225,1.5057258352248055,67.21470803097395,2,b,1.2556577000000289,correct,b
48,4F4K,49,1,46.24586980951453,37.18003040376706,1.3080122881098488,41.25995824379444,2,n,1.583013400000027,correct,n
49,4F4K,50,1,60.567831574693855,41.70213599287922,1.7617814243928844,45.33828404280288,2,n,1.3341350999999122,correct,n
50,4F4K,51,2,43.16535926016997,58.32148586541164,1.2268516226873762,59.99953940268353,2,b,2.852124200000162,correct,b
51,4F4K,52,1,26.153792292550342,37.89773316200899,0.8613155416811795,41.90372247030642,1,c,1.0129512999999406,correct,c
52,4F4K,53,1,50.14114225275818,67.943886511104,1.4183703346711374,67.44202582972544,1,n,1.4494474999999056,incorrect,c
53,4F4K,54,2,60.9590961307366,43.70121576534849,1.7761739557221567,47.14969423625625,1,v,2.742804399999841,correct,v
54,4F4K,55,1,48.40747869429696,63.29200997698324,1.368148055007795,63.98861044182639,1,c,1.9668748999999934,correct,c
55,4F4K,56,1,28.795791690312107,52.59797396171001,0.909959190668548,55.11184055124656,1,n,1.4980198999999175,incorrect,c
56,4F4K,57,1,51.84080466048324,32.89764957313933,1.4693969038117132,37.46655735989828,2,n,0.9639320999999654,correct,n
57,4F4K,58,1,39.910380127597065,55.14722715022522,1.1465596424122877,57.32119450060223,1,c,2.167007799999965,correct,c
58,4F4K,59,1,37.71699721822607,54.23193253693537,1.0954395824492806,56.53329682470681,1,c,0.9821305000000393,correct,c
59,4F4K,60,1,40.48348042882158,52.89188194940419,1.1603052638561109,55.36884368138858,1,c,0.9214843999998266,correct,c
60,4F4K,61,1,63.58598245674958,47.36576736021314,1.8758955148630263,50.46072104100179,2,n,0.6293996999997944,correct,n
61,4F4K,62,2,53.557123589646814,40.15523642903055,1.5227865238366338,43.9384081253496,1,b,1.2795332000000599,incorrect,v
62,4F4K,63,1,50.17927423066187,65.07687234676769,1.4194954521776886,65.34870356318747,1,c,2.3190349000001333,correct,c
63,4F4K,64,1,41.18128758943177,58.62380865887295,1.1772646107424194,60.249786990409525,1,c,0.9277178999998341,correct,c
64,4F4K,65,1,60.28562902339246,47.48347467523036,1.7514731485899864,50.566588780545466,2,n,0.7820533000001433,correct,n
65,4F4K,66,1,47.40021587481402,60.48653365464912,1.3397896167172847,61.77095827095698,1,c,1.6800591000001077,correct,c
66,4F4K,67,1,48.75874403167213,62.84899809971118,1.3781780841687978,63.644699645404216,1,c,1.613848699999835,correct,c
67,4F4K,68,2,67.00772408620534,56.031632012176985,2.014234596177995,58.07623744298182,1,v,1.4919148999999834,correct,v
68,4F4K,69,1,48.39937198586597,43.69333078930263,1.3679174398964846,47.14255038627626,2,c,1.1576173999999355,incorrect,n
69,4F4K,70,2,39.73704409012191,26.6900323403769,1.142434397133677,32.18980627203212,1,b,1.0068324999999732,incorrect,v
70,4F4K,71,2,46.19216972210776,24.347564896068334,1.3065524957886308,30.2930023562988,1,v,1.1461866999998165,correct,v
71,4F4K,72,1,59.15682315076969,73.18641997316024,1.710839823447311,70.94472702184929,1,c,2.518970599999875,correct,c
72,4F4K,73,1,60.445177506582425,44.45716917672189,1.7572936917179598,47.83438716106842,2,c,1.3888119000000643,incorrect,n
73,4F4K,74,1,51.45679286003901,64.27574465499558,1.457710051007373,64.74338441916653,1,c,1.9774670000001606,correct,c
74,4F4K,75,2,32.6124595515667,41.83538738508222,0.9851216441056764,45.45898988796977,2,b,2.044255499999963,correct,b
75,4F4K,76,2,55.61279284622898,73.17429883660652,1.589291526911616,70.93715114800472,2,b,1.1583329000000049,correct,b
76,4F4K,77,1,67.08312990096343,46.46503095922171,2.0173954334611715,49.64931202271109,2,n,1.9531824000000597,correct,n
77,4F4K,78,2,79.77010476452881,67.77853441986828,2.626430016115101,67.32452423017311,1,b,1.4434045000000424,incorrect,v
78,4F4K,79,1,51.513437764098455,61.75511982321829,1.4594280959164374,62.78524024014178,1,n,1.8621129999999084,incorrect,c
79,4F4K,80,1,31.340339395578244,48.91106020604308,0.9594038817875834,51.84693571989008,1,c,1.9524834000001192,correct,c
80,4F4K,81,1,64.21751585233382,53.52476307500117,1.9006929327043127,55.92033534679823,2,n,4.023887500000001,correct,n
81,4F4K,82,1,54.26170052092515,40.62287319488718,1.54526151483924,44.36126332330525,2,c,0.8971725999999762,incorrect,n
82,4F4K,83,1,44.72597804964702,53.06850799422539,1.2673186723090857,55.52302325157966,1,c,1.5890216999996483,correct,c
83,4F4K,84,1,47.66453713621095,57.07342806038743,1.3471739195300083,58.95717288221921,1,c,0.8424729000003026,correct,c
84,4F4K,85,1,54.61350696079051,38.00531167951194,1.5566074950591713,42.00036770364108,2,c,1.8014367999999195,incorrect,n
85,4F4K,86,1,54.795380040546405,73.4428876526766,1.562505644222848,71.10442926282869,1,c,1.7225805000002765,correct,c
86,4F4K,87,1,34.45425260872884,39.46295322385316,1.0235826355489452,43.313148524538576,1,n,0.4784237999997458,incorrect,c
87,4F4K,88,1,34.343515997097875,45.46163758503888,1.021228340298544,48.74319431603623,1,c,0.8065848000001097,correct,c
88,4F4K,89,2,48.25042294275399,65.30649487370101,1.3636871325505897,65.5206136595008,2,v,0.915395499999704,incorrect,b
89,4F4K,90,1,49.95434078424128,32.79202062884194,1.4128714650634016,37.374276145916895,2,n,1.6136700000001838,correct,n
90,4F4K,91,2,60.97190551801004,49.711799448519066,1.7766471270397612,52.56168881523561,1,v,1.3705309000001762,correct,v
91,4F4K,92,2,51.42901862262358,39.13675364943607,1.456868395052556,43.01888560971706,1,v,1.873437400000057,correct,v
92,4F4K,93,1,66.50547776325935,50.21383872125175,1.9933075641798883,53.00837958248414,2,c,3.4172302000001764,incorrect,n
93,4F4K,94,2,68.67431446406097,49.6743426753819,2.0852631177859897,52.52831547840885,1,b,0.7518949999998767,incorrect,v
94,4F4K,95,1,59.5104626308583,70.21852654996663,1.7234672435688585,69.01603777001141,1,n,0.6912802000001648,incorrect,c
95,4F4K,96,1,44.73330220773085,66.71179050509728,1.2675117016515227,66.55680626248025,1,c,0.4847404000001916,correct,c
96,4F4K,97,2,51.65541584634129,42.21527399177261,1.4637432069665317,45.803170360439054,1,b,0.8970871000001353,incorrect,v
97,4F4K,98,2,70.25915645645745,59.38009693938746,2.155129696271588,60.87178083050585,1,v,0.43599589999985255,correct,v
98,4F4K,99,1,66.34999915316637,53.09174539748539,1.986873434447001,55.54329230583199,2,c,0.8607773999997335,incorrect,n
99,4F4K,100,1,44.42549221964751,32.84444629161405,1.2594246122899777,37.42006805786142,2,c,1.2309697000000597,incorrect,n
100,4F4K,101,1,67.16529536572892,50.50695908045121,2.0208452669380423,53.26863205236887,2,c,0.9582417999999961,incorrect,n
101,4F4K,102,1,68.17129884307933,48.65284605176089,2.063565118639548,51.61589415569446,2,n,0.4483170999997128,correct,n
102,4F4K,103,1,50.00636939726108,41.3557049721822,1.4144008843840483,45.02453604199769,2,n,0.6544353999997838,correct,n
103,4F4K,104,1,62.9579097968259,51.32087183971454,1.8515548573454197,53.98899104686355,2,n,0.6791214999998374,correct,n
104,4F4K,105,2,37.90894511010241,52.61700439319911,1.099820706108129,55.12849804401765,2,b,1.5650700000001052,correct,b
105,4F4K,106,2,62.09898696554747,43.513236348405805,1.8187781898000996,46.9793747784234,1,b,1.5344199999999546,incorrect,v
106,4F4K,107,2,48.103474368309726,31.46682816653321,1.359526460689459,36.2229428888561,1,v,0.6484142999997857,correct,v
107,4F4K,108,2,63.36322864761955,58.54154282334169,1.867226394063249,60.18178097278002,1,b,0.5207930000001397,incorrect,v
108,4F4K,109,1,69.86391402263813,56.12516382656783,2.137489629818857,58.15571072122149,2,c,1.9410422000000835,incorrect,n
109,4F4K,110,1,44.26091009154116,34.41055599827017,1.2551217384259463,38.79580062756103,2,c,0.782407400000011,incorrect,n
110,4F4K,111,1,31.35952184022798,46.11075834886799,0.9597866525533976,49.32962231727938,1,n,0.6908143000000564,incorrect,c
111,4F4K,112,1,51.29452703268221,65.00710393723288,1.4527997011604508,65.2963289248908,1,c,1.0975358999999116,correct,c
112,4F4K,113,1,46.91244607260457,40.06960293333208,1.326268965969345,43.86101493455186,2,c,0.5755131999999321,incorrect,n
113,4F4K,114,2,46.10384849354295,67.45602996764725,1.3041550989288615,67.09418036812355,2,v,2.203493200000139,incorrect,b
114,4F4K,115,2,40.82808791732772,61.41759951295163,1.1686497707152086,62.51717922556842,2,b,0.7509578999997757,correct,b
115,4F4K,116,2,64.97576001165268,44.14190497490949,1.9308991304738317,47.54889811761314,1,b,0.9700277000001734,incorrect,v
116,4F4K,117,1,51.440050834479166,40.39999421480736,1.4572026512337937,44.15968355478813,2,c,0.7514349000002767,incorrect,n
117,4F4K,118,2,44.67609315158087,24.89461712435337,1.2660047296729493,30.73057989455057,1,b,0.8418311999998878,incorrect,v
118,4F4K,119,2,70.60197146337822,55.24271893213264,2.1705477244736704,57.40302297360027,1,v,1.2613108999998985,correct,v
119,4F4K,120,1,74.56051719585946,63.943728753586726,2.356777424264046,64.49003722465471,2,c,1.0185686999998325,incorrect,n
120,4F4K,121,1,22.678822102241988,42.66807426999184,0.801272385751388,46.21348750277483,1,n,4.284795300000042,incorrect,c
121,4F4K,122,1,27.556236864138253,38.23269379011371,0.8868039527926592,42.20476045760647,1,c,1.006790699999783,correct,c
122,4F4K,123,2,72.40026969282289,59.129895801817405,2.2532510934269343,60.666654317718326,1,b,1.4980476000000635,incorrect,v
123,4F4K,124,1,53.183778551305,39.30597122584455,1.5110101551331565,43.17150501206663,2,n,1.491934300000139,correct,n
124,4F4K,125,1,43.7617040289168,53.01953501411676,1.2421600902721823,55.48029444290394,1,c,1.407115900000008,correct,c
125,4F4K,126,1,49.07716372657077,30.602953461637103,1.3873337636082603,35.47923934875824,2,n,0.8485981000003449,correct,n
126,4F4K,127,1,48.07936174280563,66.57943382221839,1.358844954182434,66.46040056923354,1,c,1.1573145000002114,correct,c
127,4F4K,128,1,53.41321519180623,44.11871792997716,1.5182364103413646,47.52789742343747,2,n,1.0307062000001679,correct,n
128,4F4K,129,2,43.22551799477863,60.6132799428114,1.2283873323687344,61.87311429079983,2,v,1.9713573999997607,incorrect,b
129,4F4K,130,1,61.51155720881135,49.23823983510757,1.7966964856903014,52.13930608123234,2,c,2.147220500000003,incorrect,n
130,4F4K,131,2,40.323812725566704,52.659645163495725,1.1564592106813472,55.16581356034531,2,v,1.1581568999999945,incorrect,b
131,4F4K,132,2,47.26641151532888,38.75064353144749,1.336066989570055,42.67091400765269,1,b,0.8173447000003762,incorrect,v
132,4F4K,133,1,57.12146135859752,74.29046776003284,1.6399409189313443,71.62408906220094,1,n,1.4616156000001865,incorrect,c
133,4F4K,134,2,54.799185831101454,42.04626848913075,1.5626293045467,45.65004031981716,1,v,0.7030196000000615,correct,v
134,4F4K,135,1,40.50009095367627,53.21022236536223,1.160706109658222,55.64657939455461,1,c,2.331879200000003,correct,c
135,4F4K,136,1,45.94632490950079,55.6043741138515,1.299890183259301,57.7122706458385,1,c,0.7097665000001143,correct,c
136,4F4K,137,1,34.80969496571733,43.0944560939273,1.0311761841401228,46.59988915009694,1,n,1.6076990000001388,incorrect,c
137,4F4K,138,1,70.57124191040631,50.80950992499364,2.1691611808206064,53.53680953903298,2,c,1.934982399999626,incorrect,n
138,4F4K,139,2,60.97669937905699,46.57291690903108,1.776824241892312,49.746609024829006,1,v,1.1399246000000858,correct,v
139,4F4K,140,2,24.296516503970643,39.29923008569486,0.8286848746491655,43.16542380257625,2,b,0.6186805000002096,correct,b
140,4F4K,141,2,39.60496301932311,49.86984634061086,1.139300950528484,52.70243654836055,2,b,0.7150634999998147,correct,b
141,4F4K,142,1,44.53020571679889,65.21206554905517,1.2621699417498546,65.45000456786244,1,c,0.7272751999998945,correct,c
142,4F4K,143,1,40.92809142831049,46.23341777149085,1.1710825235136078,49.44033984314268,1,c,0.7818954000003941,correct,c
143,4F4K,144,1,48.03134914769478,66.08314591354083,1.3574889687562182,66.09669657718187,1,c,0.8055220999999619,correct,c
144,4F4K,145,2,35.932891113316735,49.42683555698588,1.05554401112017,52.30763604519058,2,b,0.8792005999998764,correct,b
145,4F4K,146,1,58.718309289969625,42.3439087064079,1.6953102041532369,45.91973004460245,2,c,0.5816746999998941,incorrect,n
146,4F4K,147,2,33.95663462210463,49.41164910133027,1.0130455461744812,52.29408704152375,2,b,0.5041275999997197,correct,b
147,4F4K,148,1,45.8910983432554,61.06030208866987,1.2983982408050174,62.23197654340365,1,c,0.8249049000000923,correct,c
148,4F4K,149,2,53.29782668506319,72.89970627895201,1.5145978653912011,70.76485155174414,2,b,1.030725000000075,correct,b
149,4F4K,150,2,45.41551493065078,60.07184018628052,1.2856210426604364,61.43548728167655,2,b,0.9449692999996842,correct,b
150,4F4K,151,2,55.89425491911919,34.85779295180037,1.5986206691217968,39.1912435749576,1,b,1.1087483000001157,incorrect,v
151,4F4K,152,2,65.60255638382044,50.203340938422286,1.9562309344468136,52.99905120921244,1,v,0.48449040000014065,correct,v
152,4F4K,153,2,53.50219081883608,65.10859859742428,1.5210480457396425,65.37249846302564,2,v,1.0367999000000054,incorrect,b
153,4F4K,154,1,52.31440578394047,73.89988927001876,1.4839393959375566,71.38617965150382,1,c,1.6436950999996043,correct,c
154,4F4K,155,1,45.99459449971667,66.39456356603668,1.3011955873484955,66.3253265549933,1,c,1.0732379999999466,correct,c
155,4F4K,156,2,54.08119617186043,65.96681731900202,1.5394722746131226,66.0109428877707,2,b,1.041917900000044,correct,b
156,4F4K,157,1,42.2116100862989,35.85560531341472,1.2027595900319046,40.07715969509735,2,n,0.879426500000136,correct,n
157,4F4K,158,1,55.8785860088689,43.51530156583442,1.5980998820647712,46.98124606692104,2,c,2.082003800000166,incorrect,n
158,4F4K,159,1,42.24867712413438,47.92475198319939,1.2036870193281926,50.963098965179285,1,n,0.5153885999998238,incorrect,c
159,4F4K,160,2,63.87190596146713,81.75780356999803,1.8870820845474905,75.63427031137344,2,b,1.5344028999998045,correct,b
160,4F4K,161,1,61.76313242267355,47.24384726347229,1.80612027906312,50.3510212524802,2,n,1.9650900000001457,correct,n
161,4F4K,162,2,55.3173338623568,69.58804599861308,1.5795570182365208,68.58781512913832,2,b,1.0844093999999131,correct,b
162,4F4K,163,1,42.01509310963792,56.92106168440835,1.1978545951584207,58.82892964043954,1,n,1.0722928999998658,incorrect,c
163,4F4K,164,2,39.68929653032456,57.4382011211908,1.141300656835116,59.26333678070871,2,v,1.0552232000000004,incorrect,b
164,4F4K,165,1,52.69238184530703,71.60962709876583,1.4956488062790745,69.93824719868265,1,c,1.1278248999997231,correct,c
165,4F4K,166,2,61.514175226804745,45.86610695427561,1.796794300785687,49.10869529656875,1,b,0.3135449999999764,incorrect,v
166,4F4K,167,2,67.19772775774146,55.76795064857311,2.0222086101906123,57.85179457279891,1,v,1.1217458000000988,correct,v
167,4F4K,168,1,55.623981268728976,72.00930220559299,1.5896613292588957,70.19732458092696,1,c,1.5282256000000416,correct,c
168,4F4K,169,2,58.26140866781464,45.7662733426735,1.6792793684612572,49.018508370611634,1,b,0.6726172000003316,incorrect,v
169,4F4K,170,2,50.81213244182396,37.39543482345957,1.4382993513570683,41.45298205937572,1,v,0.5998366000003443,correct,v
170,4F4K,171,2,27.50547708039513,48.985385592511285,0.8858684072885078,51.9133913710279,2,b,0.9214709000002586,correct,b
171,4F4K,172,1,53.66155193341556,34.81451440934592,1.5260968878868164,39.152930768321234,2,n,0.9516914000000725,correct,n
172,4F4K,173,2,50.0566648292017,64.48905573712574,1.4158809293276184,64.90539177757937,2,v,0.812189600000238,incorrect,b
173,4F4K,174,1,32.53970090644683,52.84197575771051,0.9836323081189956,55.32524302701941,1,c,0.9882073000003402,correct,c
174,4F4K,175,2,45.89126348669594,57.1895619315834,1.298402699591832,59.05477915648122,2,b,1.2179667000000336,correct,b
175,4F4K,176,2,69.50483547355361,54.67282182563007,2.12158879955992,56.91361428584591,1,v,0.933644099999583,correct,v
176,4F4K,177,2,42.60090227729513,21.640120030889648,1.212535568839458,28.179921518518707,1,b,0.7506248999998206,incorrect,v
177,4F4K,178,1,44.07415237063842,66.4608848015722,1.2502569034763524,66.37383960500034,1,c,1.4741070000000036,correct,c
178,4F4K,179,2,47.13435542593618,34.44694968644645,1.3324031434452348,38.82793942055434,1,b,0.8425970999996935,incorrect,v
179,4F4K,180,1,44.52119633565656,36.8930133584421,1.2619335029052146,41.00303042962395,2,c,0.9942926000003354,incorrect,n
180,4F4K,181,2,66.61457635935491,56.74968240046796,1.9978347978927609,58.68443538540635,1,v,1.1820189999998547,correct,v
181,4F4K,182,2,59.91886280866664,39.495636053531726,1.7381660167221171,43.342644926249264,1,v,0.6966198000000077,correct,v
182,4F4K,183,2,42.09903363099092,59.14309478637752,1.1999472690962238,60.67749158237387,2,b,0.539144800000031,correct,b
183,4F4K,184,2,56.32475132914154,50.21427635019427,1.6129956411685968,53.00876844993523,1,b,0.7697147000003497,incorrect,v
184,4F4K,185,2,59.384988548509575,43.03255172949032,1.7189763027837477,46.54378986978247,1,v,0.6122309999996105,correct,v
185,4F4K,186,2,45.16575553819569,61.94019666034745,1.2789613493551275,62.93166278031605,2,v,0.5512517000001935,incorrect,b
186,4F4K,187,1,38.48163015151336,55.52929407666166,1.1129963832375926,57.64815727402509,1,c,1.589060999999674,correct,c
187,4F4K,188,1,56.90224774799408,41.088757080816585,1.6324823937342203,44.78285165243169,2,n,0.5027218999998695,correct,n
188,4F4K,189,2,31.873310719814956,43.29302406416605,0.970095928762204,46.77983160903998,2,v,0.8785540000003493,incorrect,b
189,4F4K,190,1,67.62735301040814,56.82530551001184,2.04035556957056,58.74822738793036,2,n,1.030713999999989,correct,n
190,4F4K,191,1,63.98641836456198,74.40070908967085,1.8915809935979917,71.6907541869226,1,n,0.5216113000001315,incorrect,c
191,4F4K,192,2,48.39684282783978,33.21599005568671,1.3678454997781757,37.745102051555456,1,b,1.309831000000031,incorrect,v
192,4F4K,193,2,61.302161784551465,51.22862258207859,1.7888902178220245,53.907521509096576,1,v,0.466295799999898,correct,v
193,4F4K,194,2,47.38950072762654,57.282873420815285,1.3394911244521237,59.13311503109984,2,v,0.6665806000000885,incorrect,b
194,4F4K,195,2,52.34973172703929,61.81803828084059,1.4850298720784103,62.83506316346675,2,b,1.24303910000026,correct,b
195,4F4K,196,1,47.03449302624677,38.34579798962354,1.329639172224831,42.30648794736258,2,c,0.5816463000001022,incorrect,n
196,4F4K,197,1,39.48979742587274,51.97280434964703,1.136575815634742,54.56338240062514,1,n,0.9639558999997462,incorrect,c
197,4F4K,198,2,44.960365648332726,58.580723691003136,1.2735106014034565,60.214178685003766,2,b,1.3637085000000297,correct,b
198,4F4K,199,2,69.73866353297143,53.71913083289687,2.131929758693348,56.089161704485214,1,v,0.6294462000000749,correct,v
199,4F4K,200,2,58.21059163552499,39.10409277380156,1.6775057935969035,42.98943628821677,1,v,0.8789761000002727,correct,v
200,4F4K,201,2,65.94450182166032,56.24835056008455,1.970190393986332,58.26026836408525,1,v,1.9712153000000399,correct,v
201,4F4K,202,1,36.78509166213647,61.72593652022771,1.0744160413207058,62.76211520713112,1,c,0.8305875999999444,correct,c
202,4F4K,203,1,35.20450936225406,48.52202178568451,1.0396769206436711,51.49874002911643,1,c,0.5269384999996873,correct,c
203,4F4K,204,1,46.40820636453666,55.660089794126485,1.31243519802672,57.75981843143138,1,n,0.7031393000002026,incorrect,c
204,4F4K,205,1,42.7414403511628,61.3036059212504,1.2160842742378433,62.42634612797092,1,c,0.5032860999999684,correct,c
205,4F4K,206,1,36.7616461263064,49.74994621639766,1.0738923522631718,52.59567049285271,1,c,1.4190698000002158,correct,c
206,4F4K,207,2,57.66118870901951,45.42691016122316,1.658450165273072,48.71179907398852,1,v,1.3951340000003256,correct,v
207,4F4K,208,1,32.90847339190122,49.48775387418239,0.9912041972959452,52.36197601696652,1,c,1.661892699999953,correct,c
208,4F4K,209,1,55.56711193569775,40.08978553759807,1.58778256324739,43.87925422581317,2,n,0.4906084999997802,correct,n
209,4F4K,210,2,38.979568314966514,59.79409980186016,1.1245805883040818,61.209764984719214,2,v,0.7940413999999691,incorrect,b
210,4F4K,211,1,62.349040310601126,38.72976467086857,1.8282599444793348,42.6521085493933,2,n,0.9396565000001829,correct,n
211,4F4K,212,2,77.55013678997452,55.635757180341685,2.5079422080936578,57.739056089833234,1,v,0.92080309999983,correct,v
212,4F4K,213,1,46.77071939125159,32.32288093821989,1.322366041573726,36.96530540294398,2,c,1.1581129000001056,incorrect,n
213,4F4K,214,2,23.856380359369403,36.8539167040944,0.8211350430306169,40.96805688842584,2,v,1.7164416999999048,incorrect,b
214,4F4K,215,1,41.3811406830546,21.75975723351085,1.1821673005831093,28.271360153489557,2,c,0.7998978999999053,incorrect,n
215,4F4K,216,2,52.96939740429117,45.75776800964376,1.5042891686588813,49.01082400159658,1,v,1.1412752000001092,correct,v
216,4F4K,217,1,55.91155355073181,46.45339013538919,1.5991958202859449,49.638812083573534,2,n,1.2613126000001103,correct,n
217,4F4K,218,2,44.10135325988752,37.5944828126913,1.2509642820634397,41.631495993911685,1,v,1.6800525999997262,correct,v
218,4F4K,219,2,53.19776227487205,38.348188451097904,1.5114495956263114,42.30863837176951,1,b,1.5276750999996693,incorrect,v
219,4F4K,220,1,56.96051794053043,39.46861738524351,1.634461662711599,43.31826028659496,2,n,1.1339461000002302,correct,n
220,4F4K,221,2,23.577744142760128,35.10950236129939,0.8163910798843895,39.414263248751055,2,b,1.0367376000003787,correct,b
221,4F4K,222,2,51.93078842149672,66.55760800705134,1.4721489540519237,66.44447906148616,2,v,1.2795324000003347,incorrect,b
222,4F4K,223,2,40.05084382616372,60.63062169563836,1.149913478841284,61.88707768706154,2,b,1.3159746000001178,correct,b
223,4F4K,224,2,36.89212071669317,53.17270420584346,1.0768099317181978,55.613881515767744,2,b,0.6361136999998962,correct,b
224,4F4K,225,2,44.7316829412476,52.3341917334382,1.2674690230963894,54.88071689928788,2,b,0.7691327000002275,correct,b
225,4F4K,226,2,58.139925931766406,38.97503494053306,1.6750425895773005,42.87309457744213,1,v,0.7521228000000519,correct,v
226,4F4K,227,2,26.214321286212897,34.50177961350174,0.8624003319916289,38.87637264735552,2,v,0.800105899999835,incorrect,b
227,4F4K,228,1,36.16589304777664,51.956914589449326,1.0606706782720732,54.54941168506856,1,c,0.8485461999998734,correct,c
228,4F4K,229,1,55.66330828888225,71.94792949422894,1.5909618580089375,70.15771466532416,1,n,0.963983300000109,incorrect,c
229,4F4K,230,1,59.32000134586862,51.3342208395559,1.7166548971434397,54.000776302569726,2,n,1.2856213999998545,correct,n
230,4F4K,231,1,67.28902417702761,55.81359132400856,2.02605133005244,57.8906848460004,2,n,0.7337815999999293,correct,n
231,4F4K,232,2,54.23210292916414,35.61383563347391,1.5443107536606029,39.86206196808816,1,b,1.055000199999995,incorrect,v
232,4F4K,233,1,33.682547470749995,45.407916092596665,1.007288133951352,48.6946266731093,1,c,0.8061733999998069,correct,c
233,4F4K,234,1,57.300555421786456,45.14095046995197,1.6460597018962229,48.45320330673181,2,c,1.176325600000382,incorrect,n
234,4F4K,235,1,42.73912910166528,53.84094691687174,1.2160258293160715,56.19483578073527,1,c,0.5572615000000951,correct,c
235,4F4K,236,2,50.68391027654863,39.43340163030551,1.434469514672866,43.28648011841702,1,v,1.6502991000002112,correct,v
236,4F4K,237,2,43.27026273346876,28.452367246266142,1.2295308058031362,33.65412642247992,1,b,1.1642449999999371,incorrect,v
237,4F4K,238,1,62.74867479846019,47.18669150495212,1.843516391296431,50.29957959718363,2,n,0.630166299999928,correct,n
238,4F4K,239,2,58.72240364203441,68.74029693399942,1.695454548428334,68.0022051390421,2,b,0.8486201999999139,correct,b
239,4F4K,240,1,58.8874935207342,76.43754717136446,1.7012849569307789,72.88339486684029,1,n,1.315552999999909,incorrect,c
240,4F4K,241,2,59.24483565163308,78.77482514376817,1.713973815601071,74.15813147108774,2,b,2.0066388999998708,correct,b
241,4F4K,242,1,49.24012134403861,44.17995179136168,1.3920428685937063,47.5833564430538,2,c,0.7573443999999654,incorrect,n
242,4F4K,243,1,33.01952601119373,45.45306418129503,0.9934958046300962,48.73544374153644,1,c,0.624106700000084,correct,c
243,4F4K,244,2,27.783293157378345,43.032695627224335,0.8910009003671807,46.54392027407187,2,b,0.9037358000000495,correct,b
244,4F4K,245,2,28.891292468939696,42.87156912692225,0.9117680585370762,46.39790174339721,2,b,0.7455756999997902,correct,b
245,4F4K,246,1,49.82854850497343,34.981001289539726,1.4091805379319422,39.30036819935896,2,n,0.7758766000001742,correct,n
246,4F4K,247,1,63.488121139246985,46.34635771162612,1.8720820073511275,49.54225480546298,2,n,0.7940082999998594,correct,n
247,4F4K,248,1,61.59543960542932,57.3764613098402,1.7998331719838596,59.21160274436405,2,n,0.915429199999835,correct,n
248,4F4K,249,1,60.47275320144223,69.94954911719462,1.7583016488290348,68.83411878500092,1,c,1.491994099999829,correct,c
249,4F4K,250,2,51.40083492922493,41.1604281205283,1.4560148279127352,44.84773227808566,1,v,0.9153776999996808,correct,v
250,4F4K,251,2,46.71536273675402,53.46255601132688,1.320844729531507,55.86624767624368,2,b,0.8304581000002145,correct,b
251,4F4K,252,2,58.94407355556096,51.09128916248852,1.7032877795958847,53.78615063917011,1,v,0.9876723999996102,correct,v
252,4F4K,253,2,60.65550303003568,52.24653400287804,1.7649962165080977,54.80381699146639,1,v,0.6548012000002927,correct,v
253,4F4K,254,2,63.779624926603006,45.49849959165204,1.8834643779678104,48.77651707257424,1,v,0.6786829000002399,correct,v
254,4F4K,255,2,57.74913730191904,71.95112239640171,1.6614859797329418,70.15977691578641,2,v,0.9094618999997692,incorrect,b
255,4F4K,256,1,56.37280804908917,42.54319533686333,1.614608331753835,46.10031998201522,2,c,0.9761162999998305,incorrect,n
256,4F4K,257,1,65.02577709745512,53.032204967822544,1.9329084571790989,55.49135045895488,2,n,0.9148535000003903,correct,n
257,4F4K,258,2,30.40254373594532,42.87219542227543,0.9408758742992074,46.39846931663727,2,b,0.7272775000001275,correct,b
258,4F4K,259,2,52.26717695921233,36.40483226424136,1.4824827406923824,40.566771226335895,1,v,0.7043292000003021,correct,v
259,4F4K,260,2,38.71706260976629,20.069365439436517,1.1184586175156814,26.996995902443658,1,b,0.8243861999999353,incorrect,v
260,4F4K,261,2,50.95489942435672,61.1386000179706,1.442575655614699,62.29460065445853,2,b,0.6304239000000962,correct,b
261,4F4K,262,2,53.7992713140437,43.22867129621237,1.530473578995335,46.721516062707664,1,v,0.727782599999955,correct,v
262,4F4K,263,2,39.54687372635553,54.75720914398302,1.1379255822831058,56.98624147846743,2,v,0.6301821000001837,incorrect,b
263,4F4K,264,2,50.44316367781749,37.95936049735021,1.4273062405125938,41.95908204148169,1,v,1.5159521999999015,correct,v
264,4F4K,265,1,33.63968214211404,48.40814220232896,1.006390678190901,51.39670846997151,1,c,0.7029898999999205,correct,c
265,4F4K,266,2,49.21404783600391,58.78287283843068,1.3912883306849344,60.38108774989493,2,b,0.7818490999998176,correct,b
266,4F4K,267,1,39.31044409441992,45.02376153840031,1.132344796735346,48.34719217887443,1,c,0.6787286000003405,correct,c
267,4F4K,268,1,50.57754242667136,41.76749010917665,1.4313001792173334,45.39748352178856,2,n,1.1510409000002255,correct,n
268,4F4K,269,1,40.7490199009676,24.69147789841945,1.1667298868505658,30.567695344626163,2,c,0.6548715999997512,incorrect,n
269,4F4K,270,2,45.8201060703051,58.89473517414343,1.29648290382994,60.47327314339452,2,b,0.8607851000001574,correct,b
270,4F4K,271,2,39.780038081519145,52.32455385531779,1.1434562300848206,54.87226412958433,2,b,0.6305252000001929,correct,b
271,4F4K,272,1,38.15239985071033,18.97582752366451,1.105402664753956,26.1934641748858,2,c,0.5209502000002431,incorrect,n
272,4F4K,273,2,44.340560516311264,56.69689500972669,1.2572022990294638,58.63987647869659,2,b,0.909819399999833,correct,b
273,4F4K,274,1,44.81668971420472,56.76346584893381,1.2697114665466196,58.69606621655041,1,c,1.0251990999995542,correct,c
274,4F4K,275,2,44.93788124849012,28.35785139057684,1.272915310759423,33.574842665585706,1,v,2.0441901999997754,correct,v
275,4F4K,276,1,74.45226370602163,59.706003240429496,2.3514781247112797,61.13799598947232,2,n,1.4251913000002787,correct,n
276,4F4K,277,2,60.10159882521525,46.29381029834482,1.7447834187559468,49.49484053249792,1,v,1.0610392999997202,correct,v
277,4F4K,278,2,53.76446130444429,68.96303098552879,1.529366140739012,68.15714346017353,2,b,1.2067351999999119,correct,b
278,4F4K,279,2,60.861941922999975,80.25636284614421,1.7725892359862063,74.91272939455476,2,b,0.5816156000000774,correct,b
279,4F4K,280,2,52.62683037884354,59.72376982373088,1.4936114696400065,61.15247639416573,2,v,0.8243704999999864,incorrect,b
280,4F4K,281,2,63.973245284844,50.73060356462919,1.891062910413724,53.466912715035576,1,b,2.973964900000283,incorrect,v
281,4F4K,282,1,44.51818786902711,32.97768688217623,1.261854559691835,37.53652864319925,2,c,0.8789717999998174,incorrect,n
282,4F4K,283,1,42.26805030328135,54.68342803245924,1.204172027067668,56.92274539926382,1,n,0.8971639000001232,incorrect,c
283,4F4K,284,2,49.991675919508666,39.79962172852466,1.413968791127315,43.617102865962,1,v,0.7636664999999994,correct,v
284,4F4K,285,1,52.5031205320121,35.11462069749499,1.4897741308918169,39.41880154115357,2,n,1.2795012999999926,correct,n
285,4F4K,286,2,58.97050724878297,42.580761053173816,1.7042242885999386,46.13436242629721,1,v,0.9159488000000238,correct,v
286,4F4K,287,2,55.06150312050367,66.26477494246495,1.5711763224820678,66.23020752338158,2,b,1.1460963999998057,correct,b
287,4F4K,288,1,31.62775712490292,45.24146391593568,0.9651551047933286,48.544113184830415,1,c,0.9097321999997803,correct,c
288,4F4K,289,2,46.32656672072899,58.93065379842718,1.3102090343177746,60.50284674447365,2,b,0.9517548999997416,correct,b
289,4F4K,290,1,43.02472105923557,32.508882806524234,1.223268949696718,37.127276563224754,2,c,1.1347524000002522,incorrect,n
290,4F4K,291,1,31.77663594864545,49.04591663943709,0.968147708330946,51.967496970832144,1,c,1.6982978999999432,correct,c
291,4F4K,292,2,61.09972438133344,41.81207875429841,1.7813755915344294,45.43787485091075,1,v,1.1338971000000129,correct,v
292,4F4K,293,2,64.0771251499932,52.68715135248664,1.8951522503945943,55.18987849168069,1,b,0.7032540000000154,incorrect,v
293,4F4K,294,2,41.4459974375558,57.94577861661528,1.183762715913164,59.68730332027913,2,b,1.0854614999998375,correct,b
294,4F4K,295,1,62.13892509728915,50.37476441753836,1.8202892944770892,53.15131241379017,2,n,1.2309797000002618,correct,n
295,4F4K,296,1,42.8564120363948,55.718895110479565,1.2189951290066456,57.809975328466514,1,c,2.166320100000121,correct,c
296,4F4K,297,2,53.63716258401516,68.28495375391013,1.52532310536856,67.68310012058957,2,v,1.3767680999999357,incorrect,b
297,4F4K,298,2,39.16898884594065,53.44314053018668,1.1290189219625588,55.84936091918178,2,b,0.8546773000002759,correct,b
298,4F4K,299,1,40.8062892577406,52.13548711433901,1.168120153057431,54.70633140779784,1,c,0.7879588000000695,correct,c
299,4F4K,300,2,48.89470988110746,27.305868821508884,1.382080162534607,32.698067806330734,1,b,0.7695942000000286,incorrect,v
300,4F4K,301,2,68.26095388974984,53.92357200110122,2.067415861604719,56.26645244465288,1,v,1.067154699999719,correct,v
301,4F4K,302,1,50.69715917430139,68.72632339003361,1.434864769892127,67.99245947274592,1,c,0.8252646999999342,correct,c
302,4F4K,303,2,69.81728439500958,56.73037211718382,2.135418047752253,58.66813804000383,1,v,1.1278556000002027,correct,v
303,4F4K,304,2,44.46710978827542,54.45402419459116,1.260515006488041,56.725057332506296,2,b,0.6363013000000137,correct,b
304,4F4K,305,1,43.96240641381758,60.96106302128936,1.2473550644982436,62.15250328305528,1,c,0.5512684999998783,correct,c
305,4F4K,306,1,57.58345623762666,69.12135491358556,1.655771609661012,68.26681194696862,1,n,0.7576405999998315,incorrect,c
306,4F4K,307,1,28.19688629079927,48.32902015897685,0.8986969361113227,51.3257905762284,1,c,0.6477394999997159,correct,c
307,4F4K,308,2,64.00312481071943,74.69688635676579,1.89223824447163,71.86879491056835,2,v,0.7454644000004009,incorrect,b
308,4F4K,309,2,38.53516148471692,56.25102170306949,1.1142360080741385,58.2625341267452,2,b,0.6908260999998674,correct,b
309,4F4K,310,2,61.514829309453205,45.68866508945212,1.796818739629673,48.94838607892567,1,v,0.727327200000218,correct,v
310,4F4K,311,1,52.8047334200991,37.73096026915607,1.4991471536050187,41.75397319182964,2,c,0.8067759999998998,incorrect,n
311,4F4K,312,2,45.01010509735485,61.55525426794069,1.2748284783648751,62.62666584939213,2,b,0.9094525000000431,correct,b
312,4F4K,313,1,58.59976775300973,43.66394025734756,1.6911364074928317,47.11592203693209,2,n,0.8668437000001177,correct,n
313,4F4K,314,2,58.09700819298068,42.66337099618699,1.673548365867706,46.209225269004,1,v,1.340059200000269,correct,v
314,4F4K,315,1,46.68704385825594,27.409906602210416,1.3200671466924514,32.784304258207335,2,c,0.6489391999998588,incorrect,n
315,4F4K,316,1,48.33669242693956,30.743675634301688,1.3661356785287635,35.599996792613844,2,n,0.9396651000001839,correct,n
316,4F4K,317,2,52.73267373634989,68.23452259433157,1.496902455237083,67.6475644477486,2,v,1.0671505000000252,incorrect,b
317,4F4K,318,2,50.44927332348772,71.02874454159692,1.4274875863087493,69.55699472828438,2,b,0.8000938999998652,correct,b
318,4F4K,319,1,55.87539926759288,43.49720260130763,1.5979939852124585,46.9648465771878,2,c,1.6072518000000855,incorrect,n
319,4F4K,320,2,46.23849992266975,57.13925195335556,1.30781184733096,59.012510495509474,2,b,0.7519437000000835,correct,b
320,4F4K,321,2,37.0316087612443,24.566211696945903,1.0799378309820118,30.467485212140637,1,b,1.99543390000008,incorrect,v
321,4F4K,322,1,59.38948788733162,44.19271673566649,1.7191371396567847,47.59491714704567,2,n,0.5998369999997522,correct,n
322,4F4K,323,1,58.39889095208681,42.53382384142155,1.68408706834792,46.09182747889483,2,c,1.279277699999966,incorrect,n
323,4F4K,324,1,63.39548974164715,42.77296169599352,1.868479444250992,46.30853990768098,2,n,0.7515565999997307,correct,n
324,4F4K,325,1,38.550338956694894,54.13926554876201,1.1145877238750803,56.45317834066216,1,c,1.7166403999999602,correct,c
325,4F4K,326,2,32.711782633681736,46.051795842924456,0.9871583828746402,49.27638882270748,2,b,1.0065840000002026,correct,b
326,4F4K,327,1,54.66455120653546,40.124920175635935,1.558260610308058,43.911007628080846,2,n,1.0857597000003807,correct,n
327,4F4K,328,2,68.85628484509232,59.68464028306953,2.09316863373848,61.12057998425809,1,v,0.8910309000002599,correct,v
328,4F4K,329,1,47.32799932277327,60.8403987317307,1.3377791632604894,62.05572220849761,1,c,1.0181416999998874,correct,c
329,4F4K,330,1,61.44520022722608,40.864043569737575,1.7942190153738016,44.57946811344093,2,n,0.721151799999916,correct,n
330,4F4K,331,2,60.7503129644584,47.62074123097135,1.7684793692593508,50.68999544532078,1,v,1.0610747000000629,correct,v
331,4F4K,332,1,48.9564778239244,71.66264295156658,1.38385648589199,69.97276600393576,1,n,1.3523702000002231,incorrect,c
332,4F4K,333,1,52.77773610331529,68.77153675633556,1.4983057784501967,68.02398212684979,1,c,0.9277938999998696,correct,c
333,4F4K,334,1,51.03461856382758,39.269064565961216,1.4449690150956802,43.13821266458319,2,n,0.7575897000001532,correct,n
334,4F4K,335,1,33.040993326378384,46.95429134044995,0.9939394004286366,50.09031955770446,1,c,0.6058797000000595,correct,c
335,4F4K,336,2,67.9607063957393,52.361865334733885,2.054548221552128,54.90498448793913,1,b,0.9093474999999671,incorrect,v
336,4F4K,337,1,35.89745090785176,52.52699247563265,1.054766405708811,55.04968979814432,1,c,0.4487358999999742,correct,c
337,4F4K,338,1,26.143386832540997,37.38054123611077,0.8611291942975607,41.4396305274092,1,c,0.5330744000002596,correct,c
338,4F4K,339,2,49.66182300851547,68.3161774177273,1.4043034257134817,67.70508222437664,2,v,0.6536590000000615,incorrect,b
339,4F4K,340,1,40.16797799628879,53.6762481560056,1.1527177790624612,56.05193670201207,1,c,0.9821682000001601,correct,c
340,4F4K,341,1,47.62642276774256,27.24863856631913,1.346106618279322,32.650675253826435,2,n,1.0735462000002371,correct,n
341,4F4K,342,1,60.94207812371036,49.36569475673207,1.775545515359812,52.25308165428983,2,c,0.6785600999996859,incorrect,n
342,4F4K,343,1,58.56310850505862,75.4712311683682,1.6898477325505157,72.32689409761608,1,n,0.7394125999999233,incorrect,c
343,4F4K,344,1,68.48980625767445,52.75910735818539,2.0772778332908333,55.252809429149885,2,c,0.5325003000002653,incorrect,n
344,4F4K,345,1,74.35517439902759,58.33931860996002,2.3467354784661345,60.01432543194421,2,n,1.0610781999998835,correct,n
345,4F4K,346,2,54.33530917976037,71.44934348253138,1.5476285789882438,69.83360292490332,2,b,0.7697331000003942,correct,b
346,4F4K,347,2,61.92285963030146,51.75860097343252,1.8121291617305315,54.37492457045904,1,b,1.13993309999978,incorrect,v
347,4F4K,348,1,39.56818922605592,30.01049071751165,1.1384300720342102,34.97255764935035,2,c,0.515471300000172,incorrect,n
348,4F4K,349,1,20.95414693973821,38.560608181419056,0.7730450563944053,42.49979423653258,1,c,0.7275635999999395,correct,c
349,4F4K,350,2,28.988419350949023,43.9561327501649,0.9136114143891108,47.38063069130842,2,v,0.6300026999997499,incorrect,b
350,4F4K,351,2,45.4281957752108,26.7844175434102,1.2859600937372504,32.26745665082327,1,b,0.5565053000000262,incorrect,v
351,4F4K,352,1,34.062965452767195,45.746820772683165,1.0152879566517747,49.00093322758445,1,c,0.5573285999998916,correct,c
352,4F4K,353,1,61.52313064354608,49.790989003767365,1.7971289357499138,52.63222469561697,2,n,1.2432360000002518,correct,n
353,4F4K,354,2,53.53085345651141,46.14994565321874,1.5219548952714814,49.364997955938655,1,v,1.782559400000082,correct,v
354,4F4K,355,1,52.17344414946253,40.0139680236622,1.479596019634179,43.81074078107462,2,n,1.3763294000000315,correct,n
355,4F4K,356,2,33.061422164699934,50.19227011646546,0.9943617212974436,52.9892130608305,2,b,0.7096197999999276,correct,b
356,4F4K,357,2,46.642902509240656,60.43087546835766,1.318856021501973,61.72604233358307,2,b,1.1278125999997428,correct,b
357,4F4K,358,1,71.35762288077792,54.3923134075272,2.204923628676638,56.67181100072147,2,n,0.7575747000000774,correct,n
358,4F4K,359,2,47.07526752048761,60.17494031607559,1.3307670271180718,61.51906637031151,2,b,1.2312637999998515,correct,b
359,4F4K,360,2,50.64108713904918,40.72373870936924,1.433192713800367,44.45251403979762,1,v,1.4798059999998259,correct,v
360,4F4K,361,2,53.29685613321079,44.81410987072336,1.5145672979970832,48.15748975741784,1,b,4.255106499999783,incorrect,v
361,4F4K,362,2,66.5279391657776,56.18413040053223,1.99423879926176,58.20577610521174,1,b,0.8985764999997627,incorrect,v
362,4F4K,363,1,66.88735413857059,49.27542522099287,2.009199225723276,52.17250750783968,2,n,1.4433907000002364,correct,n
363,4F4K,364,1,51.25765781639871,67.41288401006427,1.4516863045542034,67.0632476283433,1,c,1.7955642000001717,correct,c
364,4F4K,365,1,68.08007098679658,53.951019637139815,2.0596541845763943,56.29023239538942,2,n,1.0306769999997414,correct,n
365,4F4K,366,2,59.086982305377646,47.14212291397704,1.7083569748942484,50.259460298171845,1,v,1.3938553999996657,correct,v
366,4F4K,367,2,43.86214946859533,59.54839887298285,1.2447573067332869,61.00939676973824,2,b,0.9520551999999043,correct,b
367,4F4K,368,2,42.17027776602919,63.052328204237554,1.2017262846071273,63.80284884327904,2,b,0.7213951000003362,correct,b
368,4F4K,369,1,60.42514572035592,48.685062772544704,1.7565618447240618,51.64473460589883,2,n,1.4008983000003354,correct,n
369,4F4K,370,2,40.80655625888701,52.22047516300096,1.1681266386335991,54.78094721204711,2,v,1.9046391000001677,incorrect,b
370,4F4K,371,2,63.8513083408948,52.85956237894376,1.8862739911527615,55.34060945407629,1,v,1.2248405000000275,correct,v
371,4F4K,372,2,56.90704234592902,39.60986712887203,1.632645161748716,43.445757289451855,1,v,1.455594900000051,correct,v
372,4F4K,373,2,46.30976196293687,27.47051910459271,1.3097512681584802,32.83459451216559,1,v,0.9336131000000023,correct,v
373,4F4K,374,2,30.11026610293853,43.36744564954875,0.9351748153275306,46.84726988598364,2,v,0.9396839000000909,incorrect,b
374,4F4K,375,2,28.11039157336576,41.431577063031824,0.8970819861997009,45.09324105562028,2,b,0.5344903999998678,correct,b
375,4F4K,376,1,31.778864835605383,37.83070260377987,0.9681925814694003,41.84352317320699,1,c,1.69223699999975,correct,c
376,4F4K,377,2,60.977687926857485,72.35914842387002,1.7768607671530183,70.42190835486622,2,b,1.3216362000002846,correct,b
377,4F4K,378,1,31.826732654944745,55.700863609200965,0.969156784011922,57.79459871473702,1,c,1.2066741000003276,correct,c
378,4F4K,379,2,47.42396510890778,32.65855010648777,1.3404514371552672,37.25777532721769,1,v,1.5344430000000102,correct,v
379,4F4K,380,1,53.63283109387408,39.95823630104715,1.5251857244751106,43.76038491702092,2,n,0.6550495999999839,correct,n
380,4F4K,381,1,51.58726289464165,65.54578880311966,1.461670258177242,65.69899882566314,1,c,1.0914246000002095,correct,c
381,4F4K,382,1,68.21194537427748,61.60121504690253,2.06531002422486,62.663172695394,2,c,0.7328159999997297,incorrect,n
382,4F4K,383,1,22.86749130313728,39.30745573709925,0.8044221649208643,43.1728442097928,1,c,0.7884438999999475,correct,c
383,4F4K,384,2,48.9089251621446,29.56843682490133,1.3824887636890386,34.59637967059437,1,v,1.613293700000213,correct,v
384,4F4K,385,2,64.25593126503624,52.18492087697962,1.9022118623317827,54.74973739897115,1,v,0.5814604000001964,correct,v
385,4F4K,386,1,66.10751715804636,55.15950124605491,1.976880294710584,57.33171640928975,2,n,1.2310053000001062,correct,n
386,4F4K,387,2,51.40083841531497,36.50086378520573,1.456014933461008,40.65251228018502,1,v,1.5457189999997354,correct,v
387,4F4K,388,1,57.30435678405216,48.2944816692012,1.6461898232949226,51.29482635061172,2,c,0.8304213000001255,incorrect,n
388,4F4K,389,1,41.30219944883741,54.29267047046123,1.180228321322698,56.58577588200577,1,c,0.7095698999996785,correct,c
389,4F4K,390,2,44.275335531300605,58.49799461420808,1.255498291994542,60.14575415323025,2,b,1.188870599999973,correct,b
390,4F4K,391,1,48.3694061054972,36.413572072232455,1.3670653246397109,40.574572906802295,2,n,1.1763163000000532,correct,n
391,4F4K,392,2,71.6931006464615,57.742670271165615,2.220359093874426,59.517943478376935,1,v,1.036704799999825,correct,v
392,4F4K,393,1,48.96565995003093,39.53044663670367,1.384120740448442,43.37406421747765,2,c,0.6058241000000635,incorrect,n
393,4F4K,394,2,67.16664516650832,56.14428954918702,2.020901989461948,58.17195259041416,1,v,0.9700035000000753,correct,v
394,4F4K,395,1,33.64451095474345,45.292611125550245,1.0064917373033169,48.59036751705023,1,c,0.9882348999999522,correct,c
395,4F4K,396,1,46.79837175297945,55.365532932049504,1.3231266401391968,57.50815783114349,1,c,1.1459985000001325,correct,c
396,4F4K,397,2,36.19850367113815,49.03240792145485,1.0613901829790622,51.95542349598646,2,v,1.4980050000003757,incorrect,b
397,4F4K,398,1,52.775470279309886,44.129810158833045,1.4982351852105833,47.53794380077739,2,c,1.0664255000001504,incorrect,n
398,4F4K,399,1,61.9163914309138,44.21145449781398,1.8118854423545367,47.61188693680057,2,n,0.9934283000002324,correct,n
399,4F4K,400,2,47.704726944485714,36.03112495746395,1.3483002551128551,40.23348339459854,1,b,1.1035344000001714,incorrect,v
