,condition,trial,sub_task,x,y,xt,yt,cat,resp,rt,acc,correct_resp
0,2F4K,1,1,32.88201166085631,48.08010718088727,0.9906589310450014,50.817862387568425,1,n,2.912680899999941,incorrect,c
1,2F4K,2,2,75.60803671085576,61.82954486667525,2.408677263852116,62.36479586505412,1,v,2.842193099999804,correct,v
2,2F4K,3,1,47.71832423920532,39.33523372210757,1.3486815379378094,43.04429370803659,2,c,1.7436881999999514,incorrect,n
3,2F4K,4,2,60.04520809684192,39.50351745526908,1.742738663464711,43.19362997627858,1,v,1.5236985000001368,correct,v
4,2F4K,5,2,38.21036346936316,45.45114994571067,1.106735831497928,48.48831112638366,2,v,1.959197500000073,incorrect,b
5,2F4K,6,2,59.56025283555949,43.68173668281586,1.7252525735808892,46.91320185728718,1,v,2.4946168999999827,correct,v
6,2F4K,7,1,63.03380615193671,48.99707062184669,1.854479325996906,51.625538202764425,2,n,2.799680899999885,correct,n
7,2F4K,8,2,45.471570770597566,62.25129727623448,1.287120498550022,62.691981304773925,2,v,0.9338370999998915,incorrect,b
8,2F4K,9,1,26.26165782328223,41.16963573546142,0.8632496412879607,44.67496284288474,1,n,1.2369751000001088,incorrect,c
9,2F4K,10,2,57.785757466165705,35.38949656905892,1.6627516746951552,39.567726141246,1,v,1.419010999999955,correct,v
10,2F4K,11,1,40.30669409075927,59.73254838194193,1.1560476168413805,60.70818821748161,1,c,1.575813700000026,correct,c
11,2F4K,12,1,57.433954774505786,71.8749586226268,1.6506321471911507,69.51067683718536,1,n,1.8377843999999186,incorrect,c
12,2F4K,13,2,35.84115490729621,54.18119401698439,1.053532373855085,56.1154335856699,2,b,1.13919420000002,correct,b
13,2F4K,14,1,37.75764031464431,22.76810694185396,1.096365783922998,29.130303012710563,2,n,1.145912400000043,correct,n
14,2F4K,15,1,42.84531030626239,63.45575724091353,1.2187137515992936,63.61465704677808,1,c,0.8909655999998449,correct,c
15,2F4K,16,2,36.46087309381418,59.29402271098122,1.0671967608744484,60.355786280552216,2,v,0.9274462999999287,incorrect,b
16,2F4K,17,2,27.210584940871517,35.33885443204394,0.8804527866374331,39.52350551333198,2,b,1.145921699999917,correct,b
17,2F4K,18,2,75.33919748057089,61.84852905172625,2.395249471776554,62.37956797333173,1,v,1.564659299999903,correct,v
18,2F4K,19,2,39.58244997156812,51.05723380991208,1.1387677165500527,53.42735844855346,2,b,0.957767899999908,correct,b
19,2F4K,20,1,61.04465782816556,43.12851093729553,1.7793369471292284,46.42021834880325,2,c,0.8546347999999853,incorrect,n
20,2F4K,21,1,44.10109830805718,61.79538410011175,1.2509576500009678,62.33820392596608,1,c,0.8060477999999875,correct,c
21,2F4K,22,1,57.1463480344261,34.43783490138747,1.6407898143469088,38.738873074520185,2,n,0.6604416000000128,correct,n
22,2F4K,23,2,61.79763747833217,41.73914018678871,1.8074166578984028,45.182146294340015,1,v,0.969893299999967,correct,v
23,2F4K,24,2,52.01311852832385,35.96846104169598,1.4746714411868374,40.074126653272224,1,v,0.6307741999999052,correct,v
24,2F4K,25,1,39.43489341016783,55.35535178392448,1.1352789310028084,57.10869619154797,1,n,0.6361574000000019,incorrect,c
25,2F4K,26,2,32.60352969433802,50.14061857575377,0.9849387327070682,52.62810170391717,2,b,0.9516641000000163,correct,b
26,2F4K,27,1,39.84323288410994,56.38160004458301,1.1449598324721155,57.967981821468015,1,c,0.8485792000001311,correct,c
27,2F4K,28,1,56.13385280930648,37.49653741707117,1.6066053482913156,41.41745725427138,2,n,0.6179386999999679,correct,n
28,2F4K,29,2,49.60497387397714,61.40800123971472,1.4026443169611846,62.0357116297892,2,v,0.594025899999906,incorrect,b
29,2F4K,30,1,55.07510652372579,34.17195192284642,1.571620831565087,38.50814733160512,2,n,1.2070043999999598,correct,n
30,2F4K,31,2,53.79480996678815,40.525178506227526,1.5303316018512068,44.10146010636181,1,v,1.5829166000000896,correct,v
31,2F4K,32,1,41.86507716622891,47.31495291720011,1.19412371737061,50.14172475155993,1,c,1.1155616000000919,correct,c
32,2F4K,33,1,59.63224778818712,70.77255125017328,1.72783737140922,68.79922597521653,1,n,1.473663000000215,incorrect,c
33,2F4K,34,2,37.26605570580837,23.161291355714607,1.0852155845926446,29.43200819451737,1,b,2.0016564000000017,incorrect,v
34,2F4K,35,1,44.42308370207072,65.38361804771183,1.2593615372061238,65.05348409237811,1,c,1.1717059999998582,correct,c
35,2F4K,36,1,52.19847018904513,62.46979062637338,1.4803662045452035,62.860658856565095,1,n,1.0199770000001536,incorrect,c
36,2F4K,37,1,41.27658849548405,25.28273976220593,1.1795999406005426,31.091008868651784,2,n,2.0380741999999827,correct,n
37,2F4K,38,1,50.05767938312593,70.21930738281507,1.415910800561635,68.43484281358928,1,c,0.8119931999999608,correct,c
38,2F4K,39,2,44.20288110142568,68.87607149759938,1.2536081228814229,67.53027415601278,2,b,1.7406977000000552,correct,b
39,2F4K,40,2,39.3958525097726,51.05185061967384,1.1343576484560394,53.422676854188666,2,b,0.7627027000000908,correct,b
40,2F4K,41,2,60.91757862250735,73.69017948072931,1.7746411890910203,70.63846382561147,2,v,2.324392400000079,incorrect,b
41,2F4K,42,2,50.51273966065147,66.61651132709487,1.4293727501502538,65.94764762404341,2,b,1.1052016999999523,correct,b
42,2F4K,43,1,40.16233981155412,54.05146706826213,1.152582639175891,56.0050692228306,1,n,0.8241403999998056,incorrect,c
43,2F4K,44,2,59.98162689099821,72.33254393424309,1.7404360519283344,69.80016031660416,2,v,1.4129743999999391,incorrect,b
44,2F4K,45,1,53.1673574552227,35.771762951649066,1.510494282968879,39.90190967272081,2,c,1.4849260000000868,incorrect,n
45,2F4K,46,2,66.50084201708307,53.90782386915163,1.9931154233124504,55.88272668090979,1,b,2.3665436999999656,incorrect,v
46,2F4K,47,1,46.504860492373005,29.35905209352453,1.3150756696295771,34.410733945804445,2,n,1.2625345999999809,correct,n
47,2F4K,48,1,42.44353008073306,56.19013314028634,1.208574076713108,57.808323959536885,1,n,1.2066689999999198,incorrect,c
48,2F4K,49,1,65.23726993139518,75.1029480821988,1.941427856873406,71.47733641752085,1,c,1.4060575000000881,correct,c
49,2F4K,50,1,23.1554426834228,35.96457094260008,0.8092533178790351,40.07071904820285,1,n,0.6609604999998737,incorrect,c
50,2F4K,51,1,43.04001783120523,56.14554520473416,1.223658118065696,57.77109935417086,1,c,1.346185000000105,correct,c
51,2F4K,52,2,27.540974674696105,43.34887307379637,0.8865225539790339,46.61659716504162,2,b,0.6534320000000662,correct,b
52,2F4K,53,1,45.13944952984666,39.6059411938235,1.2782619257079937,43.28455168414633,2,n,0.6312090000001263,correct,n
53,2F4K,54,1,51.74591311756048,67.48846657176489,1.4665003277522188,66.56718656097414,1,c,0.7700720000000274,correct,c
54,2F4K,55,2,44.10432578793525,49.94129531294767,1.2510416090362966,52.45376405838231,2,b,0.6482846999999765,correct,b
55,2F4K,56,1,58.25216111933412,43.408851661219245,1.6789564785105608,46.670045552694376,2,n,1.1944756000000325,correct,n
56,2F4K,57,1,39.75863275341688,50.38601082468536,1.1429473780695476,52.84247884427299,1,n,0.6967938000000231,incorrect,c
57,2F4K,58,1,49.53897800291119,39.05724674259383,1.4007207244810085,42.79774789427268,2,n,0.5867552999998225,correct,n
58,2F4K,59,2,49.9373744306571,33.808310418593514,1.412373084295494,38.19322541905444,1,v,0.6788442999998097,correct,v
59,2F4K,60,1,66.17382326149927,55.93971627645056,1.9796078906258452,57.59904711880965,2,n,0.4419479999999112,correct,n
60,2F4K,61,2,44.72903783993103,52.383322118069664,1.2673993099895984,54.57575452821816,2,v,0.9578129000001354,incorrect,b
61,2F4K,62,1,46.15626800299483,56.3684468402536,1.3055774461580918,57.95702370746766,1,n,0.6907375000000684,incorrect,c
62,2F4K,63,2,51.04404709432088,35.60951032900456,1.4452523446216314,39.75998283561383,1,v,0.6361491999998634,correct,v
63,2F4K,64,1,40.05877209869712,29.389382476484624,1.1501030735667876,34.43601158304148,2,c,1.7043398000000707,incorrect,n
64,2F4K,65,2,46.82162715263524,55.85893179140241,1.3237666356825857,57.5314239465767,2,v,0.9396120000001247,incorrect,b
65,2F4K,66,1,18.73445768028316,35.109895787723225,0.7381744612601017,39.32373420627224,1,n,0.5997465000000375,incorrect,c
66,2F4K,67,1,68.86054410330621,54.57369493131273,2.0933540313505725,56.44861167747211,2,n,1.2612668000001577,correct,n
67,2F4K,68,2,58.382562460523886,49.83504300034875,1.683515348072078,52.36075682879365,1,v,0.8789020000001528,correct,v
68,2F4K,69,2,48.28011020483952,59.162533425747945,1.364529236420472,60.24973694811112,2,v,0.7210708000000068,incorrect,b
69,2F4K,70,2,61.27807647734951,54.45841334356289,1.787994494579603,56.35087043714499,1,v,0.5815281000000141,correct,v
70,2F4K,71,1,42.22404620972223,45.80074576365913,1.2030706661878547,48.7990111770436,1,c,1.006371000000172,correct,c
71,2F4K,72,1,53.30907364068091,71.28092494722864,1.5149521316765664,69.12975304229236,1,n,0.9153119000000061,incorrect,c
72,2F4K,73,1,54.143150915218456,40.85023733378255,1.5414568743682897,44.39066293683914,2,n,1.1757112000000234,correct,n
73,2F4K,74,1,27.420979275312177,44.11022247058269,0.8843132301349338,47.29492258483953,1,c,0.5572343999999703,correct,c
74,2F4K,75,2,36.06153613035916,54.25810456678918,1.058371474899883,56.18080790872501,2,b,0.6545481000000564,correct,b
75,2F4K,76,2,42.07292492980042,54.761051496024805,1.1992959763247375,56.60725129309102,2,b,0.8303472000000056,correct,b
76,2F4K,77,2,67.81493551858017,52.65278777451778,2.0483298629002404,54.80785720692754,1,v,1.1335759999999482,correct,v
77,2F4K,78,1,36.30151057668456,24.88468547180929,1.0636660837784886,30.7758532649026,2,c,1.006374299999834,incorrect,n
78,2F4K,79,2,44.88611826932873,35.13676656085245,1.2715459061746035,39.34716623886887,1,b,0.9759831000001213,incorrect,v
79,2F4K,80,1,52.23410555310615,63.02096544747959,1.4814635869623407,63.28362225844726,1,n,1.13381430000004,incorrect,c
80,2F4K,81,2,63.47677105150365,49.3934425938846,1.871640213614824,51.97367344090304,1,v,2.500558700000056,correct,v
81,2F4K,82,2,51.379715818914576,35.550313444681564,1.4553755454754782,39.70823192613511,1,b,1.2701477999999042,incorrect,v
82,2F4K,83,2,44.13619702204643,24.69289218643686,1.2518710037662475,30.62462536410796,1,b,1.366273000000092,incorrect,v
83,2F4K,84,1,55.24610529078692,43.49157847123044,1.5772191788615484,46.743763311533066,2,n,0.9638453000000027,correct,n
84,2F4K,85,1,48.31018140248019,34.189681559408086,1.3653827610901064,38.52352056223251,2,n,0.8787822000001597,correct,n
85,2F4K,86,2,26.460403832988227,37.437783260783846,0.8668246678835576,41.36564355846361,2,b,1.309813800000029,correct,b
86,2F4K,87,1,52.30195552358593,64.7493024501016,1.483555259860854,64.58541532622172,1,c,3.38079730000004,correct,c
87,2F4K,88,1,44.37017404090743,63.27673430366258,1.2579767175088232,63.478638336121776,1,c,0.7453703999999561,correct,c
88,2F4K,89,2,69.8232046400993,57.704988584265166,2.135680951056071,59.06278145985897,1,v,1.6375332000000071,correct,v
89,2F4K,90,2,58.59957786010128,48.62808428239212,1.6911297296953511,51.30089950227013,1,v,0.5815133000000969,correct,v
90,2F4K,91,2,60.58760469192551,43.7113915889059,1.762505965734951,46.93962394154145,1,v,0.6967394000000695,correct,v
91,2F4K,92,1,49.81450991857576,60.41417085599566,1.4087692240735443,61.25194503703793,1,c,1.133784500000047,correct,c
92,2F4K,93,2,36.52789084641655,57.19926591997912,1.0686850377182298,58.646254000030765,2,b,0.6966866000000209,correct,b
93,2F4K,94,1,61.70289627720814,43.93735595279979,1.80385939343498,47.140937749028346,2,n,1.2430232000001524,correct,n
94,2F4K,95,1,75.40159593465225,62.8130781698685,2.398359419483886,63.12452439270479,2,n,0.878930500000024,correct,n
95,2F4K,96,2,50.40641717392451,32.983838901387195,1.4262160209012358,37.4820828766438,1,b,1.230153400000063,incorrect,v
96,2F4K,97,2,42.93055985852399,24.58903842000136,1.2208760993110506,30.542908205557,1,b,0.6604292999998052,incorrect,v
97,2F4K,98,2,59.01182947940137,74.66456570060689,1.705689309516628,71.22074687166183,2,v,0.8841738999999507,incorrect,b
98,2F4K,99,1,51.06431211693648,66.33909779061457,1.4458615012861802,65.74828302628913,1,c,1.4060587999999825,correct,c
99,2F4K,100,2,46.82406609262711,58.99614904536124,1.3238337739724242,60.11529358721487,2,v,0.6175265000001673,incorrect,b
100,2F4K,101,2,61.8162553890155,41.19643645097682,1.8081165321399049,44.69882377698232,1,v,1.8558252000000266,correct,v
101,2F4K,102,1,50.400871476241264,38.612154829067634,1.4260515598067374,42.403396098135225,2,c,0.9700677000000724,incorrect,n
102,2F4K,103,1,50.81014001677748,64.72897743497316,1.43823976195931,64.57032918664298,1,n,1.8257745000000796,incorrect,c
103,2F4K,104,2,45.274488117712814,62.45563843300712,1.2818563915379062,62.84975052359186,2,b,1.194490500000029,correct,b
104,2F4K,105,1,43.28080690763418,56.81000178818701,1.2298004222081258,58.32407875943462,1,c,1.7762076999999863,correct,c
105,2F4K,106,2,39.41560530722513,49.08143983295536,1.1348236791546291,51.699693171901885,2,b,1.6800085999998373,correct,b
106,2F4K,107,2,40.12787679482101,58.19422764278189,1.1517569502238392,59.46347835160031,2,b,1.1701766999999563,correct,b
107,2F4K,108,2,56.404758511079926,43.41697358160192,1.615681419723246,46.67728309957162,1,v,0.721101200000021,correct,v
108,2F4K,109,2,52.12967367385679,33.90554392399252,1.478249931464736,38.27735848294685,1,v,0.9881479000000581,correct,v
109,2F4K,110,1,63.67647551301621,50.566861150446414,1.8794288049735317,53.00028658337448,2,n,1.1943756999999096,correct,n
110,2F4K,111,1,51.689598878069326,40.28710315272989,1.4647840291677974,43.88974532082111,2,n,0.7567814999999882,correct,n
111,2F4K,112,2,63.89023445468816,52.405345207339344,1.8878014457887524,54.594740658905735,1,v,0.8061098000000584,correct,v
112,2F4K,113,2,46.9302494377466,58.44662183015996,1.3267600556576673,59.66930492864523,2,v,0.7089556999999331,incorrect,b
113,2F4K,114,1,46.96986845041778,30.680037336187347,1.327853562895798,35.51864774937975,2,c,1.1399340000000393,incorrect,n
114,2F4K,115,1,61.67190776092552,42.16530674000965,1.8026973823757824,45.561836662103154,2,n,5.0,incorrect,n
115,2F4K,116,1,36.8311514043329,48.89979992066431,1.0754455942995231,51.54000894100582,1,c,1.0973956000002545,correct,c
116,2F4K,117,2,47.681201805062805,29.770460851974907,1.3476408393625283,34.75426315635931,1,b,2.609878600000229,incorrect,v
117,2F4K,118,2,42.93667228643076,33.114090146159434,1.221031287854879,37.594155539586346,1,v,0.6144073999998909,correct,v
118,2F4K,119,2,61.01860622114398,48.37533835801715,1.7783732916357589,51.0782378686914,1,v,1.4524820999999974,correct,v
119,2F4K,120,2,49.431738137538325,33.5401997502952,1.3976006110430284,37.96152170570232,1,v,1.3340449000002081,correct,v
120,2F4K,121,1,57.21845839484041,45.40033824084545,1.6432520124067056,48.44313505798061,2,n,2.3610030999998344,correct,n
121,2F4K,122,2,68.93551283448541,58.21974264532942,2.0966199707427418,59.484313542661525,1,v,1.0623305999997683,correct,v
122,2F4K,123,2,44.07349273107543,56.0462090325738,1.2502397540461994,57.68810815060704,2,v,1.072136500000397,incorrect,b
123,2F4K,124,2,56.44724515360152,43.344413023580685,1.6171094805937216,46.61262265786638,1,v,2.670713699999851,correct,v
124,2F4K,125,1,24.159778024725668,40.57392131904887,0.8263319415238304,44.14481671544494,1,c,1.6890620999997736,correct,c
125,2F4K,126,1,40.43194135173314,64.02369118149393,1.1590624018434617,64.04350568375946,1,n,0.9109582999999475,incorrect,c
126,2F4K,127,2,32.830944706990714,43.34062587158169,0.9896075013023332,46.60924778898798,2,v,0.9034498999999414,incorrect,b
127,2F4K,128,1,76.0715684627168,55.83192461156354,2.432006448109463,57.50880482989279,2,n,1.176313200000095,correct,n
128,2F4K,129,1,45.84353670218457,64.36361325353336,1.2971147382995092,64.29821889471181,1,c,1.45550940000021,correct,c
129,2F4K,130,1,38.19489195066158,59.91860453726397,1.1063798284024526,60.85710083248407,1,c,0.6361567000003561,correct,c
130,2F4K,131,1,54.270994215912815,37.00219388468301,1.545560176231508,40.98189205696298,2,n,0.672823100000187,correct,n
131,2F4K,132,1,76.85461584140005,60.139978817487496,2.471931003361971,61.03380538616418,2,c,1.4797265000001971,incorrect,n
132,2F4K,133,1,46.35593794337058,51.27607858655598,1.3110094986073255,53.6175515203122,1,c,0.757503700000143,correct,c
133,2F4K,134,2,47.82862508262431,36.04244173685176,1.3517784802430055,40.13894408221264,1,b,1.10954270000002,incorrect,v
134,2F4K,135,2,41.679518304750616,58.92220902040037,1.1895249639180698,60.05545881671225,2,v,0.5997356000002583,incorrect,b
135,2F4K,136,1,55.82893301748767,71.7189477636999,1.596450687605974,69.41119203432575,1,n,4.441501199999948,incorrect,c
136,2F4K,137,1,52.063151813786064,67.81906411994702,1.4762065068233832,66.799219956961,1,c,0.7150328999996418,correct,c
137,2F4K,138,1,30.850880883190563,47.71945830824877,0.9496885905935524,50.49939778685528,1,c,1.2369469999998728,correct,c
138,2F4K,139,1,50.6932250205529,29.477659343793448,1.434747390663199,34.50962657594146,2,n,0.6543345000000045,correct,n
139,2F4K,140,1,33.25274139756814,47.36344130561565,0.9983255412813786,50.18462485929846,1,c,0.48440389999996114,correct,c
140,2F4K,141,2,66.91895650128396,53.72348853635633,2.010520010266749,55.72551496231477,1,v,0.9943228000001909,correct,v
141,2F4K,142,1,50.67360050382096,65.05641323371236,1.4341620178888406,64.81270386670052,1,c,0.9459996999999021,correct,c
142,2F4K,143,2,42.31713947986973,29.424925872294537,1.2054018502521575,34.46564369012668,1,b,0.7696386000002349,incorrect,v
143,2F4K,144,2,48.71703496670095,62.78409861827138,1.3769832869922434,63.102304379361904,2,v,1.812568000000283,incorrect,b
144,2F4K,145,2,55.20359653665866,34.79199520010964,1.5758256203450338,39.04679092504334,1,v,1.492115599999579,correct,v
145,2F4K,146,2,24.20560913099237,45.50944046216194,0.8271198369169783,48.540131200902486,2,b,0.6180178999998134,correct,b
146,2F4K,147,2,59.93175480176559,73.38705057293241,1.7386320492702416,70.45399011879664,2,v,0.806056300000364,incorrect,b
147,2F4K,148,2,32.30850973822542,43.886034337163366,0.9789148589818678,47.09521768366705,2,b,1.4313068999999814,correct,b
148,2F4K,149,1,61.5723903049895,75.29060997294715,1.7989707245334712,71.58614480612904,1,n,1.5466762999999446,incorrect,c
149,2F4K,150,2,42.60708195461686,61.01610999585397,1.21269139303942,61.727963883238274,2,v,0.7696513000000778,incorrect,b
150,2F4K,151,2,33.470499187460646,48.32819967083266,1.0028563553832528,51.03668476122129,2,b,1.0005315000003066,correct,b
151,2F4K,152,1,47.51564271477885,57.00426787345501,1.3430092872883848,58.48503118701255,1,c,1.0912963000000673,correct,c
152,2F4K,153,1,57.44172851344028,34.41176922610818,1.650898994033962,38.71623704480822,2,c,0.9629470000004403,incorrect,n
153,2F4K,154,1,40.73766548255511,48.34395632448607,1.1664544445333251,51.050575241044285,1,n,1.6739266999998108,incorrect,c
154,2F4K,155,1,55.57614455153249,42.3966841362168,1.5880808212263622,45.7680179607134,2,n,1.1155899000000318,correct,n
155,2F4K,156,1,62.75746851056763,53.60931550452322,1.843853527716382,55.62802413096065,2,n,0.6192926999997326,correct,n
156,2F4K,157,2,42.51187699420892,62.289298211043416,1.2102929645986482,62.7213588491769,2,v,0.9095343000003595,incorrect,b
157,2F4K,158,2,33.039151652942365,47.61555622940757,0.993901336734892,50.4075722305903,2,v,0.9031949999998687,incorrect,b
158,2F4K,159,2,43.49685096803382,60.96851347261447,1.2353377417478528,61.69046961178354,2,b,0.7818065999999817,correct,b
159,2F4K,160,1,42.91808183063869,67.23715901106725,1.2205593556612877,66.38974381182905,1,c,1.6618023000000903,correct,c
160,2F4K,161,2,60.01398850933165,48.6789883586025,1.7416076567589611,51.34571620933591,1,v,2.22746989999996,correct,v
161,2F4K,162,2,46.28216223307903,57.887592387561625,1.308999791050359,59.2126007882527,2,v,0.7832960999999159,incorrect,b
162,2F4K,163,1,32.876400718246074,46.23332130861817,0.9905433513974145,49.18313525335582,1,c,1.134018400000059,correct,c
163,2F4K,164,2,66.8341955063801,52.03436822839532,2.0069794785962256,54.27453322504372,1,v,1.1762391000002026,correct,v
164,2F4K,165,1,42.80706570486884,37.01516015058033,1.2177449253744788,40.993305230917294,2,c,1.218749900000148,incorrect,n
165,2F4K,166,2,54.37117608111815,43.16516843059905,1.5487832792927596,46.45288696388429,1,v,1.0053994999998395,correct,v
166,2F4K,167,2,44.08672778724344,53.21101159747939,1.2505838864532706,55.28722829192621,2,v,1.4251051000001098,incorrect,b
167,2F4K,168,1,49.73343765027843,63.08013450945313,1.4063962506784684,63.32880837878786,1,c,1.0488704999997935,correct,c
168,2F4K,169,2,50.5223147081561,38.410529913916506,1.4296573773419494,42.22493072707231,1,v,0.7817942000001494,correct,v
169,2F4K,170,1,64.39556824398136,53.357590762153,1.907743283431856,55.41276725231656,2,c,0.526032899999791,incorrect,n
170,2F4K,171,2,54.17867972941323,42.521066068484,1.5425961249155875,45.87886225657,1,v,0.502505999999812,correct,v
171,2F4K,172,1,51.25280214072068,67.22674001663047,1.4515397338273597,66.38236755178181,1,n,0.8719815999997991,incorrect,c
172,2F4K,173,1,36.27062027164394,42.65751044709717,1.062983061691035,46.00045993785068,1,c,1.182343100000253,correct,c
173,2F4K,174,2,45.004001405411614,27.109107326220524,1.274666683952824,32.55845661848671,1,b,1.8254445000002306,incorrect,v
174,2F4K,175,1,55.29055474559005,33.57495029510239,1.5786776771654438,37.9915296633704,2,n,1.3765597999999954,correct,n
175,2F4K,176,1,69.32036659865587,56.68673063112689,2.1134661384348363,58.22177539109151,2,n,0.5441738999998051,correct,n
176,2F4K,177,1,58.478257932156,38.87438701157017,1.686868763536575,42.6356722360478,2,n,0.582156599999962,correct,n
177,2F4K,178,2,48.40719504962152,57.19164643783824,1.3681399853862417,58.63996064801346,2,v,0.7211087999999108,incorrect,b
178,2F4K,179,1,36.9548485867091,55.42867011770578,1.0782154276229856,57.1703689071211,1,c,0.8485719000000245,correct,c
179,2F4K,180,1,60.317349725460645,52.07393770509153,1.7526288249547648,54.30872633520882,2,n,0.5271819999998115,correct,n
180,2F4K,181,1,35.91806432486644,49.66252614947975,1.0552186218671415,52.209638373453856,1,c,0.903299899999638,correct,c
181,2F4K,182,1,36.60210057576934,51.8628545463078,1.0703354499204163,54.12621812366739,1,c,0.8606918999998925,correct,c
182,2F4K,183,1,59.68044875857865,41.49898287097376,1.729570070022311,44.96823409482313,2,n,0.8303533000002972,correct,n
183,2F4K,184,2,63.06359453314985,48.79534299031803,1.855628405637291,51.44812010362756,1,v,0.8243128000003708,correct,v
184,2F4K,185,2,36.94890094406058,49.62725873428268,1.078082084608695,52.17872934203601,2,b,1.0245377999999619,correct,b
185,2F4K,186,2,26.6693594850388,41.00101621149437,0.8705993116480396,44.52485766992806,2,b,0.6302244999997129,correct,b
186,2F4K,187,2,54.79156519578649,44.85093406466314,1.5623816995245805,47.954414193144856,1,v,0.47228069999982836,correct,v
187,2F4K,188,1,70.97305710793658,59.44759637663607,2.187361564271588,60.47942425512438,2,n,0.8841387000002214,correct,n
188,2F4K,189,2,67.30797097542732,54.11819504098744,2.0268497264156475,56.06185258669024,1,v,0.9208177999998952,correct,v
189,2F4K,190,2,53.28792985900361,47.86135640153626,1.5142861951724789,50.62474849850305,1,v,0.7031766000000061,correct,v
190,2F4K,191,2,28.637816148014835,41.95352832577953,0.9069748709324416,45.37314080974376,2,b,0.48457760000019334,correct,b
191,2F4K,192,1,43.67851338643653,62.39249028345256,1.2400131341109424,62.80104762006071,1,c,1.054913999999826,correct,c
192,2F4K,193,2,38.90354995885232,55.40481867829397,1.1228043036636046,57.15031060283116,2,v,1.783149500000036,incorrect,b
193,2F4K,194,2,60.23478663047916,54.8969644939892,1.7496224034145678,56.72216746767182,1,v,0.5748381000003064,correct,v
194,2F4K,195,2,43.78807758249351,29.543502761371,1.2428415058094129,34.56457672648705,1,b,0.6307073999996646,incorrect,v
195,2F4K,196,1,45.62178869682175,56.950242230331625,1.291147355137842,58.44030347233854,1,c,1.3401449999996657,correct,c
196,2F4K,197,1,69.56121440262996,52.70506934999912,2.124077538556985,54.85283765980135,2,n,0.5814897000000201,correct,n
197,2F4K,198,2,65.47503470923164,53.68762502210308,1.9510503929754317,55.69490120758267,1,v,0.6731725999998162,correct,v
198,2F4K,199,2,46.41450022108938,58.201767688819366,1.3126069769377395,59.46963609437495,2,b,0.8728156000001945,correct,b
199,2F4K,200,2,39.17019118724006,50.955593932593445,1.1290471500289696,53.33893989812516,2,b,0.7089880999997149,correct,b
200,2F4K,201,2,32.389291431977554,53.24952734929739,0.9805606299919316,55.320229181169495,2,b,3.2714802999998938,correct,b
201,2F4K,202,2,45.998160711884864,38.91176097208306,1.3012920840744229,42.66879139142124,1,v,0.6058158000000731,correct,v
202,2F4K,203,1,63.72069312355278,47.36183289357219,1.881157695690356,50.18320192527952,2,n,0.7818007999999281,correct,n
203,2F4K,204,1,45.15460767378678,25.51844242490505,1.2786649034354527,31.278434778919387,2,n,1.7103115999998408,correct,n
204,2F4K,205,2,53.91135727243648,62.76997053144586,1.53404490896981,63.09146800890596,2,v,1.170087799999692,incorrect,b
205,2F4K,206,1,43.4427191575102,29.653198997295185,1.23394797930106,34.656205011564,2,c,1.0184605999997984,incorrect,n
206,2F4K,207,1,48.11320130479927,58.51338607885544,1.3598014744236084,59.72364802299379,1,n,1.0973770000000513,incorrect,c
207,2F4K,208,2,25.165424621440145,42.10426314628622,0.8437940026708809,45.50744412960038,2,b,0.7266702000001715,correct,b
208,2F4K,209,2,35.89511668629403,47.916618251222765,1.0547152098844452,50.67354861180146,2,v,1.0185169000001224,incorrect,b
209,2F4K,210,2,50.94590664784245,57.785875910021495,1.4423059198652766,59.12918469475889,2,v,0.5206510999996681,incorrect,b
210,2F4K,211,1,43.434085272457125,58.50110924946871,1.233726460371562,59.713658486893024,1,c,1.0124284000003172,correct,c
211,2F4K,212,1,33.764898699495525,45.96137610045483,1.0090145379099271,48.94169394119837,1,c,0.6778446999996959,correct,c
212,2F4K,213,2,65.76632011639003,51.394439017513086,1.9629039823605787,53.72030917592648,1,v,0.6422362000002977,correct,v
213,2F4K,214,1,59.78148537258679,43.37556978102898,1.7332077121111285,46.640387403455534,2,n,1.3401358999999502,correct,n
214,2F4K,215,1,33.13413053811604,45.15715518933733,0.9958662618383838,48.22686692119,1,c,0.8243846000000303,correct,c
215,2F4K,216,2,53.03973229091389,68.2124668256857,1.5064909108683104,67.07324770950703,2,v,0.6786300000003394,incorrect,b
216,2F4K,217,2,62.40815517967242,46.66116353667807,1.830508731623024,49.56265665141101,1,v,1.2790498999997908,correct,v
217,2F4K,218,1,29.24461383808472,47.00633431343164,0.9184915889849768,49.86851964053393,1,c,0.5089327000000594,correct,c
218,2F4K,219,1,35.11130026998933,58.2240306796456,1.0376637407483902,59.48781448009476,1,n,0.6361136999998962,incorrect,c
219,2F4K,220,2,56.45760086323138,48.75300285525627,1.6174577479466774,51.410862396134064,1,v,0.5694103000000723,correct,v
220,2F4K,221,1,58.803875910083065,79.51158733984862,1.698329368112782,73.86537503013078,1,n,0.8913265999999567,incorrect,c
221,2F4K,222,2,53.37227337954993,40.04931683164634,1.516944393058547,43.67838115283406,1,v,1.0488202000001365,correct,v
222,2F4K,223,2,54.755320172986536,44.00849669339062,1.5612045853644974,47.20431071105402,1,v,1.2602563000000373,correct,v
223,2F4K,224,1,58.41494898182336,75.75810267524803,1.684649508122963,71.854493004814,1,n,1.5524190999999519,incorrect,c
224,2F4K,225,1,47.94671295989075,30.76576313403907,1.3551019435555764,35.59102417323346,2,c,2.220854099999997,incorrect,n
225,2F4K,226,2,59.27283147807208,68.71569608710524,1.7149719076846992,67.42042843653074,2,v,1.4159657999998672,incorrect,b
226,2F4K,227,2,57.15450042453252,76.62976694201394,1.641067991483634,72.34442192530565,2,b,0.9337039000001823,correct,b
227,2F4K,228,2,38.37677907243077,56.51955228887828,1.110572341968112,58.08282301195169,2,v,1.8802554999997483,incorrect,b
228,2F4K,229,2,58.23747545253095,77.55475411505446,1.6784438373017576,72.84929486086433,2,b,0.7454028000001927,correct,b
229,2F4K,230,1,59.02319969920491,75.8592880196236,1.706092645385978,71.91206376214768,1,c,1.692414799999824,correct,c
230,2F4K,231,2,48.80540713019903,56.5371226001655,1.3795160232837802,58.097438106059776,2,v,1.164420500000233,incorrect,b
231,2F4K,232,1,49.8434542326562,34.016408217004795,1.4096173894435675,38.37335156965902,2,n,1.4008010000002287,correct,n
232,2F4K,233,1,38.13822670936372,51.931166910078055,1.1050769260645266,54.18531109173678,1,n,0.8545976999998857,incorrect,c
233,2F4K,234,1,40.47360312634017,29.77273524861049,1.1600669700619228,34.756166201444444,2,c,1.934077100000195,incorrect,n
234,2F4K,235,1,51.82848641402727,33.871470160092,1.4690205649180463,38.24786937297435,2,n,0.6846467000000303,correct,n
235,2F4K,236,2,69.40672669195436,57.9958470074437,2.117264927031761,59.30127218600571,1,b,1.3037171000000853,incorrect,v
236,2F4K,237,2,38.50496563469316,49.39726604486858,1.113536593264629,51.97702845579144,2,b,0.8303521999996519,correct,b
237,2F4K,238,2,43.734191357537554,29.241497257982523,1.2414496414117333,34.31283637716097,1,b,0.6543508000004294,incorrect,v
238,2F4K,239,1,49.18532167654413,63.907173430882345,1.3904575015452445,63.95585526073819,1,c,1.0602427999997417,correct,c
239,2F4K,240,1,65.20924331392469,74.33369952028549,1.940296727938652,71.02486574750192,1,c,0.8546691999999894,correct,c
240,2F4K,241,1,29.308470980324827,47.19096047535047,0.91971203831682,50.03199197072204,1,n,1.9046448999997665,incorrect,c
241,2F4K,242,1,36.81002984661569,52.6046940031094,1.074973351075694,54.76646470426189,1,c,0.6740430999998352,correct,c
242,2F4K,243,1,54.77113157809761,61.46764405816983,1.561717976537744,62.08239626425944,1,c,0.6112077999996472,correct,c
243,2F4K,244,2,55.02157350248484,44.016270034379374,1.5698722957050038,47.211235066261104,1,v,0.6907715000002099,correct,v
244,2F4K,245,2,48.69400528380113,34.12914545728928,1.3763240229974358,38.47103735561068,1,v,0.7332353000001604,correct,v
245,2F4K,246,2,67.92491901330443,56.57811193509391,2.05301984135194,58.131522988481386,1,v,0.5747585999997682,correct,v
246,2F4K,247,2,72.69407546337303,60.97832978608095,2.26705951279592,61.69820449971959,1,v,0.5147852000000057,correct,v
247,2F4K,248,1,60.12804426194911,47.1952760148767,1.7457431693800765,50.035811930913226,2,n,1.030609800000093,correct,n
248,2F4K,249,2,39.36252624721456,58.290653320144,1.1335718107621329,59.54218547046114,2,b,1.0183293999998568,correct,b
249,2F4K,250,1,72.39460213243524,61.433113143197374,2.2529855553099964,62.05537257682249,2,c,1.3332172000000355,incorrect,n
250,2F4K,251,2,65.43956131594331,44.46399106438268,1.949611734303328,47.60997131096093,1,v,1.4251242000000275,correct,v
251,2F4K,252,2,34.342773896919006,53.890096315663214,1.0212125812947672,55.86761787940987,2,b,0.806082300000071,correct,b
252,2F4K,253,2,53.874459290494926,67.63454350948203,1.532868330754282,66.66990840849664,2,v,1.6253799000000981,incorrect,b
253,2F4K,254,1,49.70999847905789,34.93785830764972,1.4057109347388226,39.17379811469653,2,c,0.7096647000003031,incorrect,n
254,2F4K,255,1,48.53098583581105,62.76321118665947,1.371666329285736,63.08628267593525,1,c,0.7575394000000415,correct,c
255,2F4K,256,1,30.925963490304746,51.24609597727966,0.9511724964760352,53.59150936451465,1,n,0.5451301000002786,incorrect,c
256,2F4K,257,1,48.73039958037892,59.66296489621712,1.37736601667278,60.65240315011086,1,n,1.4068993999999293,incorrect,c
257,2F4K,258,2,32.674450890685605,45.5071884694121,0.9863923573124,48.53812929376415,2,b,0.7575212000001557,correct,b
258,2F4K,259,2,47.50676439835144,32.91860588953688,1.3427613646059526,37.425994053405205,1,b,1.401010000000042,incorrect,v
259,2F4K,260,2,59.24796893089163,42.991910364967744,1.7140854927069693,46.298480127085305,1,v,2.3127369999997427,correct,v
260,2F4K,261,1,55.1282258615221,74.41391906702162,1.573357780395542,71.07253248010517,1,n,2.688256200000069,incorrect,c
261,2F4K,262,2,41.020690743011016,30.49022137755076,1.1733396722748075,35.35859164741527,1,b,1.995530200000303,incorrect,v
262,2F4K,263,2,47.09610791825854,61.64225989295164,1.3313438584718094,62.21884100101524,2,v,0.5503436999997575,incorrect,b
263,2F4K,264,2,30.929893889254465,52.698123114150086,0.9512502393126004,54.84686244915761,2,v,0.848448499999904,incorrect,b
264,2F4K,265,1,57.62011227509176,72.80182315578084,1.6570341875873646,70.0934340661758,1,c,0.5330684999998994,correct,c
265,2F4K,266,2,67.1706884065426,59.75663372830999,2.0210719076033987,60.727485679325866,1,v,0.8667654999999286,correct,v
266,2F4K,267,2,29.085308537063614,42.46603004918497,0.9154539721544348,45.82981582971574,2,b,0.7636453000000074,correct,b
267,2F4K,268,1,47.88817490616411,35.72410823667532,1.3534534294634524,39.860212285098505,2,c,2.0502316000001883,incorrect,n
268,2F4K,269,2,51.59290059977879,63.8891154907552,1.4618416238935237,63.9422557303341,2,v,1.812714500000311,incorrect,b
269,2F4K,270,1,58.17560043543122,44.591163130948544,1.6762856481859685,47.7231942719549,2,n,2.5927746000002116,correct,n
270,2F4K,271,2,51.26400067745895,64.76643922663455,1.4518777889262546,64.5981307958638,2,v,1.240020100000038,incorrect,b
271,2F4K,272,1,67.95617958752297,56.65873419309455,2.054354831242064,58.19852261087701,2,n,1.297637499999837,correct,n
272,2F4K,273,2,59.63879857579812,42.95018547323168,1.728072753099928,46.26129456838551,1,v,1.1945910999997977,correct,v
273,2F4K,274,2,60.73116886902061,73.68222769667108,1.767775494935952,70.63364467089107,2,v,0.5694109000000935,incorrect,b
274,2F4K,275,2,62.65167680071601,52.26756898565699,1.8398017355434224,54.475915465995946,1,v,0.6535957999999482,correct,v
275,2F4K,276,2,50.75561858747714,55.90355015219524,1.4366100941991444,57.56877975266338,2,b,1.3400292000001173,correct,b
276,2F4K,277,1,39.0610744231383,31.774967925224928,1.1264882244541394,36.44718512519578,2,c,1.1216592999999193,incorrect,n
277,2F4K,278,1,51.05782748244252,67.24208035619606,1.4456665484170204,66.39322739874677,1,c,0.6533755000000383,correct,c
278,2F4K,279,2,55.67346294081836,38.18907510407305,1.5912978410675034,42.02904723906461,1,v,1.0489563999999518,correct,v
279,2F4K,280,1,46.08077158696102,58.26213838394895,1.303529423135463,59.518919531393536,1,c,1.1098909000002095,correct,c
280,2F4K,281,2,73.86265906240251,60.75521808843786,2.3228238814270843,61.52213708999407,1,v,2.081812400000217,correct,v
281,2F4K,282,2,56.72339868987204,44.64372067852288,1.6264223669236793,47.76998174811824,1,v,0.9213752000000568,correct,v
282,2F4K,283,1,47.38435090578355,58.08066871567361,1.3393476893300131,59.37067245985806,1,c,1.3341640999997253,correct,c
283,2F4K,284,2,47.710086644133945,31.983942064180997,1.3484505340058073,36.62538234520135,1,b,1.3644133999996484,incorrect,v
284,2F4K,285,2,71.33260587635425,60.59713604120857,2.2037768948740624,61.3970555900994,1,v,1.819614300000012,correct,v
285,2F4K,286,2,35.8302902431486,28.58886105569289,1.0532943821342962,33.7715055609036,1,v,1.6011022999996385,correct,v
286,2F4K,287,1,64.50395373728117,57.04340459319824,1.9120478289910567,58.51741625717478,2,c,1.4615246999996998,incorrect,n
287,2F4K,288,1,72.22134435531618,62.23209219984314,2.244883116511497,62.67712785826743,2,n,0.872804300000098,correct,n
288,2F4K,289,2,63.05146944530274,47.65145610029225,1.855160597391644,50.43930323137064,1,v,0.7574767000000975,correct,v
289,2F4K,290,1,41.71512731558762,52.75886145708344,1.1904060959448797,54.89909984635853,1,c,0.8052843000000394,correct,c
290,2F4K,291,2,47.71006286110787,62.12075892465637,1.3484498671241996,62.59093559452387,2,v,0.9022752000000764,incorrect,b
291,2F4K,292,1,58.43825803342703,69.47114039548,1.6854662524633426,67.9344393989834,1,c,0.8788495000003422,correct,c
292,2F4K,293,1,54.893623606642365,40.10392195642449,1.5657009771765416,43.7269099841749,2,n,1.3401064999998198,correct,n
293,2F4K,294,1,48.40618588632682,62.88451804188218,1.368111275323557,63.17925725577349,1,c,1.8560253999999077,correct,c
294,2F4K,295,1,72.29602736185923,60.78021620095804,2.2483721048160943,61.54189157836538,2,n,1.3097760000000562,correct,n
295,2F4K,296,1,49.828272211722926,70.04247393088781,1.4091724417104563,68.31735688330679,1,n,0.8425795000002836,incorrect,c
296,2F4K,297,2,48.357718298852376,37.94423457361545,1.3667331119426076,41.81264980404694,1,v,1.4311539999998786,correct,v
297,2F4K,298,2,49.97133092875837,41.47946927415985,1.4133707209142885,44.95085509913734,1,b,0.6240219000001161,incorrect,v
298,2F4K,299,1,41.176394758714274,57.88433412760228,1.1771448377494995,59.20993024012388,1,n,1.3098512999999912,incorrect,c
299,2F4K,300,1,60.98400581578324,51.82465816299965,1.7770942207817366,54.0931650227364,2,c,1.9046018999997614,incorrect,n
300,2F4K,301,1,46.6895818187264,55.763390862166816,1.3201368156082525,57.45137959966075,1,n,0.927486300000055,incorrect,c
301,2F4K,302,1,69.65969321715264,57.09408905711927,2.1284317011879645,58.55933670608998,2,n,1.5404180000000451,correct,n
302,2F4K,303,2,53.2983847880635,67.85214694999604,1.514615443046091,66.82235171071717,2,b,1.3583373000001302,correct,b
303,2F4K,304,1,63.1987211643565,52.43959936496931,1.8608498298391445,54.62426535295715,2,n,1.7103258000001915,correct,n
304,2F4K,305,2,44.93535547733948,30.93131414726617,1.2728484565404503,35.730953608191726,1,v,1.0550759000002472,correct,v
305,2F4K,306,2,52.384507354033175,37.60093587413584,1.486104143225473,41.50955263042072,1,b,0.7999942000001283,incorrect,v
306,2F4K,307,1,44.939946035079984,57.42871823019005,1.2729699658628448,58.83552623547421,1,c,1.8620621000000028,correct,c
307,2F4K,308,2,61.04155272874431,43.23728623435876,1.7792220613162126,46.51715647417494,1,v,2.052691800000048,correct,v
308,2F4K,309,1,46.163750107661365,61.76605753265731,1.3057805915238818,62.315364320174574,1,c,1.267335500000172,correct,c
309,2F4K,310,2,63.16810101836669,43.74229791336361,1.8596653517172388,46.96716050585051,1,v,1.5404145000002245,correct,v
310,2F4K,311,1,59.004560157034895,45.12427339187662,1.705431494774003,48.19761747680617,2,c,1.1761523000000125,incorrect,n
311,2F4K,312,1,64.36709804425747,54.39826992402579,1.90661419329571,56.29983923880214,2,n,5.0,incorrect,n
312,2F4K,313,1,49.13318529343848,38.53403632594131,1.3889508600079352,42.33423719028049,2,c,1.752852300000086,incorrect,n
313,2F4K,314,2,79.51672929390911,64.44338836276606,2.612628286492144,64.35778081386437,1,v,1.9947391000000607,correct,v
314,2F4K,315,2,45.40828780378803,55.82942753760439,1.2854278490614857,57.50671317392332,2,v,0.8182071999999607,incorrect,b
315,2F4K,316,2,40.1352651013971,55.55782606668434,1.1519339145910468,57.27890652903288,2,b,0.9631443999996918,correct,b
316,2F4K,317,1,44.71616060822052,34.39783581629659,1.267059978200188,38.70413845256861,2,c,1.0300204000000122,incorrect,n
317,2F4K,318,2,31.583830676250976,51.14835629546096,0.9642739106780012,53.50658177563773,2,b,1.1884055999998964,correct,b
318,2F4K,319,2,55.07478878677445,47.76725018255853,1.5716104476582766,50.541623545004974,1,v,0.8305593999998564,correct,v
319,2F4K,320,1,56.39932138934434,42.01054915092843,1.6154987582515494,45.4239443972666,2,n,1.2187650000000758,correct,n
320,2F4K,321,1,45.82691709475731,59.658018725656966,1.296666539356531,60.64843588863255,1,c,1.905642600000192,correct,c
321,2F4K,322,1,56.45038406428574,41.63388326920772,1.6172150357057422,45.08838653114618,2,n,0.9348843000002489,correct,n
322,2F4K,323,2,48.97249312021273,65.4513283521097,1.3843174266007323,65.10313075814689,2,v,1.9834602999999333,incorrect,b
323,2F4K,324,1,38.34183365802564,21.226289703538605,1.1097656161066063,27.96570314153665,2,c,1.2384447999997974,incorrect,n
324,2F4K,325,2,26.35313638862637,42.83056974346263,0.8648933149632322,46.1546916520976,2,b,1.3765665000000809,correct,b
325,2F4K,326,2,46.10425986575969,28.37844953118361,1.3041662550385067,33.59778170789103,1,b,1.0366814000003615,incorrect,v
326,2F4K,327,2,65.80849621497322,54.7217550317301,1.964626257899995,56.57399969480052,1,v,1.0002706999998736,correct,v
327,2F4K,328,1,51.10785365614005,37.06113665227249,1.4471712072696468,41.03377975912802,2,c,0.9266387000002396,incorrect,n
328,2F4K,329,1,75.67947313696345,58.2397037887008,2.412257961538483,59.5006091901112,2,n,1.2066185999997288,correct,n
329,2F4K,330,1,32.08810005153882,45.28847558163779,0.9744384738464138,48.343664553663736,1,c,0.7577620000001843,correct,c
330,2F4K,331,2,51.6310001823556,34.65111292552883,1.463000239315748,38.92422465144646,1,v,0.9335180999996737,correct,v
331,2F4K,332,1,53.37549196160539,69.89945452300921,1.5170459233179745,68.22197870967842,1,c,1.3826441999999588,correct,c
332,2F4K,333,1,62.65390798093759,41.719595505814965,1.839887097127584,45.16473584230828,2,n,0.9568589000000429,correct,n
333,2F4K,334,2,52.9420163453641,39.60624461581764,1.5034329106390236,43.28482106524618,1,v,1.012408300000061,correct,v
334,2F4K,335,2,50.83469407165353,28.7488781230026,1.438974296303086,33.903886639511306,1,v,0.5210375999999997,correct,v
335,2F4K,336,1,57.1703176497076,35.088276449454455,1.6416078438528945,39.30488415861077,2,n,0.9577634000002035,correct,n
336,2F4K,337,1,57.70469541849168,38.49908130676548,1.6599512383880632,42.30329671617613,2,n,0.46014710000008563,correct,n
337,2F4K,338,2,38.44064261744289,53.467509698750426,1.11204816742043,55.50681448701676,2,b,0.9092538000004424,correct,b
338,2F4K,339,2,58.97310890808651,50.60256320893732,1.7043164896012617,53.03142083297834,1,v,0.7211207999998805,correct,v
339,2F4K,340,1,33.10338932190402,44.65287556398787,0.995229862121606,47.77813123495733,1,c,0.611898999999994,correct,c
340,2F4K,341,1,52.03598778999447,47.50904698241973,1.475372892283069,50.31340830146838,2,n,0.7999882999997681,correct,n
341,2F4K,342,1,54.19328472829901,40.18744459877073,1.5430646862305395,43.801148664386304,2,n,0.5330325999998422,correct,n
342,2F4K,343,1,65.95601459679912,58.8419482778348,1.9706621168450416,59.99044742576577,2,n,0.4419153000003462,correct,n
343,2F4K,344,2,40.54758162872584,55.91606306788224,1.161852920495866,57.57925300505471,2,b,0.7029140999998162,correct,b
344,2F4K,345,2,56.04946296093989,43.71162995503682,1.6037884891637493,46.93983632031279,1,v,0.48439589999998134,correct,v
345,2F4K,346,1,57.79408005510096,44.38081783841929,1.6630394610081327,47.53591196048755,2,n,0.7089451000001645,correct,n
346,2F4K,347,1,52.77428260890043,41.313517091725394,1.4981981838851608,44.80307063982787,2,n,1.358341399999972,correct,n
347,2F4K,348,2,41.67242130198315,51.708696755354886,1.1893494291275375,53.99276733693564,2,b,1.1999848000000384,correct,b
348,2F4K,349,2,59.467368016931765,49.02547598861228,1.721923489317453,51.65050779197973,1,v,0.6361292999999932,correct,v
349,2F4K,350,2,50.451842927589766,58.43565948223654,1.4275638638834445,59.66037793549921,2,v,0.6968350999995891,incorrect,b
350,2F4K,351,1,53.1792659258774,62.83635269779603,1.5108683725094576,63.14236271851552,1,n,0.660463499999878,incorrect,c
351,2F4K,352,2,50.90651613297776,36.34661800852168,1.441125006859987,40.40569306367677,1,v,0.9699326999998448,correct,v
352,2F4K,353,1,48.59550736394495,62.94611627550582,1.3735079119360587,63.22640022992216,1,c,0.8667402999999467,correct,c
353,2F4K,354,1,42.35074952962577,57.33429984410752,1.2062446016824342,58.75769936443764,1,c,0.95121539999991,correct,c
354,2F4K,355,1,50.38845100007735,38.58596659625477,1.4256832917020978,42.38020958543586,2,n,0.7334891000000425,correct,n
355,2F4K,356,2,71.65104896460208,54.37908951472651,2.218418371400546,56.283559263300944,1,v,0.6968010999999024,correct,v
356,2F4K,357,2,52.80568427982345,61.43263176585736,1.4991767958932698,62.05499575786461,2,v,0.49095500000021275,incorrect,b
357,2F4K,358,1,51.45726352499869,43.35763716623074,1.4577243179809276,46.624407136782736,2,c,0.6306743999998616,incorrect,n
358,2F4K,359,1,48.12664266728926,30.38674707251108,1.3601815992301551,35.27145832469117,2,c,0.5997418000001744,incorrect,n
359,2F4K,360,2,51.78015482802142,35.07318336245909,1.4675449011386406,39.29172576811804,1,v,0.8067811999999321,correct,v
360,2F4K,361,2,48.1177059770845,58.54542388858416,1.3599288557497249,59.74970996307065,2,b,2.348882699999649,correct,b
361,2F4K,362,2,32.64273070282972,45.120283807112926,0.9857419447182992,48.1940685016403,2,b,0.6351242000000639,correct,b
362,2F4K,363,1,42.16637873803363,31.98285878977697,1.2016288549837302,36.624457830998594,2,c,0.7454338000002281,incorrect,n
363,2F4K,364,2,40.62698525554089,50.50180853710853,1.163772900924659,52.94354084053575,2,b,0.9456731999998738,correct,b
364,2F4K,365,2,57.7550036489528,44.36347418856112,1.6616886722131827,47.52046790864989,1,v,0.660442900000362,correct,v
365,2F4K,366,2,50.6248367363148,44.15454658935098,1.4327084945398576,47.334401563135806,1,v,0.6785990000003039,correct,v
366,2F4K,367,1,67.17766705889983,49.29467550152237,2.021365220769513,51.886985850140775,2,c,0.6111725000000661,incorrect,n
367,2F4K,368,2,58.494166638187885,49.67666174565576,1.6874268926870393,52.22202555868578,1,v,0.648279100000309,correct,v
368,2F4K,369,2,38.172842543094816,48.88574068177761,1.1058726645048202,51.52764373268484,2,b,0.49655810000012934,correct,b
369,2F4K,370,1,42.29608689009009,61.41202087450923,1.2048742693828078,62.03885921792995,1,c,0.4896662000001015,correct,c
370,2F4K,371,1,53.79261467901771,44.06753961997918,1.5302617442276136,47.256903965654914,2,n,0.47837140000001455,correct,n
371,2F4K,372,1,32.76719025614658,44.80959045549072,0.9882964117537156,47.917620099946696,1,c,0.4783260000003793,correct,c
372,2F4K,373,1,37.10731870636071,51.13429584047094,1.081639363728048,53.494360247935695,1,c,1.1703988999997819,correct,c
373,2F4K,374,1,41.57817595297042,63.38423076150848,1.1870208520356764,63.56036014324407,1,c,2.2217297000001963,correct,c
374,2F4K,375,2,31.5712928609017,49.14309276466123,0.9640225412891358,51.753864100601234,2,b,1.7194377999999233,correct,b
375,2F4K,376,2,48.08019439115986,34.285388993041835,1.3588684820198047,38.606537637958894,1,v,0.5625850999999784,correct,v
376,2F4K,377,1,43.33756936405285,56.60794054814838,1.231252864440366,58.15631803403423,1,c,0.8295021000003544,correct,c
377,2F4K,378,2,51.68052674496248,66.24071522705981,1.464507724156728,65.67732186649418,2,v,0.9338751999998749,incorrect,b
378,2F4K,379,1,59.83505050732278,74.85200854057334,1.735139330909944,71.33087103811484,1,n,1.0427895000002536,incorrect,c
379,2F4K,380,1,49.29262223730012,70.49107241992382,1.3935634269943675,68.61444116247642,1,c,1.0308235000002242,correct,c
380,2F4K,381,1,59.67488964846071,44.11816034522815,1.729370145967133,47.30199287586655,2,c,0.9031772999996974,incorrect,n
381,2F4K,382,2,54.9966187322506,40.1279063284478,1.5690578691241928,43.74822712381573,1,v,0.5815036999997574,correct,v
382,2F4K,383,1,49.36949321750794,68.37329456707491,1.3957928014882683,67.1846145925964,1,c,0.854594299999917,correct,c
383,2F4K,384,2,41.77347812694976,55.132023937043,1.1918513768471135,56.92058113833163,2,b,1.126948899999661,correct,b
384,2F4K,385,2,59.224903129969455,39.83219350138828,1.713263546139628,43.48547298173319,1,v,0.6232239000000845,correct,v
385,2F4K,386,2,35.912783791050586,50.59529937257718,1.055102759299982,53.02508685972765,2,b,1.0905304000002616,correct,b
386,2F4K,387,2,31.29706742789152,43.34560937453222,0.958540983805367,46.61368876877433,2,b,0.6300839999998971,correct,b
387,2F4K,388,1,52.40939011046627,38.37448488562351,1.486873285727859,42.193038078383125,2,n,2.0197501000002376,correct,n
388,2F4K,389,1,44.6018191983913,34.95791236188715,1.264050915541635,39.19126821089051,2,c,1.5222079000000122,incorrect,n
389,2F4K,390,2,46.37109820723643,36.6675515622159,1.311422857962975,40.687555287677775,1,b,0.8000070999996751,incorrect,v
390,2F4K,391,2,36.64618653449422,54.86439144047034,1.0713171210035946,56.69463926356163,2,b,0.8800981000003958,correct,b
391,2F4K,392,1,46.02123807326682,56.0777943067308,1.30191669828915,57.71450521605118,1,c,1.267334000000119,correct,c
392,2F4K,393,1,38.56641124369261,48.95715346527853,1.1149602967437051,51.59044387296456,1,c,0.9517217000002347,correct,c
393,2F4K,394,1,48.88922819272605,63.8025625386256,1.3819226302611576,63.87701484098515,1,n,0.7810207999996237,incorrect,c
394,2F4K,395,2,64.99076735084923,47.03002068396866,1.9315017979683424,49.88949727544826,1,v,0.5997156000003088,correct,v
395,2F4K,396,1,65.44889063048758,53.323471507897246,1.9499899910722385,55.38355823384054,2,n,1.073079300000245,correct,n
396,2F4K,397,2,74.10661425836129,65.06206969737534,2.3346372867183014,64.81687842740848,1,v,1.1337824000002001,correct,v
397,2F4K,398,1,36.13704259548073,53.8165847344789,1.060034542762724,55.80494219933873,1,n,0.7393188000000919,incorrect,c
398,2F4K,399,1,75.00561090472249,59.77630713770424,2.3786917488255863,60.743243750453885,2,n,0.7929770999999164,correct,n
399,2F4K,400,1,73.7261236505198,52.13201366621741,2.31623833326754,54.35889478062023,2,n,0.6120258000000831,correct,n
