,condition,trial,sub_task,x,y,xt,yt,cat,resp,rt,acc,correct_resp
0,2F4K,1,2,32.78765272684019,23.324309994754287,0.9887170264135964,29.48207803602118,1,b,5.0,NA,v
1,2F4K,2,1,41.89783093315577,28.25467715176352,1.1949373066189717,33.46745212007012,2,n,2.4097614000002068,correct,n
2,2F4K,3,2,42.86400519573744,63.20351710128213,1.219187617816199,63.753554854900656,2,v,1.7954798999999184,incorrect,b
3,2F4K,4,2,48.909320106879726,28.374434184520013,1.3825001176249403,33.567329068459706,1,v,1.504149000000325,correct,v
4,2F4K,5,2,35.19852810333572,53.97427059359332,1.0395476170146234,56.18023068270895,2,v,1.59668529999999,incorrect,b
5,2F4K,6,1,61.07137215307527,74.5837887501926,1.7803256590013348,71.59672598108166,1,c,2.0941956999995455,correct,c
6,2F4K,7,2,41.13792445753925,55.34828403929217,1.176203536781409,57.35759681975584,2,b,2.232441399999516,correct,b
7,2F4K,8,1,48.65216377607812,63.93878686676044,1.3751270459791485,64.31699218441328,1,c,1.6146030999998402,correct,c
8,2F4K,9,1,61.02801952156179,44.07466457626486,1.7787214317505082,47.40007052156107,2,n,2.2206112000003486,correct,n
9,2F4K,10,2,47.08608456506334,60.64156411386612,1.331066395694073,61.73901825436796,2,v,1.7531340000005002,incorrect,b
10,2F4K,11,1,53.6705669658259,73.09186660713804,1.5263830003804213,70.6856773529911,1,n,2.47753720000037,incorrect,c
11,2F4K,12,1,47.85042342417958,62.34250233629319,1.3523913583816891,63.0851988824345,1,c,2.816387799999575,correct,c
12,2F4K,13,1,56.450232782756,37.988750138542365,1.617209948260937,41.92389039593095,2,n,2.3563538999997036,correct,n
13,2F4K,14,2,37.91301965106968,45.73980919991662,1.0999138953320255,48.89946284526303,2,v,1.3342342000005374,incorrect,b
14,2F4K,15,2,40.686492863359526,60.95786547976789,1.1652138750397654,61.991856656536086,2,v,2.1829422000000704,incorrect,b
15,2F4K,16,2,36.99113379610242,55.10512471285484,1.0790292802044807,57.15028775583934,2,b,1.4059498999995412,correct,b
16,2F4K,17,1,32.78469452469485,38.35075526700973,0.9886562082616932,42.2477936013209,1,c,1.4366038999996817,correct,c
17,2F4K,18,2,51.377485337299085,62.76858345470198,1.4553080444508264,63.41707580538737,2,v,1.7834930999997596,incorrect,b
18,2F4K,19,2,59.45722862565809,44.85345734894896,1.7215604725663525,48.10179749502977,1,v,1.427527299999383,correct,v
19,2F4K,20,2,43.31449883316159,62.42627214566238,1.230662327066442,63.15062122997861,2,v,0.9397152999999889,incorrect,b
20,2F4K,21,2,24.52848773530781,36.308102262837366,0.8326918634734563,40.42605086745,2,v,3.150111600000855,incorrect,b
21,2F4K,22,1,50.98786673371056,70.7842197192343,1.4435649321059638,69.2020997095039,1,c,1.4519622000007075,correct,c
22,2F4K,23,1,46.11100734329489,32.60674943875077,1.304349255249343,37.17383411895632,2,n,1.9644248000004154,correct,n
23,2F4K,24,1,75.19806917753382,58.832155849665,2.388230483995369,60.2719027849954,2,n,1.7180108000002292,correct,n
24,2F4K,25,1,47.0540152456993,69.55622391382275,1.3301790529991309,68.37724985829875,1,c,1.4798740000005637,correct,c
25,2F4K,26,2,57.39055049300572,39.07171176430248,1.649143013768725,42.89398114320803,1,b,1.5288983000000371,incorrect,v
26,2F4K,27,1,53.60890792797628,63.651283182455145,1.5244271816933097,64.0974948601407,1,n,1.1339318000000276,incorrect,c
27,2F4K,28,2,34.462028014586174,45.51378538935116,1.023748146907257,48.69617660615271,2,v,1.923205600000074,incorrect,b
28,2F4K,29,1,51.8811130125101,56.66337987379312,1.4706290518841745,58.470420041148486,1,n,1.9773268999997526,incorrect,c
29,2F4K,30,1,41.29262002782417,54.02806626841284,1.1799932450728312,56.22659044365159,1,n,2.950921499999822,incorrect,c
30,2F4K,31,2,54.15282986272493,38.946836082366445,1.541767151619043,42.7819576022717,1,v,1.4616432999991957,correct,v
31,2F4K,32,1,50.0186013252186,30.82243409946716,1.4147606911977408,35.63628322779807,2,c,1.146963400000459,incorrect,n
32,2F4K,33,1,45.26944587431191,61.93800779108703,1.281721995295192,62.768117044733856,1,n,1.3477167000000918,incorrect,c
33,2F4K,34,2,63.1787183486768,52.64224237762654,1.8600759761499808,55.025993597098655,1,v,0.9154525999992984,correct,v
34,2F4K,35,1,53.19978021908959,66.45417346393975,1.5115130203601286,66.19066102182559,1,c,2.5848627000004853,correct,c
35,2F4K,36,2,22.74678226529709,33.24092671387325,0.8024055378585491,37.72553761871973,2,b,1.9278635000000577,correct,b
36,2F4K,37,2,60.50336763045811,41.44130680816501,1.7594213561255532,45.02554271359762,1,v,1.6133915000000343,correct,v
37,2F4K,38,2,49.59507285051442,63.35311118206941,1.4023555618667818,63.86874239995272,2,b,1.2444138000000748,correct,b
38,2F4K,39,1,59.14699438957084,46.49954482785563,1.7104901920148083,49.58202427625313,2,n,1.6376423000001523,correct,n
39,2F4K,40,2,42.45533041787258,58.33782473359059,1.2088706743528768,59.86522772565518,2,b,1.4070456999997987,correct,b
40,2F4K,41,1,53.036363042573925,67.8626183667487,1.506385367477911,67.2011958074454,1,c,3.423075200000312,correct,c
41,2F4K,42,1,58.885660524906505,42.51508675566176,1.7012201118587025,45.99368363665017,2,n,1.1885783000006995,correct,n
42,2F4K,43,2,52.56522947517646,37.30202599078348,1.4916994457566704,41.31060991770953,1,b,1.2851190000001225,incorrect,v
43,2F4K,44,1,53.75506604061222,66.92227796409719,1.5290673791616187,66.52970017785904,1,n,1.5344914999996035,incorrect,c
44,2F4K,45,2,54.37943617209769,67.82829681863785,1.5490493269852288,67.17691508366808,2,v,0.8485252000000401,incorrect,b
45,2F4K,46,2,61.63158175185541,45.49567067911748,1.8011863536871853,48.67988027586873,1,v,1.4702961000002688,correct,v
46,2F4K,47,1,53.47864879327946,39.49150724906119,1.5203036100659713,43.27084579734631,2,n,1.109794900000452,correct,n
47,2F4K,48,2,62.029342445730585,47.32880575912493,1.816146110538223,50.32547707602316,1,v,0.9275668999998743,correct,v
48,2F4K,49,1,69.00071055376628,55.1585445386381,2.0994643877584,57.19587152596393,2,n,1.3281474000004891,correct,n
49,2F4K,50,1,68.98029075582502,57.17532681999172,2.098573107130707,58.89960524387192,2,c,1.0671914000004108,incorrect,n
50,2F4K,51,1,55.79648305091726,74.11621910668683,1.5953738010385812,71.31536801360205,1,n,1.529825499999788,incorrect,c
51,2F4K,52,2,46.28790860772136,33.88670868888154,1.3091562160554149,38.28989265593473,1,v,1.1764380000004167,correct,v
52,2F4K,53,1,50.29768417507456,32.94498476142958,1.4229949335196403,37.467763095550666,2,n,0.962965599999734,correct,n
53,2F4K,54,1,43.50624229397821,52.81251275655345,1.2355790108713391,55.17419059152583,1,n,0.7218222000001333,incorrect,c
54,2F4K,55,1,54.87675100367907,39.03197014802397,1.56515173808482,42.8583254867754,2,c,1.1657964999994874,incorrect,n
55,2F4K,56,1,80.46798719113622,65.27826826140662,2.6648228239733527,65.32540827567364,2,c,0.8122995000003357,incorrect,n
56,2F4K,57,2,51.65094939820184,72.93970129661173,1.4636072649411331,70.59059928808533,2,b,1.1656601999993654,correct,b
57,2F4K,58,2,62.88577668738661,81.05550986848282,1.848779670166298,75.08121402143023,2,v,2.5440683000006175,incorrect,b
58,2F4K,59,1,43.21041999046975,26.86185990884478,1.228001735572014,32.31583509066154,2,c,1.1157288999993398,incorrect,n
59,2F4K,60,2,65.3071132523189,50.594970161837104,1.9442495401611235,53.23073149013024,1,v,1.7590227000000596,correct,v
60,2F4K,61,2,47.4312239927952,60.5254991268601,1.340653785859414,61.64596189908638,2,v,1.1278376000000208,incorrect,b
61,2F4K,62,1,61.94413075266668,40.25015015700599,1.8129308810021825,43.95285182220611,2,n,1.1936792999995305,correct,n
62,2F4K,63,2,36.62681899660074,51.55081890134898,1.0708857492286032,54.071859001119314,2,b,0.8327546000000439,correct,b
63,2F4K,64,1,32.211071545631214,40.05725631707137,0.9769334188585372,43.77933990375525,1,c,1.7048728999998275,correct,c
64,2F4K,65,2,53.64644623561463,71.79336102153698,1.5256175945324282,69.86175346243121,2,v,0.8439667000002373,incorrect,b
65,2F4K,66,1,52.80136856049862,40.04023585315996,1.4990422615161072,43.76403284095744,2,c,1.7667385000004288,incorrect,n
66,2F4K,67,1,49.30669803820256,36.5225974961789,1.393971379994409,40.61661131572906,2,c,1.1400383000000147,incorrect,n
67,2F4K,68,2,39.101367140082615,55.0626642961362,1.1274324633306974,57.11403986696851,2,b,1.1278183000003992,correct,b
68,2F4K,69,1,61.73297938510968,43.67534681066604,1.804988169898792,47.04006136599176,2,c,1.6147181999995155,incorrect,n
69,2F4K,70,1,33.61276486214247,46.13582549046463,1.0058275296607322,49.25540488519256,1,n,0.5817304000001968,incorrect,c
70,2F4K,71,1,47.02531435239364,34.0031036670241,1.329385414652878,38.39187271875407,2,c,1.1824767999996766,incorrect,n
71,2F4K,72,1,58.4637979878822,47.11773637669771,1.686361621815925,50.136423221219,2,n,1.1096742999998241,correct,n
72,2F4K,73,1,62.71047687169145,47.373736329785935,1.8420526610689236,50.36570466335582,2,n,0.5769426000006206,correct,n
73,2F4K,74,2,52.09744887493862,61.26954578604557,1.477259694126398,62.23990038887787,2,v,0.7819367000001876,incorrect,b
74,2F4K,75,1,44.14152148771144,32.78927535925799,1.252009617534292,37.3323584694221,2,c,1.2555420999997295,incorrect,n
75,2F4K,76,1,41.204917474415446,55.78599276807681,1.1778432249808968,57.72957938281888,1,n,0.6787523000002693,incorrect,c
76,2F4K,77,1,45.72667678056168,56.520295640629975,1.2939665323728269,58.35005309947021,1,n,0.6437283000004754,incorrect,c
77,2F4K,78,1,67.91655967229053,44.566215027771946,2.052663000835612,47.84305487348804,2,c,0.4891658999995343,incorrect,n
78,2F4K,79,2,43.68245782474833,62.9870544855911,1.2401148469977008,63.58638454287914,2,b,1.0624311000001398,correct,b
79,2F4K,80,2,56.59203678211469,50.99164453018671,1.6219857035552705,53.58038335222453,1,b,0.4895531000001938,incorrect,v
80,2F4K,81,2,47.3182050304728,56.88373191505635,1.337506730093462,58.65543581938766,2,b,1.511352800000168,correct,b
81,2F4K,82,1,33.298082300464166,43.29553135037485,0.9992672439755618,46.6975551676458,1,c,0.8187047999999777,correct,c
82,2F4K,83,1,53.719655101245486,67.22392445056764,1.5279418651648793,66.74651029338058,1,n,1.3827763999997842,incorrect,c
83,2F4K,84,1,45.87060673284557,27.92594365086213,1.297845096813833,33.193973068065745,2,c,1.3728734000005716,incorrect,n
84,2F4K,85,1,57.47254604149701,39.08789688607557,1.651957282788101,42.90850333906227,2,c,1.6074367999999595,incorrect,n
85,2F4K,86,1,49.44643479363555,38.67472332126326,1.3980277947627835,42.537989670234616,2,c,1.1581888000000617,incorrect,n
86,2F4K,87,2,54.74482310053202,45.73160997793487,1.5608638420601435,48.89209008073141,1,v,1.4267061000000467,correct,v
87,2F4K,88,2,48.93690193592031,32.69521455217833,1.3832932752528933,37.25063919948423,1,v,0.5574050000004718,correct,v
88,2F4K,89,2,46.26055488679957,53.67867107165105,1.308411773671629,55.92512529550151,2,v,0.6911456999996517,incorrect,b
89,2F4K,90,2,42.53675316756789,28.743064046460397,1.2109191935347827,33.875585219292624,1,v,1.1400122999993982,correct,v
90,2F4K,91,1,60.1194899420542,48.331709646631296,1.7454326605691333,51.22189985109605,2,n,1.6974642000004678,correct,n
91,2F4K,92,1,66.5837923701274,45.60034272806307,1.9965563230361216,48.7740372921783,2,c,1.166792400000304,incorrect,n
92,2F4K,93,2,58.83980019833605,46.42999441654387,1.699598535875366,49.5195914068201,1,b,1.5164020000001983,incorrect,v
93,2F4K,94,1,47.01738908312238,33.18411682046473,1.3291663482048688,37.676011931278246,2,n,1.6193683000001329,correct,n
94,2F4K,95,2,55.74528097655647,66.46156756417687,1.5936760830602217,66.19604066832956,2,b,1.135284899999533,correct,b
95,2F4K,96,1,28.753254056142985,36.85915028292006,0.9091546464820268,40.91598770691182,1,n,1.2554617999994662,incorrect,c
96,2F4K,97,1,69.72881263280352,58.96115054366011,2.1314930910172736,60.37762317172032,2,n,1.432671499999742,correct,n
97,2F4K,98,1,58.82341660913634,39.482867498893896,1.6990196031003966,43.26308554459422,2,n,0.8296015000005355,correct,n
98,2F4K,99,2,26.8986521786792,40.36001077053847,0.8747602475199314,44.05170221016049,2,b,1.2310551999999007,correct,b
99,2F4K,100,1,45.48709900341188,61.01931931079726,1.2875361775411058,62.04085032550741,1,n,1.2444697999999335,incorrect,c
100,2F4K,101,1,59.24907855102187,48.46546893068904,1.7141250438038471,51.34120154216736,2,c,1.5466720000003988,incorrect,n
101,2F4K,102,1,31.543012626696346,53.86252684600948,0.9634557943089288,56.08386697933969,1,c,2.6950401000003694,correct,c
102,2F4K,103,2,52.94481171213013,61.82512233234982,1.5035203047539756,62.67928059645884,2,v,1.0128567000001567,incorrect,b
103,2F4K,104,1,43.68614673233988,56.04608296243763,1.2402099782154574,57.9498710782155,1,c,1.5587353999999323,correct,c
104,2F4K,105,2,38.00493030937135,50.809679539722175,1.102018092177169,53.42008906632652,2,b,1.4257391000001007,correct,b
105,2F4K,106,1,49.91730207615212,33.98611979855873,1.4117836928415273,38.37698737181785,2,c,1.3333369000001767,incorrect,n
106,2F4K,107,1,48.22543256384131,63.14392690430951,1.3629786625559968,63.70759248140638,1,n,0.8729984999999942,incorrect,c
107,2F4K,108,1,46.04425315000341,61.2611577280553,1.3025399253004664,62.23323939701699,1,n,0.7940853000000061,incorrect,c
108,2F4K,109,1,48.04403219083824,58.89038353072,1.3578470353175456,60.31964529071506,1,c,0.4555529999997816,correct,c
109,2F4K,110,1,55.093548597420174,48.04960800601365,1.5722236513844294,50.97008301984692,2,n,1.1461969000001773,correct,n
110,2F4K,111,2,61.24020076198665,49.39001970594418,1.7865868185269311,52.16395694143755,1,v,1.194612500000403,correct,v
111,2F4K,112,1,71.4783541124065,54.885722269228,2.2104661218675754,56.9628361702255,2,c,2.295587899999191,incorrect,n
112,2F4K,113,1,59.12470971233103,38.76631437614462,1.7096977398959816,42.62008555398667,2,n,0.8001580000000104,correct,n
113,2F4K,114,2,67.28490284038848,53.5839644874233,2.025877703300762,55.84326355758638,1,v,1.3286035000000993,correct,v
114,2F4K,115,2,34.00011178556446,44.3668709405728,1.01396183675726,47.66343442528356,2,v,1.1352590000005875,incorrect,b
115,2F4K,116,1,62.18309439192386,40.90324456596458,1.8219619520995385,44.54076503139109,2,n,3.5399459999998726,correct,n
116,2F4K,117,2,46.29636652428919,62.09729039845144,1.30938648733621,62.89321043259847,2,v,1.2094148999995014,incorrect,b
117,2F4K,118,2,65.06722589510301,79.46086251115914,1.9345751559396087,74.29554557208081,2,b,0.3876860000000306,correct,b
118,2F4K,119,2,60.170075970569975,43.33101154266731,1.7472696592193686,46.7295524388752,1,b,0.8183073999998669,incorrect,v
119,2F4K,120,2,70.95936842970607,59.8898991894897,2.186739024648781,61.13375711935748,1,v,1.0442923999999039,correct,v
120,2F4K,121,2,57.34447092196337,39.41294996114932,1.647563565488636,43.20029144474409,1,v,1.679394599999796,correct,v
121,2F4K,122,1,28.28647362329088,48.0568944190542,0.9003726936128746,50.97659064429317,1,c,1.445870399999876,correct,c
122,2F4K,123,2,68.27441128575886,56.99788268303813,2.067994485493624,58.75111175624715,1,b,2.409812700000657,incorrect,v
123,2F4K,124,1,59.17023982063623,68.54337739481429,1.7113172003296773,67.67916201661109,1,c,2.1717390000003434,correct,c
124,2F4K,125,2,78.49185220530327,63.22211960373444,2.557537805723769,63.767894036091405,1,b,1.0185948000007556,incorrect,v
125,2F4K,126,2,37.896147514739845,47.96795574811287,1.0995280623964994,50.89714575561314,2,b,1.2917271999995137,correct,b
126,2F4K,127,2,53.80689758029302,39.375603718805046,1.530716306478231,43.16675464145598,1,b,1.4811712999999145,incorrect,v
127,2F4K,128,2,45.730332722756536,60.0447931312145,1.2940649075637387,61.25898189922747,2,v,1.400837700000011,incorrect,b
128,2F4K,129,1,52.54353755268364,67.94252568086976,1.4910267353548825,67.25765837079634,1,n,2.299116799999865,incorrect,c
129,2F4K,130,1,48.264159689760845,61.7543590281605,1.3640767221795491,62.62351636470509,1,c,0.5405785000002652,correct,c
130,2F4K,131,2,37.173772107366105,58.08025226301032,1.083135070685591,59.65238023730128,2,b,1.8440325999999914,correct,b
131,2F4K,132,2,40.8669432738262,50.22712039564802,1.1695943914040798,52.9057830943498,2,b,1.7893857999997635,correct,b
132,2F4K,133,1,56.84748687458733,38.64280019635165,1.6306245108164217,42.50938132738633,2,c,0.7701058999991801,incorrect,n
133,2F4K,134,1,36.19420875349941,49.79071361406707,1.0612953941346197,52.51943912058297,1,n,0.6862450999997236,incorrect,c
134,2F4K,135,2,65.91480969201167,50.860207722552914,1.9689743138496931,53.46461693654295,1,v,1.5831325999997716,correct,v
135,2F4K,136,1,63.06909057180245,74.24451089557402,1.8558404917946332,71.39294863579812,1,n,0.7833565999999337,incorrect,c
136,2F4K,137,1,58.329521410766496,47.80857366081377,1.68165952562072,50.75471155509808,2,c,0.6731575999992856,incorrect,n
137,2F4K,138,2,40.95743305178017,55.82263085233869,1.1717972680638928,57.760645106962464,2,b,1.3719811000000846,correct,b
138,2F4K,139,2,58.99101870428592,74.59121448908431,1.7049513357347623,71.60116339412879,2,b,1.0237178999996104,correct,b
139,2F4K,140,1,76.50521984422001,64.72312248027083,2.454036310009757,64.9103542318328,2,n,1.170603100000335,correct,n
140,2F4K,141,2,61.2718148771617,46.22765914090882,1.7877617015602565,49.33789923487421,1,v,1.6740694000000076,correct,v
141,2F4K,142,2,68.00175891749683,54.60893939816917,2.0563028625733573,56.72583365588903,1,v,0.8122720999999729,correct,v
142,2F4K,143,2,69.86359001319259,60.39977240379716,2.1374752283450102,61.54499188163115,1,v,0.6290853000000425,correct,v
143,2F4K,144,1,66.52037715530231,51.71387114315432,1.99392523467654,54.21484541264938,2,c,1.015001900000243,incorrect,n
144,2F4K,145,1,52.81320964952448,39.73040113312575,1.4994114139259216,43.485484394654485,2,n,0.5391908999999941,correct,n
145,2F4K,146,1,35.8084520831174,19.19991267230063,1.0528161773438105,26.369931229436748,2,c,1.8927285999998276,incorrect,n
146,2F4K,147,1,23.447103266471945,33.825456387451936,0.8141762810685682,38.23625752807168,1,n,0.8729872000003525,incorrect,c
147,2F4K,148,2,55.46105315029471,47.24743478118417,1.584284677835968,50.25260848152579,1,v,1.0115028000000166,correct,v
148,2F4K,149,1,69.0059223565592,55.4969443643026,2.0996919324646184,57.4841080094891,2,c,0.6861590000007709,incorrect,n
149,2F4K,150,2,44.8786581396261,66.71230376252501,1.2713486677829184,66.37800666658036,2,b,2.107248199999958,correct,b
150,2F4K,151,1,42.67842319455898,53.82325926226147,1.2144917550565546,56.04998310545211,1,c,2.1049823000003016,correct,c
151,2F4K,152,1,47.18225783703738,54.54041071041892,1.3337310149668746,56.66706481113854,1,c,0.860873999999967,correct,c
152,2F4K,153,2,46.38521008997844,37.34269700465119,1.3118077493095894,41.34688593016087,1,v,2.2714633999994476,correct,v
153,2F4K,154,2,45.636247330786034,35.10282430839396,1.291535608368173,39.35907739235901,1,v,0.5998713999997562,correct,v
154,2F4K,155,1,62.415843448854325,43.9806562912157,1.8308014040557667,47.315326209541226,2,n,1.4070576999993136,correct,n
155,2F4K,156,2,56.57821101996881,45.58629199529653,1.6215194518955127,48.76139917397331,1,b,1.4872983000004751,incorrect,v
156,2F4K,157,1,59.78051415832439,48.154882844260726,1.733172708891373,51.06408832153591,2,n,1.504155399999945,correct,n
157,2F4K,158,2,40.62219902948127,56.42451371582512,1.1636570801270991,58.26937903869669,2,b,1.3221118000001297,correct,b
158,2F4K,159,1,56.26293799806872,42.09048123412736,1.6109236735087853,45.61077541584926,2,n,0.8426300000000992,correct,n
159,2F4K,160,1,43.91530953198982,61.43031569139327,1.246134062657462,62.36741272800733,1,n,0.8381400999996913,incorrect,c
160,2F4K,161,2,34.291942754959415,44.77751092179213,1.0201337259095848,48.03339614975536,2,v,2.4149939999997514,incorrect,b
161,2F4K,162,2,38.1549537223144,23.158977334901756,1.1054613701218727,29.353132993398305,1,b,1.431514299999435,incorrect,v
162,2F4K,163,2,51.37205956486945,33.544228302371586,1.4551438574685858,37.99028473247389,1,b,2.2870495000006485,incorrect,v
163,2F4K,164,1,70.66794683450136,48.852566225014,2.173527584329111,51.68608633503298,2,c,1.6147450000007666,incorrect,n
164,2F4K,165,2,67.79671989135788,48.35348945656507,2.0475541366406214,51.24132992915479,1,v,1.856150499999785,correct,v
165,2F4K,166,2,49.13672459877248,69.631855344764,1.3890530874770757,68.4287406960012,2,v,0.8257623999998032,incorrect,b
166,2F4K,167,2,35.12763218101913,43.90748508495674,1.0380162042167695,47.24936109535913,2,b,0.860805899999832,correct,b
167,2F4K,168,1,47.07673206629456,39.04332699365251,1.3308075554118273,42.868514300220326,2,c,2.1778066999995644,incorrect,n
168,2F4K,169,2,53.772213677163656,71.23202314467463,1.5296127037001988,69.49687453376389,2,b,1.1582392999998774,correct,b
169,2F4K,170,1,54.60296334422844,36.860803496557615,1.5562662488557089,40.91745941048076,2,n,1.6692768000002616,correct,n
170,2F4K,171,2,41.52868528578022,29.986709360692664,1.1857998822440416,34.924336448982004,1,v,1.4484455000001617,correct,v
171,2F4K,172,2,57.02041863897702,70.97617531645075,1.636498816646618,69.32885678183668,2,b,0.769881200000782,correct,b
172,2F4K,173,1,63.72442596965095,42.023379741919605,1.8813037212433792,45.550270418368136,2,n,0.5770123000002059,correct,n
173,2F4K,174,1,47.79224654330032,31.871634585220534,1.3507562864341007,36.53764355783261,2,n,1.000592499999584,correct,n
174,2F4K,175,2,52.63364312989586,41.43273411836542,1.493823080347016,45.01781661749455,1,b,0.5587652999993225,incorrect,v
175,2F4K,176,2,39.607825263112254,48.35450191659029,1.1393687622424582,51.242233118017175,2,b,1.3220629999996163,correct,b
176,2F4K,177,1,47.84198880286047,30.939504685969844,1.3521541791780678,35.736451412469165,2,n,1.0617014999997991,correct,n
177,2F4K,178,2,56.86335849973722,46.28342537730671,1.6311627728518612,49.387985157753135,1,b,0.5332047000001694,incorrect,v
178,2F4K,179,2,42.331569166860696,54.34197721770514,1.2057635936704698,56.49669504314909,2,v,1.038243699999839,incorrect,b
179,2F4K,180,2,37.42192240892216,50.95543978207783,1.0887386449648258,53.54850406671227,2,b,1.3339498000004824,correct,b
180,2F4K,181,2,41.811981317832206,52.25139138703142,1.192806016372029,54.68512644243279,2,b,0.6544838999998319,correct,b
181,2F4K,182,2,60.31612073695069,36.298957300272335,1.7525840351737532,40.417930654734526,1,b,0.6787693999995099,incorrect,v
182,2F4K,183,2,36.9993859864362,49.59040343611612,1.079214456948947,52.34181819494013,2,b,1.6389529000007315,correct,b
183,2F4K,184,1,66.62273337039689,55.12738253652439,1.998173699924429,57.16928333598928,2,n,1.539651899999626,correct,n
184,2F4K,185,1,38.44677514663736,50.371802217367545,1.112189987469178,53.03366977977286,1,n,1.0381804999997257,incorrect,c
185,2F4K,186,1,63.68476706338053,55.99695575924893,1.8797528801589685,57.90830435820338,2,n,0.642442100000153,correct,n
186,2F4K,187,2,54.066833595297766,63.9663279334105,1.5390125623462958,64.3379630300968,2,b,3.3929303999993863,correct,b
187,2F4K,188,2,58.97331891178389,49.4854896607052,1.7043239322042163,52.24871790310127,1,b,0.5816992000000027,incorrect,v
188,2F4K,189,2,67.53899943892743,51.37689219866606,2.0366103456540725,53.919172128672464,1,b,0.5951788000002125,incorrect,v
189,2F4K,190,1,74.13175722402016,61.10144817320406,2.335858231919108,62.10626047779101,2,c,1.2795939999996335,incorrect,n
190,2F4K,191,1,62.79008317892932,49.740891718489976,1.845104458786099,52.4752772120612,2,n,0.867203800000425,correct,n
191,2F4K,192,2,39.8358558496316,54.46280687998559,1.1447842078229007,56.60047096162464,2,b,1.8272180999992997,correct,b
192,2F4K,193,2,62.51156848823538,77.60527324141714,1.8344493283735568,73.32046451035973,2,b,1.0368559000007735,correct,b
193,2F4K,194,2,33.57677905319432,48.16765748165609,1.0050751465781047,51.075492871272864,2,v,0.7832782000004954,incorrect,b
194,2F4K,195,2,52.99078186461162,68.66163131224144,1.5049582407316646,67.7614772801609,2,b,0.6050297000001592,correct,b
195,2F4K,196,2,46.2476712720011,58.59660572937878,1.3080612876378992,60.07842258519336,2,b,0.6848971999997957,correct,b
196,2F4K,197,1,43.75744594750104,31.554083214120112,1.2420501089284957,36.263987151551646,2,n,1.6571989000003668,correct,n
197,2F4K,198,2,56.61596088761281,45.178653564798765,1.6227928223846635,48.394597929266574,1,b,0.9644833999991533,incorrect,v
198,2F4K,199,1,61.81242734692545,47.4020990142929,1.807972608361508,50.39109551400068,2,c,3.2666227000008803,incorrect,n
199,2F4K,200,2,39.211990964229166,52.47331139345775,1.130028946615424,54.87878205789754,2,b,1.298134000000573,correct,b
200,2F4K,201,2,57.07210416971468,36.75367871974374,1.6382586226540972,40.82211821055625,1,b,2.2509200000004057,incorrect,v
201,2F4K,202,1,64.93816765117805,48.34163047897215,1.929390314880132,51.23075057613647,2,n,1.237096200000451,correct,n
202,2F4K,203,1,44.66689293159936,62.52764606959799,1.2657625494285616,63.2296787921896,1,n,0.8136505000002217,incorrect,c
203,2F4K,204,2,50.7104876997814,41.49289622828269,1.4352625105433987,45.072038851939205,1,b,1.164252000000488,incorrect,v
204,2F4K,205,1,52.03588747472541,35.566714727874114,1.4753698146622949,39.76893578437555,2,n,1.1656413000000612,correct,n
205,2F4K,206,1,40.90665947275459,60.60831064332368,1.1705607293173006,61.71237213105405,1,n,0.847756199998912,incorrect,c
206,2F4K,207,2,46.83600498546212,53.64830740767474,1.3241624727863712,55.89888654070824,2,b,1.615927200000442,correct,b
207,2F4K,208,2,33.30809940472627,55.78929040199424,0.9994754128499256,57.73237592574095,2,v,0.8608805000003485,incorrect,b
208,2F4K,209,2,53.61383785958968,62.01782400917334,1.5245834664265123,62.83083864689405,2,b,1.9606913999996323,correct,b
209,2F4K,210,1,46.60540180459757,39.17006277265576,1.3178279715692256,42.98223701697915,2,n,0.8851188000007824,correct,n
210,2F4K,211,1,64.60688522212048,50.59677810982747,1.9161447592405627,53.23232693623444,2,n,0.8487000999994052,correct,n
211,2F4K,212,2,48.06939471264925,35.7850597264092,1.3585633511097666,39.96220410482107,1,b,1.1036258000003727,incorrect,v
212,2F4K,213,1,44.58177662996214,58.0382805219882,1.2635242023927165,59.61763588941315,1,n,1.6268393999998807,incorrect,c
213,2F4K,214,2,36.11498023904853,48.0576784803789,1.059548338219883,50.97729089265851,2,b,1.0429024999993999,correct,b
214,2F4K,215,2,64.39800667851597,49.817559969631645,1.90784001957321,52.54323099625528,1,b,1.4501370000016323,incorrect,v
215,2F4K,216,1,47.36903708617418,60.43449416378098,1.338921252772712,61.572893943679226,1,c,1.3463525000006484,correct,c
216,2F4K,217,2,37.60661965237749,50.98636631716406,1.0929281722787882,53.57573616725536,2,b,0.8062475000006089,correct,b
217,2F4K,218,1,44.79357655545023,59.56257178372135,1.2691013585776898,60.8682900953852,1,c,1.0792999000004784,correct,c
218,2F4K,219,2,31.654470824273552,44.23260560689081,0.9656913933029518,47.54243130938369,2,b,2.164646900000662,correct,b
219,2F4K,220,2,44.94852290127234,60.22812587810922,1.2731970214727653,61.40686522419123,2,b,1.7836843999994016,correct,b
220,2F4K,221,2,58.98041687548623,45.52211615222275,1.7045755055833227,48.7036709250169,1,v,1.0297052999994776,correct,v
221,2F4K,222,1,44.46009189575664,61.97690785784771,1.2603310692079903,62.79869510303667,1,c,0.8487428999997064,correct,c
222,2F4K,223,2,41.65431318687729,21.12960270133362,1.1889016666808934,27.798154447953173,1,b,1.1097641000014846,incorrect,v
223,2F4K,224,2,48.220305659568936,41.482198268584575,1.3628333618142865,45.06239687496126,1,b,0.9411106999996264,incorrect,v
224,2F4K,225,2,54.6610025780776,72.75423793150455,1.5581456279221957,70.47418260433065,2,b,1.0368660999993153,correct,b
225,2F4K,226,1,61.90596725524117,46.391893336709295,1.8114927322245191,49.48538467342659,2,c,1.0186462999990908,incorrect,n
226,2F4K,227,2,54.39504048475033,67.14330456322907,1.5495520480334797,66.68869319537792,2,b,0.8790109000001394,correct,b
227,2F4K,228,2,56.47057593153237,41.018187957921526,1.6178942114182302,44.644298008738645,1,b,0.8669391000003088,incorrect,v
228,2F4K,229,2,38.59371156800398,52.843837477023406,1.1155934330288046,55.20143434723952,2,b,0.9895939999987604,correct,b
229,2F4K,230,1,55.88711484418681,67.13688319505872,1.598383333640805,66.68408401478278,1,c,0.9883308000007673,correct,c
230,2F4K,231,2,31.797803026823885,49.47701218752966,0.9685739391354272,52.24119293490824,2,b,2.258020999999644,correct,b
231,2F4K,232,1,47.21364779664796,61.44506584201832,1.3346018732173004,62.37909673042324,1,c,1.5041703999995661,correct,c
232,2F4K,233,1,63.01264394130002,57.9432880896674,1.8536634311479545,59.53893863055296,2,c,0.8486921000003349,incorrect,n
233,2F4K,234,2,57.00570087926776,48.71458485109497,1.6359980473840248,51.56321657338008,1,v,1.5648089999995136,correct,v
234,2F4K,235,1,45.38466761023453,31.840304362956594,1.2847966429122106,36.51061221152429,2,n,1.9835741999995662,correct,n
235,2F4K,236,2,66.3993881227511,46.75062466957132,1.9889150309670804,49.807312509045474,1,v,1.134191400000418,correct,v
236,2F4K,237,1,47.27080511525382,28.260318798221505,1.3361890613556078,33.4721542700368,2,n,1.4750143000001117,correct,n
237,2F4K,238,1,52.63289549939663,69.01868659142883,1.493799856748494,68.0087259610939,1,n,1.946212499999092,incorrect,c
238,2F4K,239,1,61.308269656700126,48.41747226849911,1.7891174385373858,51.298400090432494,2,c,1.3038400000004913,incorrect,n
239,2F4K,240,1,42.14707683145129,59.22389765444841,1.201146651748477,60.59244154641896,1,c,1.2492167000000336,correct,c
240,2F4K,241,1,67.63486408846379,54.468383538243,2.040674274488527,56.60525792994233,2,n,2.688687799998661,correct,n
241,2F4K,242,2,61.14604137934154,47.92632879121489,1.7830921230250818,50.859953229951735,1,v,0.8803546999988612,correct,v
242,2F4K,243,2,51.202890642886025,41.52169403069932,1.4500339906845257,45.09799456143394,1,v,0.8244478999986313,correct,v
243,2F4K,244,1,33.010290330163926,41.31657143592024,0.9933050214972432,44.91313244545217,1,c,1.4121761999995215,correct,c
244,2F4K,245,1,65.2641469981349,57.69816391765907,1.9425132103708709,59.33546802264532,2,n,0.8328263000003062,correct,n
245,2F4K,246,2,48.692514604357854,34.26678485002428,1.3762813606314035,38.62318284434538,1,b,1.5044937999991816,incorrect,v
246,2F4K,247,2,29.65767762304564,49.84497403042151,0.9264148784689942,52.5675226336491,2,b,1.1948255999996036,correct,b
247,2F4K,248,1,62.47939063010328,52.24321154375681,1.83322227266838,54.67798267442768,2,n,1.0429079999994428,correct,n
248,2F4K,249,1,38.86860046476944,50.52048483340831,1.1219885972544408,53.164986820285215,1,c,0.6558316999999079,correct,c
249,2F4K,250,2,62.2373748138169,52.55597993789334,1.8240196156156248,54.95084416140708,1,v,0.9829004999992321,correct,v
250,2F4K,251,2,42.72869406668205,22.436328862082608,1.2157619919474536,28.79345459181785,1,v,0.970072699999946,correct,v
251,2F4K,252,2,65.53481676669824,50.64416910130318,1.95347731616306,53.27414185986849,1,v,1.044243500000448,correct,v
252,2F4K,253,2,34.32937859555096,53.29629912591495,1.020928164736414,55.59423747191541,2,v,1.1753998000003776,incorrect,b
253,2F4K,254,2,49.22166808043713,61.74943300502044,1.3915088096542114,62.619632285279806,2,v,0.8245953999994526,incorrect,b
254,2F4K,255,2,51.98338971803604,38.90653851346264,1.473760091008267,42.745815844097166,1,b,0.8317499000004318,incorrect,v
255,2F4K,256,2,59.38880447862323,38.1774912126382,1.7191127090270786,42.09271622346795,1,v,0.4847574999985227,correct,v
256,2F4K,257,2,69.77134151828673,62.67220324643259,2.1333789390711524,63.34219779472974,1,v,0.7044040000000678,correct,v
257,2F4K,258,1,33.46917250607924,49.42925233580685,1.002828689401216,52.19879349652496,1,c,1.1054407999999967,correct,c
258,2F4K,259,2,53.748702052229646,76.01211084196453,1.528865042779071,72.43219338053069,2,v,1.66195770000013,incorrect,b
259,2F4K,260,1,41.38988100147852,22.08881524946205,1.182382178794404,28.52662684604275,2,c,1.0442956999995658,incorrect,n
260,2F4K,261,2,40.07113716002719,51.52990032703593,1.1503988309463065,54.05350389922676,2,v,2.2398422000005667,incorrect,b
261,2F4K,262,2,63.1971653021992,47.17930472163621,1.8607896262843917,50.19158272085856,1,v,1.928954099999828,correct,v
262,2F4K,263,2,44.996850589303016,61.29471630146786,1.2744771588802593,62.25988357444471,2,v,1.764177799999743,incorrect,b
263,2F4K,264,2,73.28729353523157,54.43284019530468,2.295198302240001,56.574743798466415,1,v,0.6550323999999819,correct,v
264,2F4K,265,2,28.44441485843552,44.351690798608615,0.9033346450380744,47.649754579962845,2,v,1.0975916000006691,incorrect,b
265,2F4K,266,1,39.229953918882536,50.99583941946371,1.1304511242002633,53.584076624048656,1,n,1.6315768999993452,incorrect,c
266,2F4K,267,2,37.26266390811543,46.85412276887581,1.0851390465480224,49.90013310561218,2,b,1.6936410000016622,correct,b
267,2F4K,268,1,46.95156319209035,62.52735501410535,1.3273482154124527,63.22945198732811,1,c,1.3402970000006462,correct,c
268,2F4K,269,1,52.49546511749588,45.86294981819625,1.4895369928176203,49.01017586942885,2,n,1.1825203000007605,correct,n
269,2F4K,270,1,45.80005621116379,64.21217288297409,1.2959424802314798,64.5247247206744,1,c,1.473778300000049,correct,c
270,2F4K,271,1,58.851191192586526,72.81296757308345,1.7000011658773206,70.51111082662959,1,c,0.7273237000008521,correct,c
271,2F4K,272,2,54.281106337406015,69.09329352873283,1.545885204081547,68.06014191565883,2,b,1.9303479999998672,correct,b
272,2F4K,273,1,32.732327528911334,42.19555070420022,0.9875802058758094,45.70552034867127,1,n,1.3706375000001572,incorrect,c
273,2F4K,274,1,40.110944383079215,62.303149774264064,1.1513514884436842,63.054436286224494,1,c,0.9213321000006545,correct,c
274,2F4K,275,1,74.84855619508619,65.54971363437336,2.3709359440917352,65.52683781937016,2,c,0.5101810000014666,incorrect,n
275,2F4K,276,2,78.69682289557376,63.09774646667454,2.5684619242927704,63.67194275140901,1,b,1.862220699998943,incorrect,v
276,2F4K,277,1,47.4036099921756,64.4068085551456,1.3398841806455313,64.67202666931817,1,c,2.1852238999999827,correct,c
277,2F4K,278,1,60.36679425235788,44.054836603080574,1.75443175208948,47.38219704599751,2,c,1.9593448000014178,incorrect,n
278,2F4K,279,2,46.52075755175697,26.09466791883365,1.315510466129691,31.689725394694737,1,b,1.2310302000005322,incorrect,v
279,2F4K,280,1,50.92853447254955,29.919868430052446,1.4417849892714645,34.86763767742751,2,n,1.0867555999993783,correct,n
280,2F4K,281,2,60.10752661482233,74.96295619752624,1.744998502599641,71.82206012917575,2,v,3.7459622000005766,incorrect,b
281,2F4K,282,2,51.09995788363469,71.70645704491267,1.4469336186669282,69.80560416900781,2,b,1.4980820000000676,correct,b
282,2F4K,283,2,49.8911083900172,38.33509349684952,1.4110149285096398,42.23377210429477,1,b,0.9167876000010438,incorrect,v
283,2F4K,284,2,26.798076493090026,44.18482201087236,0.8729326746982395,47.499363613561925,2,b,2.0139235999995435,correct,b
284,2F4K,285,2,42.84085742463028,55.89982945015403,1.218600909937965,57.82606612365202,2,b,0.5222080999992613,correct,b
285,2F4K,286,2,57.91501812890446,43.29716544462975,1.6672269966996702,46.699028858797455,1,b,2.3064544000008027,incorrect,v
286,2F4K,287,1,39.8300975610851,49.44055945151667,1.1446471392888582,52.20883241790777,1,c,2.330903699999908,correct,c
287,2F4K,288,2,42.25890422899384,53.6630567883372,1.2039430306562278,55.91163301318182,2,b,1.0976871000002575,correct,b
288,2F4K,289,1,52.9160719391067,64.86142701378957,1.5026220292002317,65.01414365756656,1,c,1.892591399999219,correct,c
289,2F4K,290,2,49.92721825328604,65.75435619619122,1.4120748342171745,65.67802856779191,2,v,1.139877699999488,incorrect,b
290,2F4K,291,2,53.39940140026214,44.79990687794645,1.5178003599884988,48.05356788858291,1,b,1.316285800001424,incorrect,v
291,2F4K,292,2,45.43074194146795,55.61341091630421,1.2860281820328474,57.5830977884881,2,v,0.38276930000029097,incorrect,b
292,2F4K,293,1,37.97024909824638,24.92222673121828,1.1012236302237774,30.74490539000901,2,n,0.971401099999639,correct,n
293,2F4K,294,1,24.71216623662289,43.71504637050128,0.8358784008658011,47.07585741266678,1,c,1.4669347999988531,correct,c
294,2F4K,295,1,46.95779095651679,59.268385149729816,1.327520121748463,60.62874405166804,1,c,0.7286718999985169,correct,c
295,2F4K,296,2,66.95818667115962,61.83877060420332,2.012160798218272,62.69002921341728,1,v,1.7104467999997723,correct,v
296,2F4K,297,2,50.284422981378704,30.103052107863064,1.422602584285512,35.02311304384983,1,b,1.4702758999992511,incorrect,v
297,2F4K,298,1,50.51908596464565,71.14512896908758,1.429561393605402,69.43992986290972,1,c,0.6291278000007878,correct,c
298,2F4K,299,2,40.01310799037477,46.90696699912946,1.1490115018262037,49.94751490332163,2,v,1.0142165000015666,incorrect,b
299,2F4K,300,1,42.69916007019533,23.79599157820764,1.2150155704408658,29.851748920895364,2,n,0.8547557999991113,correct,n
300,2F4K,301,2,61.20924803346689,52.11825887679935,1.7854372628200208,54.56880670203733,1,b,1.7835653999991337,incorrect,v
301,2F4K,302,2,58.519570482826815,46.84251601855553,1.6883185250941914,49.88972515262668,1,v,0.7870947000010347,correct,v
302,2F4K,303,1,35.46864889413968,47.1276540796536,1.0454031900645824,50.145309272466406,1,c,1.2011069999989559,correct,c
303,2F4K,304,2,44.11595210261085,67.11020154006353,1.251344100443682,66.66492584824341,2,v,1.0853535999995074,incorrect,b
304,2F4K,305,1,51.453309741010514,73.25609220218743,1.4576044737314802,70.78784726750439,1,n,0.8864489999996295,incorrect,c
305,2F4K,306,1,37.24315741002323,55.72329875469321,1.084698974951668,57.67639502236554,1,c,0.6543774999991001,correct,c
306,2F4K,307,2,40.63295337471522,55.26646280265709,1.163917338234728,57.28789104438818,2,v,1.5116486999995686,incorrect,b
307,2F4K,308,2,42.19318886031839,28.921621093234585,1.2022989508280524,34.025337059711994,1,v,1.995564100001502,correct,v
308,2F4K,309,2,43.36117069635024,31.0363059422218,1.231857281987767,35.81935555896978,1,v,0.6245249999992666,correct,v
309,2F4K,310,2,54.91239732243288,42.69404162807064,1.5663123280708564,46.15507962985708,1,b,1.9959569000002375,incorrect,v
310,2F4K,311,2,60.10945138254694,47.14813715907055,1.7450683465497134,50.16366081129307,1,v,1.3283878000002005,correct,v
311,2F4K,312,2,51.94708623169598,67.81461405351752,1.4726479549420477,67.16723036586657,2,v,0.4870055000010325,incorrect,b
312,2F4K,313,1,54.590269521335465,37.23461230981266,1.555855510053537,41.25049426937389,2,n,1.5951744000012695,correct,n
313,2F4K,314,2,40.52885822190064,32.961499860203936,1.161400650057791,37.48213370040786,1,v,1.5344920000006823,correct,v
314,2F4K,315,2,40.195400047591136,57.96110758731732,1.1533752756076148,59.55370789826842,2,v,1.8318746999993891,incorrect,b
315,2F4K,316,2,59.85089408884197,73.8053293191322,1.7357110806496376,71.12617611027852,2,v,1.9011368999999831,incorrect,b
316,2F4K,317,2,32.89984087947178,55.48966356395269,0.9910262841326848,57.47791611568992,2,b,1.3706068999999843,correct,b
317,2F4K,318,2,47.23560300822373,34.779717736157146,1.3352113191933492,39.07423843439044,1,v,0.9579233999993448,correct,v
318,2F4K,319,1,44.43669641326721,58.09414608579602,1.2597180730853117,59.66387786786681,1,c,1.0247686999991856,correct,c
319,2F4K,320,1,50.87195688266891,36.05382680383923,1.440089729679091,40.20040256689221,2,n,1.4521077000008518,correct,n
320,2F4K,321,2,41.744447202196,50.77762262507645,1.191132095815891,53.39183216108463,2,v,3.4119850999995833,incorrect,b
321,2F4K,322,1,39.97360008695208,58.81386772945336,1.1480679262486684,60.256900815809416,1,c,1.0611248999994132,correct,c
322,2F4K,323,2,67.50460983961197,51.57340379549272,2.0351544625638263,54.091673468418726,1,v,0.8439909999997326,correct,v
323,2F4K,324,2,58.093915950021824,35.529756604400546,1.6734407578502006,39.73624433358767,1,v,2.2034634000010556,correct,v
324,2F4K,325,2,28.34360636338384,39.19078601596432,0.9014430097911268,43.00083612601838,2,v,1.7421666999998706,incorrect,b
325,2F4K,326,2,60.27912533738692,50.46251826275528,1.7512362947673703,53.11380344111771,1,b,0.866911799999798,incorrect,v
326,2F4K,327,1,71.8469344167493,49.25637687327108,2.22747313598314,52.04524031550326,2,c,1.0842984999999317,incorrect,n
327,2F4K,328,2,73.92503191210787,61.67054674859763,2.325838554742624,62.55739331376088,1,b,1.3088662000009208,incorrect,v
328,2F4K,329,1,42.84479995985339,58.03754818695652,1.2187008182446584,59.6170295102071,1,c,1.807522600000084,correct,c
329,2F4K,330,2,52.68666865977253,43.460780104887775,1.495471130235467,46.846578708680894,1,v,1.4314343000005465,correct,v
330,2F4K,331,2,56.60728265306293,72.33056747451423,1.622500001537904,70.20605834776381,2,v,2.519014400000742,incorrect,b
331,2F4K,332,2,50.54173653241426,41.3145458537626,1.4302348832169194,44.91130713658929,1,v,1.3547840000010183,correct,v
332,2F4K,333,2,38.21920623648085,57.938788684702416,1.106939356985533,59.53520892755477,2,b,1.8136672000000544,correct,b
333,2F4K,334,1,52.34187708929566,38.02246918595246,1.4847873380954366,41.95404339363617,2,n,1.842933500000072,correct,n
334,2F4K,335,1,63.32058722983873,74.03858378228435,1.865571451984316,71.26828073598942,1,c,0.7566759000001184,correct,c
335,2F4K,336,2,48.34701283225896,31.76929538661876,1.3664288919906007,36.44937218190833,1,v,1.4569341000005807,correct,v
336,2F4K,337,2,21.794269981070972,39.92394371972837,0.7866687063094538,43.65946188924853,2,v,2.743525199999567,incorrect,b
337,2F4K,338,2,45.316699821979405,59.6987881537402,1.282982057656758,60.97890071882984,2,v,0.7639744999996765,incorrect,b
338,2F4K,339,1,32.48280548343483,46.7919075081881,0.9824692539338876,49.84433964836579,1,c,1.2127175999994506,correct,c
339,2F4K,340,1,57.55773080990234,67.25070669038658,1.6548860994058676,66.76569647373584,1,c,1.0685252000002947,correct,c
340,2F4K,341,1,57.82229532440814,40.42837236008653,1.6640154858710363,44.113222568573065,2,n,0.7758915000013076,correct,n
341,2F4K,342,2,71.66456815825606,54.47455122801987,2.2190421091150934,56.61055196706848,1,b,1.3477514999995037,incorrect,v
342,2F4K,343,1,52.44067413825235,48.23406224338415,1.4878408606562918,51.13476658543469,2,c,1.7338159999999334,incorrect,n
343,2F4K,344,1,43.63999563150836,50.950939695600105,1.2390203380321352,53.54454113598767,1,c,3.5797156000007817,correct,c
344,2F4K,345,1,27.87091336665501,46.10390171878558,0.8926257936731764,49.22672345604515,1,c,1.1716957000007824,correct,c
345,2F4K,346,2,44.25111194251461,53.88625659082832,1.2548660374617695,56.10433803270319,2,v,1.7469010000004346,incorrect,b
346,2F4K,347,2,50.765932419896174,67.46549334517373,1.4369182371750426,66.91918662663419,2,b,1.3416059999999561,correct,b
347,2F4K,348,2,56.03903026223695,68.96011597796344,1.6034405980260689,67.9683016039186,2,v,1.1161474000000453,incorrect,b
348,2F4K,349,1,60.23508816177974,44.147862394277865,1.749633373873837,47.466050288601366,2,n,1.306367400000454,correct,n
349,2F4K,350,1,44.82098579358179,51.539977386422834,1.2698249006005715,54.06234636854406,1,n,0.6899353999997402,incorrect,c
350,2F4K,351,1,44.32088867038024,32.09530655226778,1.2566881273258446,36.730824713546525,2,n,0.7711713999997301,correct,n
351,2F4K,352,2,70.03875201640162,50.05090083742128,2.1452749460519627,52.74988505019094,1,v,0.84868970000025,correct,v
352,2F4K,353,2,61.55414674635871,53.01342604951248,1.7982883889923411,55.34881918442122,1,v,0.8789710000000923,correct,v
353,2F4K,354,2,49.67944732885495,61.90024853797253,1.4048181795986123,62.73841867421789,2,b,0.9835689999999886,correct,b
354,2F4K,355,2,40.98388649121048,49.057010708645,1.1724420320890203,51.86800359164585,2,b,0.6732952000002115,correct,b
355,2F4K,356,2,47.14268847195801,31.276915802323607,1.3326340433600734,36.025728095687164,1,v,0.9579445000017586,correct,v
356,2F4K,357,2,44.709957411386064,56.46791009729097,1.2668965483279349,58.30594024957772,2,b,1.7043934999983321,correct,b
357,2F4K,358,1,34.38448163487138,42.8217490718305,1.0220986509249173,46.270258843024365,1,c,1.0602387999988423,correct,c
358,2F4K,359,2,61.4255162886861,43.857345485956216,1.7934847631130546,47.20415724323846,1,b,3.1987128000000666,incorrect,v
359,2F4K,360,1,52.99219754400201,59.39884112684724,1.505002544683595,60.73508061281486,1,c,0.9640684999994846,correct,c
360,2F4K,361,2,59.54371199871456,55.29961491634008,1.724659262867576,57.31614065013132,1,b,3.573960599998827,incorrect,v
361,2F4K,362,1,48.207571752431775,57.197770905776935,1.3624725392799475,58.91836723684482,1,c,1.3538026999995054,correct,c
362,2F4K,363,1,47.81763648226075,57.64935751091077,1.3514696320919533,59.294887707950274,1,c,1.0731785999996646,correct,c
363,2F4K,364,2,54.99198533365172,43.18123410230987,1.5689066995400558,46.594475634768806,1,b,1.3952896999999211,incorrect,v
364,2F4K,365,2,39.80548434121295,54.40935823998927,1.1440614387288537,56.554579294207855,2,b,1.8804499999987456,correct,b
365,2F4K,366,2,49.92678824256164,37.40420018630739,1.4120622077523206,41.40175417332416,1,b,1.2553403000001708,incorrect,v
366,2F4K,367,2,60.86210414911152,50.0354096873083,1.772595215643778,52.736173364352815,1,v,1.5893851000000723,correct,v
367,2F4K,368,1,51.86765301140952,43.072122027020825,1.4702174909202583,46.49606978617447,2,n,1.8014875000008033,correct,n
368,2F4K,369,2,66.95045235801908,59.59699572188075,2.011837207372289,60.89626145386831,1,v,0.7566949000010936,correct,v
369,2F4K,370,2,44.89782447788239,49.76266831318573,1.2718554683405658,52.49458125551544,2,b,0.8064465000006749,correct,b
370,2F4K,371,2,36.39644078999552,51.71914619823345,1.0657678538673834,54.21946877897906,2,b,0.7104983999997785,correct,b
371,2F4K,372,1,52.06055678853405,39.53445942334919,1.4761268498682334,43.30942800444701,2,n,0.9820665999995981,correct,n
372,2F4K,373,2,27.8878649685145,43.53439091264716,0.8929404985245946,46.91295863668388,2,b,0.9761139000002004,correct,b
373,2F4K,374,1,56.86908102699231,47.96628355628168,1.6313568872397666,50.89565180941566,2,n,1.3525571999998647,correct,n
374,2F4K,375,1,26.115664311167752,42.17444836057662,0.8606329190871392,45.68649119747512,1,n,0.5709414000011748,incorrect,c
375,2F4K,376,1,30.1714444495422,39.70930865620005,0.9363652718285328,43.46652866597981,1,c,1.1886090000007243,correct,c
376,2F4K,377,2,51.069899715407445,28.76022356227574,1.4460295069141833,33.88996419814295,1,v,1.8500550999997358,correct,v
377,2F4K,378,1,41.15560810965832,49.95113823562485,1.1766361312993172,52.66156268395746,1,c,0.8001672000009421,correct,c
378,2F4K,379,1,64.7031925012925,47.155666662684695,1.919985978416601,50.17040647455291,2,c,0.5282861999985471,incorrect,n
379,2F4K,380,1,68.14640995909528,46.8372909487634,2.062497397263237,49.88503963745828,2,n,0.6970946000001277,correct,n
380,2F4K,381,2,56.774891727049145,47.37440427805507,1.6281648200227556,50.366302651415246,1,v,1.2256016999999702,correct,v
381,2F4K,382,2,46.12643893966422,35.69717362884681,1.3047678763816923,39.88438500815561,1,b,0.9228617000007944,incorrect,v
382,2F4K,383,1,64.10162737405382,51.217677897977495,1.8961180943618132,53.77925511133115,2,n,1.0065149999991263,correct,n
383,2F4K,384,1,50.28443572068421,37.698286050157535,1.4226029611421065,41.6642966710372,2,c,3.0289180999989185,incorrect,n
384,2F4K,385,2,41.35614810767567,50.64886889344225,1.1815530807708647,53.27828805511284,2,b,1.3827365999986796,correct,b
385,2F4K,386,2,62.58097117463792,53.38111862383492,1.83709869547466,55.66772230304056,1,v,0.7273443000012776,correct,v
386,2F4K,387,2,31.474900532290576,44.12977543980124,0.9620921684665166,47.44974730164145,2,b,0.7529618000007758,correct,b
387,2F4K,388,2,45.443723509505766,58.862013709091606,1.286375384637406,60.29638833768691,2,b,0.8383730999994441,correct,b
388,2F4K,389,1,53.37913096124636,70.89605028897246,1.517160723846653,69.2760191012103,1,c,0.8244051999990916,correct,c
389,2F4K,390,2,61.989473058817154,47.13327231775938,1.8146410393490429,50.15034297334615,1,v,0.9641035999993619,correct,v
390,2F4K,391,2,42.97922317820026,29.747600745714895,1.2221121600007403,34.72167917785645,1,v,1.5676002000000153,correct,v
391,2F4K,392,2,66.99419414578367,53.78831589083789,2.0136679766229584,56.01982146787751,1,v,0.9154710000002524,correct,v
392,2F4K,393,2,50.30846001818251,40.55147153434204,1.423313830192294,44.224021197532274,1,b,0.8293988000004902,incorrect,v
393,2F4K,394,1,46.70018479422029,61.457688047894486,1.3204279149974687,62.38909313880513,1,c,1.177767799999856,correct,c
394,2F4K,395,2,27.27975357900199,47.88783640964572,0.8817200718810919,50.82555628112501,2,b,1.164754900000844,correct,b
395,2F4K,396,1,50.66185944919267,64.1744508002023,1.4338119123142172,64.49611917269335,1,c,1.3042134999996051,correct,c
396,2F4K,397,1,60.37340222424592,41.66433578743241,1.7546728432122496,45.22656915732895,2,n,0.9829319000000396,correct,n
397,2F4K,398,2,48.79590726067826,59.04696468346848,1.3792435347638996,60.447860887335054,2,b,1.5715646999997261,correct,b
398,2F4K,399,2,44.566207525715214,31.404603009826715,1.2631152021103496,36.135420873525256,1,v,1.8863531000006333,correct,v
399,2F4K,400,2,35.117993508449466,50.56579943903626,1.0378081748945462,53.20498716689186,2,v,1.898887299999842,incorrect,b
