,condition,trial,sub_task,x,y,xt,yt,cat,resp,rt,acc,correct_resp
0,2F4K,1,2,44.41577483295536,56.57181983916493,1.2591701493739451,58.04630321205386,2,v,3.0410048999999617,incorrect,b
1,2F4K,2,2,46.612012323196296,39.52075521999611,1.318009135117609,43.18129097282719,1,b,2.037422600000127,incorrect,v
2,2F4K,3,2,70.66229365550029,50.112615436222015,2.1732720912839083,52.54301194871126,1,v,2.001713299999892,correct,v
3,2F4K,4,1,64.3476838183064,50.31448863437555,1.90584463423433,52.71879885780422,2,c,3.6123403999999937,incorrect,n
4,2F4K,5,1,71.9568631537304,50.81769494250588,2.232570749447694,53.15612649298777,2,n,1.0185683999998218,correct,n
5,2F4K,6,2,61.83474626432614,49.38257339311291,1.8088118991777555,51.905771757193726,1,v,2.1788375000000997,correct,v
6,2F4K,7,2,54.43278705632806,73.70152898647258,1.5507687966187818,70.52141925275826,2,v,1.1757970999999543,incorrect,b
7,2F4K,8,2,33.5597534574668,54.43744882873546,1.0047193754584254,56.25938960306976,2,v,1.807481800000005,incorrect,b
8,2F4K,9,2,30.04059246384226,44.74767555667855,0.9338208939576084,47.81854429892813,2,v,5.0,incorrect,b
9,2F4K,10,1,38.80932568699444,49.84374961487112,1.120606503613932,52.30859760119499,1,c,1.8439080999999078,correct,c
10,2F4K,11,2,68.72243925327888,50.3802188738908,2.087350941091904,52.77599383620431,1,b,1.0983415000000605,incorrect,v
11,2F4K,12,1,48.180067517384366,58.91122785823268,1.361693517040092,59.9598405752466,1,c,1.334107099999983,correct,c
12,2F4K,13,2,44.19571885209268,39.84729831647628,1.2534214309242793,43.47023332934347,1,b,1.011438300000009,incorrect,v
13,2F4K,14,2,41.88908584415107,48.94478664707738,1.1947200282049562,51.52255569790336,2,v,1.1339089999999032,incorrect,b
14,2F4K,15,1,38.4163978487604,49.632299992919904,1.1114876631988082,52.12401554837599,1,n,1.4494787000000997,incorrect,c
15,2F4K,16,1,49.88867914630925,34.90389922053389,1.4109436533101012,39.13084403794908,2,c,1.175463499999978,incorrect,n
16,2F4K,17,1,52.32907208409193,39.43295004400291,1.4843920325458615,43.10363435327162,2,c,1.2612851999999748,incorrect,n
17,2F4K,18,2,61.70677760974348,43.73269823605225,1.8040049888762093,46.917809494831694,1,v,1.0367502999999942,correct,v
18,2F4K,19,2,51.329839393555424,62.803519811675535,1.4538668836057185,63.01969365889877,2,b,0.9823593999999503,correct,b
19,2F4K,20,2,56.34703476509112,40.414111514921615,1.613743229802711,43.97225483047792,1,v,0.6801015999999436,correct,v
20,2F4K,21,2,50.94184156966797,35.94101645127932,1.4421840055656387,40.0335332918665,1,v,0.7151411999998345,correct,v
21,2F4K,22,2,63.41440719634296,72.98052885451179,1.86921460644697,70.0817735472218,2,b,0.7271153000001505,correct,b
22,2F4K,23,1,58.414458703372745,47.26704749950569,1.684632333118191,50.047514102503015,2,c,0.721151799999916,incorrect,n
23,2F4K,24,2,38.59970925333623,61.15167981311973,1.11573257668928,61.74161862525844,2,b,1.2664580999999089,correct,b
24,2F4K,25,1,47.0959101681166,59.75585109379792,1.3313383838658486,60.63774413376768,1,n,0.6908426999998483,incorrect,c
25,2F4K,26,1,48.18979688032529,42.83294851382911,1.3619690378606792,46.11882730166172,2,n,1.376600999999937,correct,n
26,2F4K,27,2,54.50281767254936,41.04504775335828,1.5530287421688955,44.53165650035854,1,v,1.1329229000000396,correct,v
27,2F4K,28,2,33.78919317926604,45.75727794487171,1.0095244102447842,48.7132705939812,2,v,0.9760232999999516,incorrect,b
28,2F4K,29,2,43.64161571751721,33.75191193416409,1.2390620797710998,38.134583745431335,1,v,0.9627590000000055,correct,v
29,2F4K,30,1,61.98506010390396,46.82195064411192,1.8144745267850255,49.65473480926467,2,c,0.9209261000000879,incorrect,n
30,2F4K,31,1,60.97136387114811,40.31512734976396,1.7766271163674887,43.88454584516456,2,n,0.8971836000000621,correct,n
31,2F4K,32,2,58.42166351639068,45.0570538899805,1.6848847434311518,48.0928823975998,1,v,0.7518734000000222,correct,v
32,2F4K,33,1,48.04648529283634,64.29694177890023,1.357916301977638,64.14690461473435,1,c,0.8303912999999739,correct,c
33,2F4K,34,1,57.82532264301483,48.32570735799437,1.664120241140755,50.97938613192983,2,n,0.6969387000001461,correct,n
34,2F4K,35,2,54.37368378376385,42.27744175342969,1.5488640445775317,45.625511059639145,1,v,0.7636894999998276,correct,v
35,2F4K,36,2,47.20688911902398,32.0076245450828,1.3344143177797287,36.640989097884905,1,v,1.4616057999999157,correct,v
36,2F4K,37,2,47.94713104595566,65.46978114411466,1.3551137246670206,65.01213034704122,2,b,0.874505999999883,correct,b
37,2F4K,38,1,52.95553238025245,59.32734492126095,1.503855521938929,60.2947269479014,1,c,1.9106663000000026,correct,c
38,2F4K,39,2,47.15870725963539,57.2002181634656,1.333078019466649,58.56522453406132,2,v,1.1695193999998992,incorrect,b
39,2F4K,40,1,46.19000117725149,38.15184324445872,1.3064935799318644,41.972745404181424,2,c,1.2310187999999016,incorrect,n
40,2F4K,41,1,42.53462449627105,32.416960057679354,1.2108655940184183,36.98974291913161,2,n,5.0,incorrect,n
41,2F4K,42,2,61.0669356287487,39.009896530554165,1.7801614227584652,42.72972240091041,1,v,1.6075019999998403,correct,v
42,2F4K,43,2,67.13404577870368,46.27312766307338,2.019532514113684,49.16973488998188,1,v,0.85469379999995,correct,v
43,2F4K,44,1,33.93691300661269,54.13957184905083,1.0126301819138936,56.00722926049261,1,n,0.9410581999995884,incorrect,c
44,2F4K,45,2,63.95294473558559,40.60343950601157,1.8902647892663509,44.14005891823748,1,v,0.9228187999997317,correct,v
45,2F4K,46,2,33.43860026856055,50.03056483429996,1.0021913619123497,52.47150987790123,2,b,0.950866600000154,correct,b
46,2F4K,47,2,37.5344737892878,56.87719616907843,1.0912897568100153,58.29890978708186,2,b,0.6847635999997692,correct,b
47,2F4K,48,2,65.54063446696796,44.59334283329456,1.9537136536975412,47.681646727695714,1,v,0.9821648999995887,correct,v
48,2F4K,49,1,40.47098464974214,51.80915790232319,1.1600038064944969,54.01396148838062,1,n,1.2432079999998678,incorrect,c
49,2F4K,50,1,62.63749676859451,45.001315299104725,1.839259321497738,48.04346619309489,2,n,1.5333648000000721,correct,n
50,2F4K,51,1,42.08418625501103,54.19814831523211,1.1995768515564866,56.05686606141023,1,n,1.0367685000001075,incorrect,c
51,2F4K,52,2,58.98362735241268,48.24139729697417,1.704689306827197,50.90530692138378,1,v,1.1023457000001144,correct,v
52,2F4K,53,2,45.83308491016135,55.8543254165604,1.2968328554355593,57.44967904162645,2,b,1.1210926999997355,correct,b
53,2F4K,54,2,69.72629931348649,52.95875431421501,2.131381695692121,55.00158496583653,1,v,0.7515041999999994,correct,v
54,2F4K,55,2,50.690014550098525,32.45244694220096,1.434651610330731,37.02003042469936,1,b,1.2301378999995904,incorrect,v
55,2F4K,56,2,55.73904812578219,43.31874990209318,1.5934695424973602,46.55024958250963,1,v,1.0974324000003435,correct,v
56,2F4K,57,1,51.95264447594259,62.04350733027815,1.4728181740772393,62.43559709422096,1,c,1.1329384999999093,correct,c
57,2F4K,58,2,68.14067257255257,58.29364074260861,2.0622513444534887,59.45965671681318,1,v,0.866874800000005,correct,v
58,2F4K,59,1,56.53284684982517,46.48715431351649,1.619990559129642,49.358956470994094,2,c,0.9032547000001614,incorrect,n
59,2F4K,60,2,48.73392899990889,34.638892925136986,1.3774671083264551,38.90103230312079,1,v,1.450080799999796,correct,v
60,2F4K,61,1,41.2568685722033,48.41817091183538,1.1791163279670291,51.06060084115978,1,n,0.7273654999999053,incorrect,c
61,2F4K,62,2,33.10918697441116,51.06510430474145,0.9953498530670452,53.37068023627312,2,b,0.9031514000002971,correct,b
62,2F4K,63,2,47.16637268462279,29.37883492999971,1.333290526414978,34.43039832381548,1,v,1.358338200000162,correct,v
63,2F4K,64,1,29.400463880501505,41.52580682335241,0.9214730747992396,44.95822716863164,1,n,1.3705732999997053,incorrect,c
64,2F4K,65,1,43.48503511591857,65.45183561463939,1.2350342519335866,64.99902891786414,1,n,1.3766469000001962,incorrect,c
65,2F4K,66,2,69.98693766954693,50.51053996901361,2.1429647663667617,52.88933098530264,1,v,0.9219433999996909,correct,v
66,2F4K,67,2,67.60170800469567,45.288070135119256,2.039267793301138,48.29764665549637,1,v,0.7953904000000875,correct,v
67,2F4K,68,1,54.13396347823872,67.35055665042024,1.541162411198356,66.36065579518068,1,n,2.003079699999944,incorrect,c
68,2F4K,69,2,52.41144736488216,42.51496745353961,1.486936894639839,45.836437454907234,1,v,1.3402467999999317,correct,v
69,2F4K,70,2,55.06430678673704,50.71368948200791,1.5712679256751538,53.065839713414434,1,v,1.1096308000001045,correct,v
70,2F4K,71,1,56.08063213660716,38.078355638198666,1.6048283132543706,41.908011808639685,2,c,1.443240799999785,incorrect,n
71,2F4K,72,2,55.69936862931412,50.34865090500598,1.5921552940384416,52.748527631512886,1,v,1.6135650999999598,correct,v
72,2F4K,73,1,38.87946354188707,47.9151282903616,1.122242073388173,50.618402830327874,1,c,1.819586099999924,correct,c
73,2F4K,74,1,63.94605759821755,46.17122109657385,1.8899940962773711,49.07960336990076,2,n,1.097445500000049,correct,n
74,2F4K,75,2,57.99605370285206,72.29438509329495,1.6700387882770016,69.65528125675738,2,b,1.8670022000001154,correct,b
75,2F4K,76,1,65.58256674435519,52.44540722070777,1.9554179513048588,54.561554130324886,2,n,1.3827166999999463,correct,n
76,2F4K,77,1,38.95323130919531,47.29651906210788,1.1239648661509012,50.07350239242127,1,c,0.8234671000000162,correct,c
77,2F4K,78,1,42.99776719893828,29.877093297984764,1.2225835120750992,34.84524796559673,2,n,1.5530091999999058,correct,n
78,2F4K,79,1,41.56483630024887,56.04538408471371,1.1866916296525734,57.60897024821601,1,n,0.9228118999999424,incorrect,c
79,2F4K,80,1,30.762162850722227,40.232515912338805,0.9479381825604586,43.81135679182713,1,c,0.8196928000002117,correct,c
80,2F4K,81,2,59.48630820181833,42.60642424248535,1.7226018025768308,45.9176562344601,1,v,3.216683699999976,correct,v
81,2F4K,82,1,53.601311737096616,62.69516832918985,1.5241864047097873,62.936842593983656,1,c,2.519011700000192,correct,c
82,2F4K,83,2,56.96627508898936,38.9939001315811,1.6346573465142409,42.715592482199845,1,v,1.4737193999999363,correct,v
83,2F4K,84,2,47.21931996097251,65.5531879544682,1.3347592979130007,65.07296595771825,2,b,2.038121399999909,correct,b
84,2F4K,85,2,29.81625281806594,47.411930797565496,0.9294747537582102,50.17524958804469,2,b,1.0367229000003135,correct,b
85,2F4K,86,1,42.10358705010917,57.261453866948,1.2000608923089773,58.61560561239503,1,n,1.6685006000002431,incorrect,c
86,2F4K,87,1,54.12829029357827,39.625173863363045,1.540980610131664,43.273662295944376,2,n,1.4252093999998579,correct,n
87,2F4K,88,1,35.98713166912405,53.65585168242717,1.0567352315591738,55.59641067424447,1,c,0.8850079000003461,correct,c
88,2F4K,89,1,53.21311224469693,41.89335816424925,1.5119321177431826,45.28448722320432,2,n,0.8061562999996568,correct,n
89,2F4K,90,2,48.01322179300025,60.9904438814696,1.356977362782458,61.61519162347376,2,v,1.0248619999997572,incorrect,b
90,2F4K,91,2,58.03413343367171,43.36558275301346,1.671361725091661,46.59183758414388,1,v,1.3282382000002144,correct,v
91,2F4K,92,2,32.42845037570491,47.39474674232974,0.9813594132775476,50.16010253067565,2,b,0.7459297000000333,correct,b
92,2F4K,93,1,49.71997854176042,32.93912506098004,1.406002691597303,37.43622661940225,2,c,1.61938310000005,incorrect,n
93,2F4K,94,1,60.26191492285578,54.12915093074212,1.7506096735648176,55.99839617346174,2,n,0.7276051000003463,correct,n
94,2F4K,95,1,33.97684760074226,42.62284487955991,1.0134714360130028,45.93223884180265,1,c,0.7818901000000551,correct,c
95,2F4K,96,2,31.300664032873296,44.37485588078443,0.9586126750935652,47.487797687349314,2,v,2.773963499999809,incorrect,b
96,2F4K,97,1,33.91901816281455,54.17324853629597,1.012253439345297,56.03576935954601,1,c,1.3826665000001412,correct,c
97,2F4K,98,2,74.41105640264553,51.76708466880709,2.349464048974949,53.9776680255581,1,v,1.2552521000002343,correct,v
98,2F4K,99,1,27.63444677432971,40.313252018088434,0.8882473615104739,43.88288428274454,1,c,2.037627999999586,correct,c
99,2F4K,100,2,52.403556313374295,40.82620943658636,1.4866929234746686,44.337569110909165,1,v,1.6982898000001114,correct,v
100,2F4K,101,2,28.198341702134663,43.06009577984646,0.8987241350715375,46.32055242977006,2,b,0.8486151000001882,correct,b
101,2F4K,102,2,39.06865783415602,50.11247121896602,1.1266658773168754,52.54288629941514,2,b,0.9277114999999867,correct,b
102,2F4K,103,1,64.60731491029054,49.96475154295416,1.916161880289506,52.414135367136375,2,n,1.3098793999997724,correct,n
103,2F4K,104,1,54.16165747422323,37.99761758669885,1.542050192115415,41.83691050622764,2,n,0.7323320000000422,correct,n
104,2F4K,105,2,34.884529134863755,50.74188217367955,1.0327820803933168,53.09031906376943,2,b,1.121690899999976,correct,b
105,2F4K,106,2,62.36025324434618,40.831281928217685,1.828686282975099,44.3420672159015,1,v,0.534477600000173,correct,v
106,2F4K,107,2,50.76615991550983,45.96204304339869,1.436925034731562,48.89452693835849,1,v,0.6496664999999666,correct,v
107,2F4K,108,2,32.75875625966058,44.20591187358186,0.9881230995009772,47.33787260476464,2,b,0.8486330000000635,correct,b
108,2F4K,109,2,56.83676746126145,68.20830174104164,1.6302610787052645,66.95898303156908,2,v,0.6787150000000111,incorrect,b
109,2F4K,110,1,58.04717040082216,46.57139700252219,1.6718148861772373,49.43340679876879,2,n,1.1876618000001145,correct,n
110,2F4K,111,1,41.50477202732342,49.54317656995373,1.1852103753317922,52.04615825291558,1,n,1.2370302999997875,incorrect,c
111,2F4K,112,1,41.62621765181717,53.28809616449878,1.1882072772512136,55.28300856830118,1,c,1.8378623999997217,correct,c
112,2F4K,113,1,44.13105413364138,52.72204398500837,1.2517371316358965,54.79888583788056,1,n,1.6254605999997693,incorrect,c
113,2F4K,114,2,38.36269855845803,48.104037311974864,1.1102472183653351,50.78456304609313,2,b,1.9411159999999654,correct,b
114,2F4K,115,2,32.3827071489456,50.52714492977246,0.9804263844326953,52.90376600887736,2,b,1.3766461999998683,correct,b
115,2F4K,116,1,56.39766879633261,67.97354445220135,1.615443243066211,66.79629366351861,1,n,1.1338811999999052,incorrect,c
116,2F4K,117,2,24.011990048110583,35.55356665162074,0.8237963855563086,39.69571100934645,2,v,1.6800398999998833,incorrect,b
117,2F4K,118,1,51.72362230338506,37.565725988575714,1.4658207265125212,41.456921155276966,2,n,1.5456108000003042,correct,n
118,2F4K,119,1,28.79153329934165,45.177711094200816,0.9098786166664712,48.19983837888277,1,c,1.0054681000001437,correct,c
119,2F4K,120,2,59.72123980395326,70.45884900110832,1.7310377586033696,68.47648734080639,2,v,1.2429860000002009,incorrect,b
120,2F4K,121,1,60.78630707003892,44.24396403132053,1.769803529792454,47.37164329503592,2,n,2.4034997000003386,correct,n
121,2F4K,122,1,28.976429704191403,40.33838516876008,0.9133836632891732,43.90515297813394,1,c,1.230949899999814,correct,c
122,2F4K,123,2,50.10778381990361,57.91599982792737,1.4173867961474087,59.15199765000777,2,v,2.0320558000003075,incorrect,b
123,2F4K,124,1,36.38929734346046,54.84108943349689,1.065609552423679,56.600046007140186,1,c,2.4825409999998556,correct,c
124,2F4K,125,1,40.43413343381686,53.30230673230712,1.159115236664994,55.29513560464415,1,c,2.542517599999883,correct,c
125,2F4K,126,2,50.172644900817744,62.12009021075278,1.4192997839032089,62.49476306297628,2,b,1.6375185000001693,correct,b
126,2F4K,127,2,54.50515308159344,37.90849095570945,1.5531041644585195,41.75844542075205,1,v,1.2370900000000802,correct,v
127,2F4K,128,1,66.05930265444522,47.41464537131208,1.9748992827575191,50.17764229756413,2,n,1.5782439999998132,correct,n
128,2F4K,129,2,59.97330125058563,47.141038091030666,1.7401347618413896,49.93637041166914,1,v,1.5647196999998414,correct,v
129,2F4K,130,2,59.92595098350161,71.11233402519191,1.738422231631615,68.90238197830323,2,b,0.8671033999999054,correct,b
130,2F4K,131,2,52.85976433538745,44.9057020102871,1.5008636631766277,47.958688355314905,1,v,0.8245965000000979,correct,v
131,2F4K,132,2,47.49159306012915,52.9471591790698,1.342337818260004,54.99166412683925,2,v,0.7332960000003368,incorrect,b
132,2F4K,133,1,56.26333733232014,38.0778050227505,1.6109370505493652,41.9075268457736,2,n,1.5829765999997107,correct,n
133,2F4K,134,1,56.68097224039757,47.14917450550087,1.6249881158549015,49.9435482773616,2,n,1.4787521999996898,correct,n
134,2F4K,135,1,65.65167672345723,48.60029368343366,1.958230105792364,51.22047773946614,2,n,1.3826874999999745,correct,n
135,2F4K,136,1,50.57200854889928,37.99569562633383,1.4311354836099237,41.835218193272055,2,n,2.190096299999823,correct,n
136,2F4K,137,2,45.6278408861193,35.92159848667629,1.2913098585025122,40.01658646538024,1,v,2.373347900000226,correct,v
137,2F4K,138,1,36.52435983412049,53.12570116613237,1.0686065720404148,55.14432956426332,1,c,1.4494685999998183,correct,c
138,2F4K,139,1,56.86376777510095,47.02725933290461,1.6311766551532292,49.83597702830944,2,n,1.206703099999686,correct,n
139,2F4K,140,1,50.60421056017809,59.2252364682836,1.4320941243420675,60.21271258172837,1,c,1.558715199999824,correct,c
140,2F4K,141,2,71.40544174778057,53.16445266844056,2.207117218844355,55.177437492914976,1,v,1.1473516999999447,correct,v
141,2F4K,142,2,41.92699149066375,57.204187950408176,1.195662108544666,58.56849165501292,2,b,0.7697516999996878,correct,b
142,2F4K,143,1,33.00527878490195,41.84389152865388,0.9932015124348617,45.24057217689747,1,c,1.7287120999999388,correct,c
143,2F4K,144,1,33.187545907733664,45.336787721595954,0.9969730262605366,48.340817762516565,1,c,0.9335837999997239,correct,c
144,2F4K,145,2,58.5178754940936,37.39700263677982,1.6882590191619098,41.30864262733312,1,v,0.8536137999999482,correct,v
145,2F4K,146,1,39.26565756301498,51.29534242980734,1.1312907239084449,53.57005628002731,1,n,1.1231885000001967,incorrect,c
146,2F4K,147,1,45.38695436076077,59.5487534757928,1.284857738552745,60.47219930755754,1,c,1.7542943999997078,correct,c
147,2F4K,148,2,41.45345274845352,55.6630869620284,1.1839462474901967,57.28994026140734,2,b,1.2607369000002109,correct,b
148,2F4K,149,1,62.63711207226124,46.46391683096288,1.8392446083366023,49.33841718989419,2,n,1.2492001000000528,correct,n
149,2F4K,150,2,61.42830538272931,46.22454597074928,1.7935887839058364,49.12676948402948,1,v,0.8965911000000233,correct,v
150,2F4K,151,2,45.67212662993178,38.31885685320125,1.2924995685002756,42.11992405197349,1,v,1.1156820999999582,correct,v
151,2F4K,152,2,54.99149205173176,71.24583421274139,1.5688906065477493,68.98854909496183,2,v,1.2556859999999688,incorrect,b
152,2F4K,153,2,56.43560109163141,40.19578548490976,1.6167179749112173,43.77881938211342,1,v,0.7637055000000146,correct,v
153,2F4K,154,1,41.2474267966446,47.89067130211832,1.1788848474687623,50.59688246941002,1,c,2.256591599999865,correct,c
154,2F4K,155,1,46.08317840555742,32.663598523044584,1.303594664311432,37.20041534643254,2,c,0.8233233000000837,incorrect,n
155,2F4K,156,1,48.10706399434254,57.97497299907637,1.3596279452079625,59.20013101062288,1,n,1.4068378000001758,incorrect,c
156,2F4K,157,2,50.8445469206868,59.71800553993278,1.4392691496565433,60.60752522677886,2,v,1.6123775000000933,incorrect,b
157,2F4K,158,2,38.98864768829517,24.608446587355747,1.124792929456757,30.574927804550555,1,v,0.8182378999999855,correct,v
158,2F4K,159,2,62.36898376319646,44.92552115833005,1.829018303858078,47.97626248860042,1,v,1.0188005999998495,correct,v
159,2F4K,160,1,64.88690557454446,79.03477690297363,1.9273347482695395,73.48988681109174,1,n,1.7953615999999784,incorrect,c
160,2F4K,161,1,70.9614949766414,59.833777632932986,2.186835725043341,60.69991991705349,2,c,3.332948199999919,incorrect,n
161,2F4K,162,2,56.78902575139229,43.42609796095481,1.6286434222776496,46.645574574717976,1,v,2.4278809000002184,correct,v
162,2F4K,163,1,51.59209534216498,39.49656928108766,1.4618171457631737,43.15989879048293,2,c,2.3793429000002106,incorrect,n
163,2F4K,164,2,48.00632548408154,64.12961631317465,1.3567827797862744,64.02200465861003,2,b,1.564765399999942,correct,b
164,2F4K,165,2,71.54697437623936,57.03871162267448,2.2136225277979245,58.43218618039579,1,v,1.0988558999997622,correct,v
165,2F4K,166,2,49.97568180156579,68.29089942584521,1.4134985997989518,67.01603089068243,2,b,1.1935998999997537,correct,b
166,2F4K,167,1,64.75751624619136,42.45637277379095,1.922156078647724,45.78440301396628,2,n,2.3173407000003863,correct,n
167,2F4K,168,2,58.46284642589127,37.18301737022833,1.6863282538129674,41.12073005641648,1,v,2.037294799999927,correct,v
168,2F4K,169,2,58.63004361126116,74.08538882868898,1.6922014293839396,70.7518803406661,2,b,0.9032664999999724,correct,b
169,2F4K,170,2,61.790843441588926,74.83095677569452,1.807161327684028,71.19225029554161,2,b,0.751547699999719,correct,b
170,2F4K,171,2,42.49008941213822,55.44589213321271,1.209744753424429,57.10816457811247,2,v,1.1339136999999937,incorrect,b
171,2F4K,172,2,46.54092955222481,35.912684249195976,1.316062392420254,40.00880721556469,1,v,1.0988759000001664,correct,v
172,2F4K,173,2,37.45123718914208,45.489542062979474,1.0894025246402388,48.47615626077796,2,b,1.6668697999998585,correct,b
173,2F4K,174,1,48.72191120884638,64.64337617071484,1.3771229182555271,64.40435331520705,1,n,2.373317699999916,incorrect,c
174,2F4K,175,2,59.98903884034778,42.5986933947523,1.740704321056677,45.91079074729868,1,v,1.4615207000001647,correct,v
175,2F4K,176,1,40.79826043772954,58.7986230161336,1.1679251462818727,59.868920205188914,1,c,2.421882699999969,correct,c
176,2F4K,177,1,69.14182425082518,58.49554077006768,2.1056340550666888,59.62358389297653,2,n,1.1875936999999794,correct,n
177,2F4K,178,1,45.037506574794456,59.12662383343786,1.2755550796942317,60.13340605666599,1,c,1.3161479000000327,correct,c
178,2F4K,179,2,60.27731851582814,68.65777614915422,1.75117049890696,67.26819779671487,2,v,1.0619016000000556,incorrect,b
179,2F4K,180,2,65.90738857572366,49.984222261289226,1.9686704895579947,52.4311115426608,1,v,1.2613517999998294,correct,v
180,2F4K,181,1,34.09655912882084,52.72664953346582,1.0159974448565767,54.80283301289341,1,c,2.15947129999995,correct,c
181,2F4K,182,1,35.24988582066885,44.53850112008029,1.0406583987741604,47.63299403573795,1,c,0.7937532000000829,correct,c
182,2F4K,183,2,51.72200542246092,32.61074319959448,1.4657714433793352,37.15523431435405,1,v,0.83059269999967,correct,v
183,2F4K,184,1,40.41911997178642,54.60788373073376,1.1587534218133444,56.403377018257736,1,c,1.0611533000001145,correct,c
184,2F4K,185,1,56.21847741042878,75.59043609725637,1.6094350114012104,71.63086711104859,1,n,1.340206500000022,incorrect,c
185,2F4K,186,2,48.44834868321172,34.392545687551575,1.3693112938421,38.68773046310269,1,v,1.2066455999997743,correct,v
186,2F4K,187,1,74.97378128000587,58.13246491084577,2.377117864961561,59.32851408947976,2,n,1.6800441999998839,correct,n
187,2F4K,188,2,47.61358553214724,65.80045642312682,1.3457473327528628,65.25276690299792,2,b,1.5588379000000714,correct,b
188,2F4K,189,1,23.300592479558876,35.50934263094349,0.811699581270488,39.65719526909441,1,c,1.6133205999999518,correct,c
189,2F4K,190,2,67.42009342752894,47.42338277227889,2.0315808820564047,50.18534356783485,1,v,1.1095933000001423,correct,v
190,2F4K,191,1,38.07989984425312,25.918310568798645,1.1037374205175892,31.61086487038456,2,c,1.7043318000000909,incorrect,n
191,2F4K,192,1,57.57872393280272,69.32505945909493,1.655608680624055,67.72166257824286,1,n,2.456716200000301,incorrect,c
192,2F4K,193,1,33.9570340171882,54.78935652216734,1.0130539597424066,56.55645328180909,1,c,2.178231400000186,correct,c
193,2F4K,194,1,62.17941699649434,53.59174908828778,1.821822633292783,55.54184779245893,2,n,2.153437799999665,correct,n
194,2F4K,195,2,53.85700887622904,30.8700914474374,1.5323121979480825,35.67796645680647,1,v,1.0904757000002974,correct,v
195,2F4K,196,2,62.043448107714745,39.225444872545424,1.8166788988248324,42.92018073499318,1,v,0.7272439999997005,correct,v
196,2F4K,197,1,44.92547231460215,29.742259428400367,1.2725868944880756,34.73278301391293,2,n,1.5647377000000233,correct,n
197,2F4K,198,1,64.6821225391289,46.59308712156283,1.9191449447292463,49.45257294181345,2,n,1.0185685000001286,correct,n
198,2F4K,199,1,42.12207646822806,53.91074959775226,1.2005223763993045,55.81309606417778,1,c,1.0493646999998418,correct,c
199,2F4K,200,2,33.3974613842079,50.01297379898357,1.001334394843334,52.456176350311296,2,b,2.0516877000000022,correct,b
200,2F4K,201,1,41.07901099558171,52.20306404446352,1.1747634861987413,54.35326103280624,1,n,2.815387699999974,incorrect,c
201,2F4K,202,2,70.62075253545342,51.384570870188085,2.171395578803009,53.64724815411992,1,v,0.9214423999997052,correct,v
202,2F4K,203,2,44.67761853696501,38.35656116947902,1.266044887343503,42.15316182541309,1,b,1.1642363000000842,incorrect,v
203,2F4K,204,2,34.631489901994925,47.75358565706388,1.0273620566752688,50.47622173913579,2,v,0.9578340999996726,incorrect,b
204,2F4K,205,1,36.320490034646994,49.315209358873815,1.0640859602472366,51.84685536472556,1,c,3.289742099999785,correct,c
205,2F4K,206,1,62.73956236918334,42.71152161625006,1.843167100820599,46.010990253964806,2,n,0.7991845999999896,correct,n
206,2F4K,207,1,55.59182177114104,70.97021197399677,1.5885986177738511,68.81033581217521,1,n,1.3881508999998005,incorrect,c
207,2F4K,208,2,58.8310434832079,54.22316028088771,1.6992890828409002,56.0780533535889,1,v,1.539596999999958,correct,v
208,2F4K,209,1,47.55361569373992,69.88582186811486,1.3440701810038531,68.09748585968609,1,n,2.51898889999984,incorrect,c
209,2F4K,210,2,32.115480133864935,46.99432905128917,0.974993431094049,49.80691430022954,2,b,1.6436303000000407,correct,b
210,2F4K,211,1,26.89887338655808,40.302155955638185,0.8747642713288123,43.8730531791916,1,c,2.098848800000269,correct,c
211,2F4K,212,1,25.82773972160952,36.60099437144371,0.8554955121768609,40.61048069586207,1,c,0.9022245999999541,correct,c
212,2F4K,213,2,31.01835710758924,44.077313417832286,0.95300171350488,47.22373443314213,2,b,1.1338794999996935,correct,b
213,2F4K,214,1,53.16678765296911,68.9068544764161,1.5104763856740984,67.43825062837173,1,n,1.9591439000000719,incorrect,c
214,2F4K,215,1,46.90565906361627,42.74595170116657,1.3260818003388652,46.04156690417376,2,c,1.7658995000001596,incorrect,n
215,2F4K,216,2,40.776342731122696,49.55524136010195,1.167392967114692,52.05669992066005,2,v,1.5943316000002596,incorrect,b
216,2F4K,217,2,58.06016338087142,75.65575422625795,1.6722666405299995,71.66811531778363,2,b,1.6496989000002031,correct,b
217,2F4K,218,1,48.89742973301849,58.25766248247424,1.382158332062508,59.43040405446656,1,n,1.5101705000001857,incorrect,c
218,2F4K,219,2,33.19585136274475,44.89373835796463,0.997145225432042,47.94807963595599,2,v,1.8065089000001535,incorrect,b
219,2F4K,220,1,56.4666731307295,48.94632006084122,1.6177629141773429,51.523899300937366,2,c,3.0651471999999558,incorrect,n
220,2F4K,221,1,45.57273064748215,58.39176888793489,1.2898308841245276,59.539378202515486,1,c,1.7155540000003384,correct,c
221,2F4K,222,2,56.7074138977596,74.8908968265448,1.6258818430631512,71.22723473786064,2,b,2.5371822000001885,correct,b
222,2F4K,223,1,56.9828616316839,45.598530082802114,1.6352212492676992,48.57269437914765,2,n,1.6800121000001127,correct,n
223,2F4K,224,2,50.91657667163536,71.37606722756945,1.441426526102123,69.07233105816343,2,b,1.6121197000002212,correct,b
224,2F4K,225,2,49.64306220158983,35.5378883000896,1.4037556856922335,39.68205531996007,1,v,0.7029703999996855,correct,v
225,2F4K,226,2,38.79455463813224,46.3830020910601,1.1202623562138518,49.26688811198824,2,v,2.87706419999995,incorrect,b
226,2F4K,227,1,56.48155015877825,40.37489440349832,1.6182634612791813,43.937503026909006,2,n,1.8560026999998627,correct,n
227,2F4K,228,2,73.01704582781917,52.27713340881155,2.282336280786866,54.41696072175559,1,v,1.0003676000001178,correct,v
228,2F4K,229,2,54.9363455543166,42.00489577451179,1.567092529386114,45.38351251885759,1,v,1.0846527000003334,correct,v
229,2F4K,230,2,43.9812924235302,59.64311829996391,1.2478450263877294,60.54768547636197,2,b,1.0602350999997725,correct,b
230,2F4K,231,2,42.25144947642286,53.71078910015929,1.2037564132172536,55.64315004908188,2,v,1.230945199999951,incorrect,b
231,2F4K,232,2,43.10804190436932,29.562727886915283,1.2253902327368285,34.58326775449821,1,v,0.9177599999998165,correct,v
232,2F4K,233,1,38.6354334122993,21.864821303684447,1.116561721072723,28.468546776651504,2,c,1.9046336999999767,incorrect,n
233,2F4K,234,1,57.71290712545028,70.87888664313121,1.6602347119555876,68.75101801921144,1,n,2.0381554000000506,incorrect,c
234,2F4K,235,2,78.42226384739894,65.87030956854973,2.553839599019537,65.30341004094191,1,v,1.6618561000000227,correct,v
235,2F4K,236,1,51.008458605677326,38.23334907849546,1.4441831931078333,42.04456108812346,2,n,1.8803078999999343,correct,n
236,2F4K,237,1,37.22492677344015,52.64708586304821,1.084287848459892,54.73462456588423,1,c,2.8224561000001813,correct,c
237,2F4K,238,1,43.63615048360005,57.09143685488609,1.238921272896465,58.475643203682125,1,c,1.170315699999719,correct,c
238,2F4K,239,1,38.19339516320507,56.82589099758693,1.1063453930651632,58.25652683530126,1,c,1.2542833000002247,correct,c
239,2F4K,240,2,58.5087475413051,42.95424762817587,1.6879386003813306,46.22655109643159,1,v,0.6544758999998521,correct,v
240,2F4K,241,1,61.84091066894976,48.18450088621174,1.8090437769370336,50.85530091970312,2,c,3.2349143000001277,incorrect,n
241,2F4K,242,2,62.009651692881626,44.26322379961384,1.8154026277614848,47.38873554681199,1,v,0.9457290000000285,correct,v
242,2F4K,243,2,55.65368333133791,63.70585377465192,1.590643466229679,63.70409354394359,2,v,1.3949267999996664,incorrect,b
243,2F4K,244,1,65.81998020882847,51.39653495811672,1.9650954724468384,53.65759506353436,2,n,2.8224330000002738,correct,n
244,2F4K,245,1,37.03147448125219,23.265937336295373,1.0799348155039614,29.53304690118456,2,n,2.3550614999999198,correct,n
245,2F4K,246,2,38.05508766083203,58.68093776131008,1.1031680887303257,59.773764120520106,2,b,2.4875418000001446,correct,b
246,2F4K,247,2,50.21385964175505,59.741492570037785,1.4205166969383904,60.626280896959685,2,v,1.3269949000000452,incorrect,b
247,2F4K,248,2,44.1669795188502,30.134975155508613,1.2526725879571854,35.0607578639102,1,v,1.34630849999985,correct,v
248,2F4K,249,2,51.82766846619332,67.77608678458574,1.4689955789313394,66.65882756079225,2,b,1.2855363000003308,correct,b
249,2F4K,250,1,46.93387592984134,53.47396628622385,1.3268601114450769,55.44152086964304,1,n,3.629640300000119,incorrect,c
250,2F4K,251,2,72.41177311545721,54.930215803959584,2.253790151216877,56.6751009678632,1,v,0.8607608000002074,correct,v
251,2F4K,252,2,51.08776912586016,35.01607805038566,1.4465669281041615,39.22823251391627,1,v,2.6220938000001297,correct,v
252,2F4K,253,2,39.83446084026164,57.79152661602738,1.1447509999413636,59.05029709397103,2,b,1.1464459999997416,correct,b
253,2F4K,254,1,37.026902352604765,49.15509164898204,1.0798321458602544,51.70674216600133,1,c,2.9498931999996785,correct,c
254,2F4K,255,1,61.53593088171126,41.18512219122886,1.7976073474619212,44.655917972159685,2,n,1.279534799999965,correct,n
255,2F4K,256,1,78.5569611766112,61.41738014111327,2.561002808933027,61.94932200980735,2,n,2.6402164000000994,correct,n
256,2F4K,257,1,51.98749549495926,35.827966651816354,1.473885921935394,39.934893743090925,2,c,0.854714800000238,incorrect,n
257,2F4K,258,2,36.33615356564624,50.44584720380463,1.0644326043606442,52.83307948723218,2,b,1.4448112000000037,correct,b
258,2F4K,259,2,40.40161815298224,50.61048591044506,1.158331781718358,52.97619559102072,2,b,1.6315270000000055,correct,b
259,2F4K,260,1,29.857509243731258,44.44357867889375,0.930272495317486,47.54877621510388,1,c,1.3584303999996337,correct,c
260,2F4K,261,1,72.19211446682425,54.05092671116419,2.243519049743375,55.93206635918284,2,n,0.6847296000000824,correct,n
261,2F4K,262,2,38.39833669821591,59.12818944412049,1.111070298970689,60.13466592137809,2,b,1.9895863000001555,correct,b
262,2F4K,263,2,43.45026413820559,37.47526878417853,1.2341415928605146,41.37741280875672,1,v,1.1461269999999786,correct,v
263,2F4K,264,2,36.354717830253016,28.021066757328757,1.0648435898261646,33.31075508776471,1,v,0.8607530999997834,correct,v
264,2F4K,265,1,39.14962202774234,53.466368970123305,1.1285643331273705,55.43504630105534,1,c,2.3127230000000054,correct,c
265,2F4K,266,2,52.921512965925466,37.23909342719324,1.5027920499404974,41.16995781289836,1,v,1.3402359000001525,correct,v
266,2F4K,267,2,46.04443535731419,35.41912405715401,1.3025448604961911,39.57865023763341,1,v,0.7517195999998876,correct,v
267,2F4K,268,2,56.18878581340999,43.21000085655768,1.608441621698226,46.45367703662167,1,v,0.7575885000001108,correct,v
268,2F4K,269,1,55.99465040727609,64.79118598146928,1.6019615404165175,64.51372158037708,1,n,1.94715240000005,incorrect,c
269,2F4K,270,2,38.01343680813947,49.55327539604461,1.1022130428305046,52.05498219260587,2,b,1.0428524999997535,correct,b
270,2F4K,271,2,61.553718896346886,43.59117430930692,1.7982723898879414,46.7921537520695,1,v,0.8075614999997924,correct,v
271,2F4K,272,1,60.50997225578121,42.06174056033761,1.7596630104567843,45.43398311791903,2,n,1.886414799999784,correct,n
272,2F4K,273,1,58.94444507929538,65.06816069983907,1.7033009385989275,64.71788974967724,1,n,1.6254543000000012,incorrect,c
273,2F4K,274,1,47.03257939963849,61.24427344626736,1.3295862632828244,61.81409111549176,1,c,2.6828952000000754,correct,c
274,2F4K,275,1,47.86340287979428,29.87347278109888,1.3527564183315484,34.842226153481064,2,n,1.0184863999998015,correct,n
275,2F4K,276,2,56.042441015558914,48.07436538251846,1.60355432547651,50.758472087877706,1,v,0.7841404000000693,correct,v
276,2F4K,277,2,56.93431702368768,45.44669577689586,1.6335713970155332,48.43819884680797,1,v,0.8486225000001468,correct,v
277,2F4K,278,1,38.8593060305339,54.17034016002116,1.1217717688620168,56.033304906605366,1,c,1.9167752999996992,correct,c
278,2F4K,279,1,48.855603028752085,39.294245918601575,1.3809567060951986,42.98099635122373,2,n,1.6078373000000283,correct,n
279,2F4K,280,1,50.10133955470346,56.95917867222434,1.4171968723414756,58.36658730014809,1,c,1.1338689000003797,correct,c
280,2F4K,281,2,32.15281654600632,51.506691681476255,0.9757506990658296,53.75282533960052,2,b,4.484412799999973,correct,b
281,2F4K,282,2,58.10910263464695,43.79474549109961,1.6739693109313676,46.97289634080818,1,v,0.7385947999996461,correct,v
282,2F4K,283,1,20.36437399229624,32.87324830857642,0.7636223425522928,37.37980171217946,1,n,2.3005370999999286,incorrect,c
283,2F4K,284,2,46.990501106014754,30.769014091434304,1.3284233927475886,35.59285430062579,1,v,2.5615224999996826,correct,v
284,2F4K,285,1,35.65970259265348,54.01024619200584,1.049564681117077,55.89755443846919,1,c,3.3989501999999447,correct,c
285,2F4K,286,2,46.65230575775454,62.5601598277312,1.3191139293020018,62.8334108475287,2,b,1.8989465999998174,correct,b
286,2F4K,287,2,39.55502085101023,53.57200839718229,1.1381183799289334,55.52503928282504,2,b,2.7800860000002103,correct,b
287,2F4K,288,1,63.97616671222755,73.27299584497501,1.8911777947924475,70.2611710875202,1,n,1.1947147999999288,incorrect,c
288,2F4K,289,1,47.21255051312245,66.40082481306227,1.3345714214606936,65.68584457685333,1,n,2.5796722000000045,incorrect,c
289,2F4K,290,2,65.24144699902581,57.59644635592857,1.941596495998759,58.89061829319069,1,v,0.8182883999998012,correct,v
290,2F4K,291,1,37.25730552321522,50.41453711489646,1.0850181422282963,52.8058475410535,1,c,1.1024145000001226,correct,c
291,2F4K,292,1,54.048406485342575,46.34597967030078,1.538422954975819,49.23415513359377,2,n,1.6679139000002579,correct,n
292,2F4K,293,1,48.03935076929752,63.13032189663205,1.3577148588397443,63.26872172636447,1,c,2.1109755000002224,correct,c
293,2F4K,294,2,62.46424875950756,54.27757903153418,1.8326451435315347,56.12413523545356,1,v,1.3644657999998344,correct,v
294,2F4K,295,2,47.409673457815934,35.42630846583762,1.3400531322326596,39.58490363579201,1,b,1.5176295000001119,incorrect,v
295,2F4K,296,2,56.51120099895328,47.050373198066126,1.6192615447003458,49.856374517428,1,v,1.219177999999829,correct,v
296,2F4K,297,1,37.35876175023018,50.82912509946833,1.087309646253041,53.16604564406307,1,c,1.637547899999845,correct,c
297,2F4K,298,2,52.53459315674997,69.03402105105954,1.4907494398849723,67.52471040363402,2,b,1.2553815999999642,correct,b
298,2F4K,299,1,32.09991695682244,41.24947445976938,0.9746779477827532,44.71301269467219,1,c,1.4677122000002782,correct,c
299,2F4K,300,2,29.46438151020335,52.08025286767916,0.9226986463630766,54.24757184605104,2,b,1.4190361000000848,correct,b
300,2F4K,301,2,48.79600756217582,64.92074214202056,1.3792464114703211,64.6093480047901,2,v,1.6132906999996521,incorrect,b
301,2F4K,302,2,24.391005141970364,45.0820383280496,0.8303147051663413,48.11503145304263,2,b,1.874246100000164,correct,b
302,2F4K,303,2,39.71631439212163,28.22751993493034,1.1419420432579148,33.479940364166566,1,v,0.873142800000096,correct,v
303,2F4K,304,2,45.568089839607424,60.429272057649406,1.2897064177264843,61.17293628966648,2,b,1.9713639000001422,correct,b
304,2F4K,305,1,72.6401169669099,59.63955940365706,2.2645172183285984,60.54484024223957,2,n,1.193549300000086,correct,n
305,2F4K,306,2,57.39421827597848,39.60349778688369,1.6492687977181792,43.254485218711466,1,v,1.6618438999998943,correct,v
306,2F4K,307,2,66.07061395733898,48.55878706071064,1.975363857266488,51.18405162605176,1,v,0.702958000000308,correct,v
307,2F4K,308,1,60.22437615075897,41.14147918903437,1.7492436864304095,44.61719947630719,2,n,1.3705755999999383,correct,n
308,2F4K,309,2,57.63625022002284,42.61505520759751,1.657590346992383,45.92532109476694,1,v,1.0017720999999256,correct,v
309,2F4K,310,2,50.04905647897735,67.42572915044275,1.4156569388328957,66.41351989253857,2,b,0.9116014000001087,correct,b
310,2F4K,311,1,71.09325798684112,51.01164633134093,2.192835728339315,53.32434813912577,2,n,1.6255913999998484,correct,n
311,2F4K,312,2,59.14691129137471,44.75874239611458,1.7104872363272383,47.82835982202836,1,v,1.0367427000001044,correct,v
312,2F4K,313,1,64.91075115887426,51.56723150878322,1.928290663793104,53.8051335703215,2,n,1.2623917000000802,correct,n
313,2F4K,314,1,41.31006556633778,54.20179744722203,1.1804213886109454,56.05995746976657,1,c,1.7225382000001446,correct,c
314,2F4K,315,1,50.98683155178231,62.63713639171716,1.4435338582572848,62.89241034961925,1,c,1.297734500000388,correct,c
315,2F4K,316,1,52.51927669432778,67.20758865619823,1.4902747164390258,66.25989152209127,1,c,2.5297443999997995,correct,c
316,2F4K,317,1,59.55052295576393,50.42361057145124,1.7249035434335414,52.81373966517494,2,n,1.6497130999996443,correct,n
317,2F4K,318,1,49.2965757978304,56.76351046098385,1.393677999312559,58.20496367117778,1,n,1.3402142999998432,incorrect,c
318,2F4K,319,1,34.99867223190734,53.57304831913752,1.035236340404445,55.52592480591918,1,c,2.2323378999999477,correct,c
319,2F4K,320,2,65.69895379953097,51.19972969275653,1.96015618677278,53.48729395149825,1,v,0.9213661999997385,correct,v
320,2F4K,321,1,52.46977035914175,46.208257051146745,1.488741334643724,49.11236250091642,2,n,2.7918886000002203,correct,n
321,2F4K,322,1,55.23868870526179,70.85548922811732,1.57697595326032,68.73579948001463,1,c,2.0927459999998064,correct,c
322,2F4K,323,2,29.159719371568453,44.1068039119836,0.91687157783885,47.249910055570425,2,b,0.9395497999998952,correct,b
323,2F4K,324,1,41.21013689166144,62.0762003311708,1.1779710688154508,62.46086325416412,1,n,2.835555000000113,incorrect,c
324,2F4K,325,2,72.27774384120238,54.59017649457077,2.247517447183937,56.38842747763537,1,v,0.8971607000003132,correct,v
325,2F4K,326,2,45.23098931349432,28.20169863541333,1.2806974353851084,33.45875885685378,1,b,0.8911220999998477,incorrect,v
326,2F4K,327,1,50.00662136329412,64.87465622457825,1.4144082951376071,64.57535691077423,1,c,2.0081425000003037,correct,c
327,2F4K,328,1,32.78527157049547,22.87582676368936,0.9886680715450598,29.23425297465061,2,n,1.0185734000001503,correct,n
328,2F4K,329,1,52.258818201824695,71.74417826526684,1.4822250846458258,69.30766149245305,1,c,0.8914264000000003,correct,c
329,2F4K,330,1,51.93430514193156,62.4945556178854,1.47225661351144,62.78307192241873,1,c,1.2613631999997779,correct,c
330,2F4K,331,2,50.23494287641109,59.93987062418066,1.4211396072279692,60.784466995103934,2,v,1.7832020999999258,incorrect,b
331,2F4K,332,2,51.46201842851518,61.49157048414823,1.4578684582386403,62.00717572036934,2,b,0.8486360000001696,correct,b
332,2F4K,333,1,64.56586734713416,50.55022014417243,1.9145110943051065,52.92382351687673,2,c,2.2265228000001116,incorrect,n
333,2F4K,334,1,55.42382240339367,45.06641841618686,1.5830586125848696,48.10118428543792,2,n,2.8892139999998108,correct,n
334,2F4K,335,2,51.88461410787677,39.60128769326663,1.4707361223289328,43.25252997810062,1,v,1.0185516000001371,correct,v
335,2F4K,336,1,74.70086861739432,61.32962025879354,2.363665786938645,61.88080626701576,2,n,1.6376091000001907,correct,n
336,2F4K,337,2,49.57418840573818,34.13619514993116,1.4017466793674611,38.46611389546485,1,v,1.1512494000003244,correct,v
337,2F4K,338,2,58.16004045341353,51.02086918567249,1.6757433557150352,53.33234265980451,1,v,0.6740857999998298,correct,v
338,2F4K,339,1,59.868342541293565,42.016843167184426,1.736340963604337,45.39412006957735,2,n,1.139446499999849,correct,n
339,2F4K,340,2,56.43669260158971,65.93259988640875,1.6167546704791524,65.34851399490621,2,v,1.893901900000401,incorrect,b
340,2F4K,341,1,47.11670834516011,59.72289486892638,1.3319142935168409,60.61143009415695,1,c,2.634439999999813,correct,c
341,2F4K,342,1,58.7213757550196,47.38262666570598,1.695418309645215,50.14941865189504,2,n,1.2795380000002297,correct,n
342,2F4K,343,2,55.28196796207358,67.01767338143462,1.578395818153565,66.12558690982658,2,b,1.898523700000169,correct,b
343,2F4K,344,1,56.49179817852733,44.03289618109089,1.6186083525265422,47.1843086246546,2,n,1.27252290000024,correct,n
344,2F4K,345,2,57.68985994558647,50.19621438699235,1.6594392307331514,52.615831297224005,1,v,1.6982908999998472,correct,v
345,2F4K,346,1,55.47230185433418,36.77726211804349,1.584655301565595,40.76487441721809,2,c,1.7094474000000446,incorrect,n
346,2F4K,347,2,57.85335228975598,53.61997848789929,1.665090473188723,55.565879550327566,1,v,0.9032541999999921,correct,v
347,2F4K,348,2,68.2592073332451,55.62253231124658,2.067340777274029,57.25602765430298,1,v,0.970024100000046,correct,v
348,2F4K,349,1,72.3035139011925,52.77289701496511,2.2487221546052365,54.84246195591244,2,n,0.7756881000000249,correct,n
349,2F4K,350,1,52.801794326474266,36.86013301737128,1.4990555334273208,40.83750331796223,2,c,0.9144265999998424,incorrect,n
350,2F4K,351,1,52.63289963460577,46.331453084177966,1.4937999851992392,49.2213107684466,2,n,1.5344436999998834,correct,n
351,2F4K,352,1,49.24813709265116,66.98306365698865,1.392274917544596,66.10105624228639,1,c,1.1399326999999175,correct,c
352,2F4K,353,2,60.54819725674362,71.79445564067932,1.7610622637580218,69.3396324788574,2,v,1.407195700000102,incorrect,b
353,2F4K,354,1,47.24562757646814,36.77987212754616,1.3354896797293778,40.7671614513439,2,c,1.6981877000002896,incorrect,n
354,2F4K,355,1,39.747355948306485,53.743107310661244,1.1426793945371183,55.6706359171213,1,c,2.07451809999975,correct,c
355,2F4K,356,1,65.0702854616433,74.31432425084978,1.9346982411975628,70.88812416433305,1,n,2.3854247999997824,incorrect,c
356,2F4K,357,2,36.20319263312287,22.75565540990891,1.061493678050082,29.142580563512173,1,b,1.0307020000000193,incorrect,v
357,2F4K,358,1,48.12689509160527,59.97529864332755,1.3601887388639908,60.81267379417029,1,c,2.7486932000001616,correct,c
358,2F4K,359,1,45.64469832832647,64.78790178573185,1.2917625944541096,64.51129462510828,1,c,0.7272173999999723,correct,c
359,2F4K,360,1,71.06419257325831,48.16495301717302,2.1915107826251425,50.83811783374853,2,n,1.0184110999998666,correct,n
360,2F4K,361,1,47.51300775576077,33.724380945185736,1.342935702558722,38.1108644437199,2,n,4.067211500000212,correct,n
361,2F4K,362,1,54.388044289771166,30.769595016739192,1.5493266328332942,35.59334324737313,2,n,0.8431940000000395,correct,n
362,2F4K,363,2,47.87425760180636,68.93641373202617,1.3530617937249956,67.45836958203284,2,b,3.4961410999999316,correct,b
363,2F4K,364,1,57.52886431331988,47.000736210423725,1.65389303237585,49.81256918539256,2,n,2.640451099999609,correct,n
364,2F4K,365,2,41.17576680559252,64.70850714106331,1.177129466789001,64.45258058216474,2,v,1.6375576000000365,incorrect,b
365,2F4K,366,2,41.81792368721114,60.10129647216771,1.1929534182489674,60.91288248531056,2,b,1.7533038000001397,correct,b
366,2F4K,367,1,37.2628312119907,49.42498190853679,1.0851428217384476,51.94285244388414,1,c,2.7496210999997857,correct,c
367,2F4K,368,2,56.0849907466207,45.14133659094729,1.604973773054697,48.16759661113854,1,v,0.8980604999997013,correct,v
368,2F4K,369,1,58.92960969003413,44.47194178669136,1.7027755628030836,47.5739417363538,2,n,1.267364699999689,correct,n
369,2F4K,370,1,53.64533316636432,67.6169780985643,1.5255822835692885,66.54764586985954,1,n,1.8439022000002296,incorrect,c
370,2F4K,371,2,46.32656210104908,61.36108602837996,1.3102089084544586,61.90538217847268,2,b,3.914837499999976,correct,b
371,2F4K,372,1,29.623996135776046,37.70120137616132,0.9257662568509948,41.57605036243613,1,n,2.414968200000203,incorrect,c
372,2F4K,373,2,39.37908573519936,56.5127201852362,1.1339622176159323,57.99732330905993,2,b,3.1137707999996564,correct,b
373,2F4K,374,2,40.53377502432932,33.71862146375545,1.1615194000909983,38.10590292206065,1,v,0.7575791999997818,correct,v
374,2F4K,375,2,46.97999073505257,40.29642630673221,1.3281330882148106,43.86797679321682,1,v,0.8789907000000312,correct,v
375,2F4K,376,2,67.00782616600844,55.00323830773388,2.0142388717778283,56.736549649555805,1,v,0.9699466000001848,correct,v
376,2F4K,377,2,60.34409621553532,43.05690858429615,1.753603869016817,46.31772197147347,1,v,0.6011837000000924,correct,v
377,2F4K,378,1,47.13970648345398,32.46047879519737,1.332551411007169,37.02688663707948,2,n,2.2932616999996753,correct,n
378,2F4K,379,2,48.80099521140838,70.52793834732842,1.3793894677752618,68.5218351279438,2,b,2.020071800000096,correct,b
379,2F4K,380,2,57.35391586132371,40.95003497006158,1.6478871820343348,44.44738256412894,1,v,1.4070765000001302,correct,v
380,2F4K,381,1,41.79880107341079,61.58636706998293,1.1924791422893082,62.08100710484846,1,c,3.999754600000415,correct,c
381,2F4K,382,1,51.42682193509588,40.591456545027256,1.4568018485243428,44.12943666772713,2,n,1.8499974999999722,correct,n
382,2F4K,383,1,57.430025682349424,38.20742270948111,1.6504972908139486,42.02171493145955,2,n,1.0928336000001764,correct,n
383,2F4K,384,2,49.93257340703034,55.769155604846425,1.4122320878017247,57.3785744358709,2,v,2.323336399999789,incorrect,b
384,2F4K,385,2,45.42233543249248,55.75617198755502,1.285803393100828,57.36772980753647,2,v,2.1771239999998215,incorrect,b
385,2F4K,386,1,49.8855793076277,63.4768465999674,1.410852707754105,63.53134925319592,1,n,1.7709670000003825,incorrect,c
386,2F4K,387,1,31.797949406517017,48.36871603838853,0.968576887362899,51.01716625082121,1,c,2.598018199999842,correct,c
387,2F4K,388,1,53.39528829851451,44.53687848238124,1.5176705487636224,47.6315544667142,2,n,0.9578692999998566,correct,n
388,2F4K,389,1,67.64579281769863,54.50590462346583,2.0411380837544604,56.31724829231624,2,n,1.8210755000000063,correct,n
389,2F4K,390,2,55.55496483052273,44.700453515714045,1.587381552799921,47.77665994740708,1,v,2.305639700000029,correct,v
390,2F4K,391,2,46.502409400887714,36.67036576023649,1.315008643226761,40.67122879334102,1,v,2.475593099999969,correct,v
391,2F4K,392,1,42.97929070322928,54.69761347524907,1.222113876022796,56.47909668326479,1,c,2.2080418999998983,correct,c
392,2F4K,393,1,61.08611977886916,42.68128017051964,1.780871712092671,45.98413353860487,2,n,0.9215092999997978,correct,n
393,2F4K,394,1,48.08556416132378,68.31478089041055,1.3590202234195865,67.032506322513,1,c,2.2267345000000205,correct,c
394,2F4K,395,1,46.32291278657154,55.70653959808326,1.3101094865505316,57.32626156553238,1,n,1.3037841999998818,incorrect,c
395,2F4K,396,1,66.18698562771299,46.99606858380612,1.9801497908083316,49.80844960244075,2,n,0.8425503000003118,correct,n
396,2F4K,397,2,60.30723797203539,44.99197161809308,1.7522603419361422,48.03518193748701,1,v,0.7577673999999206,correct,v
397,2F4K,398,1,65.44976864175119,73.36631239130166,1.9500255937898745,70.31810738617563,1,n,0.7879738000001453,incorrect,c
398,2F4K,399,2,33.150293438927754,51.30501460196232,0.9962010268245516,53.578425785198576,2,b,0.9751114999999118,correct,b
399,2F4K,400,2,34.75451478762357,51.299526364635085,1.0299936503802367,53.573676775964536,2,b,1.1581241999997474,correct,b
