,condition,trial,sub_task,x,y,xt,yt,cat,resp,rt,acc,correct_resp
0,4F4K,1,2,35.03233598895478,47.39533498204108,1.0359612783360015,50.09412910879224,2,b,5.0,NA,b
1,4F4K,2,1,59.45975203418635,47.7613168129356,1.7216508100437842,50.41711538725529,2,n,1.4738147999996727,correct,n
2,4F4K,3,2,40.49304112689276,34.10484171001306,1.1605359660651895,38.3514851129727,1,b,1.740802799999983,incorrect,v
3,4F4K,4,2,38.85489964962798,57.20716863608294,1.1216689877382204,58.51956080016716,2,v,1.431438800000251,incorrect,b
4,4F4K,5,2,54.59275495904024,41.30118020294978,1.555935923760572,44.6826947736428,1,b,1.2128535000001648,incorrect,v
5,4F4K,6,1,45.01447997288344,57.92067357584856,1.2749444585848957,59.105480297296985,1,n,1.498061900000721,incorrect,c
6,4F4K,7,2,42.71342263195479,33.026717932591936,1.2153759751863176,37.42207911027561,1,v,1.4556791000004523,correct,v
7,4F4K,8,1,53.67435975438582,74.07570259304892,1.5265033891553057,70.71658229587875,1,c,1.0856305000006614,correct,c
8,4F4K,9,1,56.37289006394799,72.99612602617383,1.6146110853916489,70.06068822606858,1,c,0.9397135999997772,correct,c
9,4F4K,10,1,51.743315969485934,39.31554753922152,1.46642112981608,42.92047237669652,2,c,1.152185500000087,incorrect,n
10,4F4K,11,2,58.07895792991461,42.10911374015898,1.6729203262839971,45.40113826021343,1,v,1.2870137999998406,correct,v
11,4F4K,12,1,50.9007112711032,61.22267413344625,1.4409510610191314,61.75160569149487,1,c,1.0124922000004517,correct,c
12,4F4K,13,1,63.75350894976594,76.8638359044254,1.8824418093006356,72.31666207593685,1,c,1.0307299999994939,correct,c
13,4F4K,14,1,58.91350484247577,41.44785241570135,1.702205414252892,44.81308237062123,2,c,1.3220771999995122,incorrect,n
14,4F4K,15,2,40.52094284485442,52.67843025334474,1.161209504307574,54.70327318586771,2,v,1.6073148000004949,incorrect,b
15,4F4K,16,2,49.96427390519299,62.13195707997127,1.413163328671349,62.45960617641877,2,v,1.625588500000049,incorrect,b
16,4F4K,17,2,47.37010933788172,64.43814654381383,1.3389511068284403,64.21084835380408,2,b,1.4569200999994791,correct,b
17,4F4K,18,1,29.630052378193504,48.33544365076486,0.9258828515110544,50.92293358079724,1,n,4.181685699999434,incorrect,c
18,4F4K,19,2,39.84779646252742,51.053175321534006,1.1450684908184146,53.299598611785306,2,b,2.6523440000000846,correct,b
19,4F4K,20,1,45.352679825845726,61.74318960300077,1.2839423223924729,62.15806168972999,1,n,1.3876800999996703,incorrect,c
20,4F4K,21,1,61.77097798180896,39.105879100897496,1.8064149604543795,42.734830459999,2,c,1.1885770999997476,incorrect,n
21,4F4K,22,2,47.73333092553368,61.31437338625685,1.349102466791774,61.82343431921568,2,v,1.7833208000001832,incorrect,b
22,4F4K,23,1,55.28481212629231,36.77672343748218,1.5784891715554266,40.68103132581891,2,n,2.0321343999994497,correct,n
23,4F4K,24,1,34.54711075330843,52.66797943002053,1.0255610122598748,54.69429690481141,1,c,2.7921186000003217,correct,c
24,4F4K,25,1,76.12040051957621,63.03242395181067,2.434477244583066,63.1511797829433,2,c,2.328121600000486,incorrect,n
25,4F4K,26,2,38.04053238157679,52.83813447502205,1.1028342449984558,54.84035913067911,2,v,1.2431009000001723,incorrect,b
26,4F4K,27,2,78.56460658305532,65.26627870872409,2.561409994027529,64.82322641630687,1,b,2.0194684999996753,incorrect,v
27,4F4K,28,1,53.41316200418817,61.83977130961812,1.518234731164587,62.23313843307369,1,n,1.4495097999997597,incorrect,c
28,4F4K,29,1,57.83240624577908,36.37848866862186,1.6643653830722536,40.33176721101719,2,c,1.7336771999998746,incorrect,n
29,4F4K,30,2,50.51392031425558,36.983653968130014,1.4294078431135786,40.862761852168205,1,v,2.603991599999972,correct,v
30,4F4K,31,2,46.1008580698913,33.70891254902746,1.3040740037239789,38.009377815081386,1,v,1.0988533000008829,correct,v
31,4F4K,32,2,42.28142282208127,59.12958824530021,1.2045069222126408,60.08721872376423,2,v,1.4483860999998797,incorrect,b
32,4F4K,33,1,47.18115187540349,63.17690968535163,1.3337003424062306,63.261234892869766,1,n,1.450933800000712,incorrect,c
33,4F4K,34,2,35.92925807609642,50.59734442422115,1.0554642710700493,52.9033222858247,2,v,1.3159090999997716,incorrect,b
34,4F4K,35,2,39.77568034260247,52.36858131789517,1.1433526186254432,54.43685597937064,2,b,0.792973599999641,correct,b
35,4F4K,36,1,60.19662532195951,44.97172529843314,1.748234555105356,47.94688854307834,2,c,0.8182461000005787,incorrect,n
36,4F4K,37,1,64.27372995968464,51.45012420662337,1.902916026829872,53.64380430634444,2,n,0.6983617000005324,correct,n
37,4F4K,38,2,35.12297511626289,26.912243390745285,1.037915686619873,32.31056460787659,1,b,1.4074267999994845,incorrect,v
38,4F4K,39,2,46.53749454042459,62.573796350324365,1.3159683906748572,62.8001597718025,2,v,0.79409300000043,incorrect,b
39,4F4K,40,2,39.22872550328493,51.87440319471809,1.1304222481172808,54.01075502652803,2,b,0.9946657000000414,correct,b
40,4F4K,41,1,54.81913692986986,63.26005452492613,1.5632777293070743,63.32445024588913,1,n,2.8174119000004794,incorrect,c
41,4F4K,42,1,46.921482357754975,42.7426841360186,1.3265182009829892,45.964768520631175,2,c,1.358496500000001,incorrect,n
42,4F4K,43,1,55.93076566410743,45.57944885734295,1.5998348341149082,48.48641950629396,2,n,0.8001244999995833,correct,n
43,4F4K,44,1,58.24009442317251,45.98600489167761,1.6785352477809314,48.84700418391364,2,n,0.8354819999995016,correct,n
44,4F4K,45,2,49.2937395774394,67.38670772896718,1.3935958060294085,66.34874405290243,2,b,1.8100696999999855,correct,b
45,4F4K,46,2,32.91376529061075,45.027674928924654,0.9913132773304398,47.99658324257428,2,v,2.560414900000069,incorrect,b
46,4F4K,47,1,29.304550968739385,47.43811960302602,0.9196370716439016,50.13190811328878,1,n,0.6483659000004991,incorrect,c
47,4F4K,48,1,59.71238947834028,44.55929774240631,1.730719212319184,47.58044472914239,2,n,1.273562800000036,correct,n
48,4F4K,49,2,58.03829267494052,77.93848399593267,1.6715062857318248,72.8961622969975,2,b,1.9849121000006562,correct,b
49,4F4K,50,1,52.13822889024922,45.87776431492421,1.4785129365909793,48.75103358858533,2,n,1.601148199999443,correct,n
50,4F4K,51,2,33.341247744548774,47.75543130937733,1.000164589097893,50.41192456008866,2,b,1.2994994000000588,correct,b
51,4F4K,52,1,54.56053401978127,40.23734952209692,1.554893771593256,43.737748873499385,2,n,0.8840187999994669,correct,n
52,4F4K,53,2,65.89463552158954,52.11248617596211,1.968148482511289,54.21621945807006,1,v,1.2297257000000172,correct,v
53,4F4K,54,1,41.76239790210395,63.3209444048492,1.191576797820911,63.37069096825725,1,c,2.597877199999857,correct,c
54,4F4K,55,1,54.40264147383217,39.28085046037179,1.54979698668084,42.88974427778162,2,n,0.9770574000003762,correct,n
55,4F4K,56,1,52.54761820840184,37.86521183116897,1.4911532615732273,41.63869866226084,2,n,0.9523687999999311,correct,n
56,4F4K,57,2,61.26756269899776,43.13074140322257,1.787603631871672,46.31001298810844,1,v,1.1291965999998865,correct,v
57,4F4K,58,1,60.08014482177159,74.3896506546422,1.7440052035432272,70.90357628593213,1,n,0.9637370000000374,incorrect,c
58,4F4K,59,1,57.364951500503366,47.87422556577326,1.64826538202658,50.51667608704177,2,n,0.7698237000004156,correct,n
59,4F4K,60,1,45.24439720782631,62.57595886449456,1.2810545555539934,62.80182084737349,1,c,1.1996828999999707,correct,c
60,4F4K,61,2,53.50770613583036,49.53093321271108,1.5212225013864265,51.97233589365649,1,v,1.000417600000219,correct,v
61,4F4K,62,2,42.58645953564777,55.090125467161535,1.2121714646871593,56.75506454510409,2,v,0.7333532000002378,incorrect,b
62,4F4K,63,1,56.61694579840303,69.21450515759715,1.6228260585672882,67.6119197466221,1,n,0.7273011999996015,incorrect,c
63,4F4K,64,2,33.89668281174022,40.53548121983057,1.0117834068215903,44.00240499378052,2,v,0.9867636999997558,incorrect,b
64,4F4K,65,2,45.78553905866082,65.5211007553792,1.2955513257313285,65.00982740407791,2,v,1.5274638000000778,incorrect,b
65,4F4K,66,2,39.53380282727038,54.96252299649956,1.137616334198151,56.64755191052405,2,b,0.6436719000002995,correct,b
66,4F4K,67,2,56.46348519852934,62.38677574431567,1.61765567430887,62.65629378628787,2,b,0.8734367999995811,correct,b
67,4F4K,68,2,73.37431254905337,61.48333506402725,2.2993552453038566,61.95553412280726,1,v,1.4737647000001743,correct,v
68,4F4K,69,2,41.10358584182597,47.70300223152511,1.1753639667360336,50.36567899455864,2,b,0.8729911000000357,correct,b
69,4F4K,70,2,53.96416980845893,45.40095894089479,1.5357305314174234,48.32801848605981,1,v,2.10499130000062,correct,v
70,4F4K,71,1,34.60261961157228,47.47071994743543,1.0267454744019573,50.16069075080449,1,c,1.079301900000246,correct,c
71,4F4K,72,1,55.71016289360216,65.58030238629047,1.5925127099890048,65.05305435349617,1,c,1.2188535000004777,correct,c
72,4F4K,73,2,53.181219944623805,38.98283402662857,1.5109297643841004,42.62593439097488,1,v,1.3288628999998764,correct,v
73,4F4K,74,2,62.85195568562591,74.45870920052101,1.84747990279174,70.94448030146155,2,b,1.9036828000007517,correct,b
74,4F4K,75,2,49.5187635368035,67.37486926554475,1.400132058049017,66.34040259408796,2,v,0.9509015000003274,incorrect,b
75,4F4K,76,2,50.49074146235554,64.89057478190644,1.428719047871783,64.54652439833541,2,b,0.8547616000005291,correct,b
76,4F4K,77,1,63.36588304125123,44.63099670816209,1.867329461388599,47.6441642288064,2,n,1.1590013000004546,correct,n
77,4F4K,78,2,43.97849729987176,57.37975925951684,1.2477725000458044,58.66171584466812,2,v,0.860822300000109,incorrect,b
78,4F4K,79,1,46.18455209654448,63.35396147679781,1.3063455489460816,63.39574547378279,1,n,1.983560700000453,incorrect,c
79,4F4K,80,1,67.16197708414843,44.83297107521979,2.0207058299380942,47.82362833241917,2,n,0.9943340999998327,correct,n
80,4F4K,81,1,63.70922112647557,48.97801873720681,1.8807089925109857,51.48767906788499,2,n,1.3486413000000539,correct,n
81,4F4K,82,1,31.674064440182995,48.44602456218969,0.9660849326347962,51.02022865821488,1,c,1.2613483000004635,correct,c
82,4F4K,83,1,53.04720335719757,35.76028690084252,1.5067249721380764,39.79090113006804,2,n,0.9275017999998454,correct,n
83,4F4K,84,1,25.702306174687862,38.61021640646328,0.8532670160238146,42.29639875478207,1,c,1.6436937999997099,correct,c
84,4F4K,85,2,49.48775791727933,66.94491060972615,1.399229622630772,66.03608913291961,2,v,1.0736156000002666,incorrect,b
85,4F4K,86,1,52.73012542376329,58.25153153302041,1.4968231354738732,59.37556906019592,1,n,0.7238547999995717,incorrect,c
86,4F4K,87,1,26.71115415497621,45.73146095450209,0.8713562746803873,48.62127897051805,1,c,2.057701600000655,correct,c
87,4F4K,88,1,48.18079183123994,34.517124338424054,1.361714026590922,38.70864986281666,2,n,1.528395499999533,correct,n
88,4F4K,89,2,62.203213211707975,46.51366109149989,1.822724345921363,49.31449395088242,1,b,1.4191468999997596,incorrect,v
89,4F4K,90,1,78.948406263393,67.48488683032716,2.5819341168522336,66.41784379207964,2,c,0.7197023999997327,incorrect,n
90,4F4K,91,1,51.143407818416975,31.940124916105376,1.4482415371068482,36.49270710856592,2,n,0.6314504000001762,correct,n
91,4F4K,92,2,50.07503623268013,72.726284040421,1.4164219311663546,69.89366650839675,2,b,1.3330391999998028,correct,b
92,4F4K,93,1,47.933943842825705,58.3850849291816,1.354742176082815,59.4842970079201,1,c,1.8635917000001427,correct,c
93,4F4K,94,1,43.07319746087443,33.09147657430918,1.2245026735286797,37.47770798608924,2,n,1.0734056000001146,correct,n
94,4F4K,95,1,51.09772671984079,72.0093494771628,1.4468664886584155,69.44402118794396,1,n,2.561419300000125,incorrect,c
95,4F4K,96,2,42.420921464862886,52.14379697741726,1.2080060197582507,54.24321590553021,2,b,1.4702227999996467,correct,b
96,4F4K,97,2,60.449137058068665,44.51573888997125,1.7574383871895374,47.541730832851336,1,v,1.8925585999995747,correct,v
97,4F4K,98,2,30.41420443080697,51.117182416331474,0.941104043033648,53.3551576415701,2,b,1.7397753999994165,correct,b
98,4F4K,99,2,53.64369155805629,45.03782345489114,1.5255302067463592,48.005596741832925,1,v,1.9835360000006403,correct,v
99,4F4K,100,1,38.53245836830985,56.80438251493403,1.114173378934195,58.18677135928901,1,c,1.3220814999995127,correct,c
100,4F4K,101,2,67.93954001652106,52.470465803393125,2.05364412657772,54.52452412183989,1,b,1.4387400000005073,incorrect,v
101,4F4K,102,1,40.889675133835766,52.81721234910966,1.1701473843791148,54.82240925632305,1,c,1.5702331000002232,correct,c
102,4F4K,103,1,64.15751749411612,48.131073831030434,1.898323048366179,50.74300566789105,2,n,1.2310311000001093,correct,n
103,4F4K,104,1,43.5618100269224,63.15640071352811,1.2370075457690066,63.24562875807894,1,c,2.526395099999718,correct,c
104,4F4K,105,2,35.88470508194257,46.57255853960617,1.0544868853563427,49.36663675075772,2,b,1.1652951000005487,correct,b
105,4F4K,106,1,60.11789563582472,51.15098760676846,1.7453747957822374,53.38449231972353,2,c,1.5115501999998742,incorrect,n
106,4F4K,107,2,71.52419254185335,58.12039243531432,2.2125741058453587,59.26864059282988,1,v,1.8197245000001203,correct,v
107,4F4K,108,1,31.7449944827574,38.70967680832512,0.9675109097818022,42.38432391764721,1,n,0.8790458000003127,incorrect,c
108,4F4K,109,1,46.30262282785595,36.52360410040311,1.3095568445914287,40.458963931117005,2,c,1.1364168999998583,incorrect,n
109,4F4K,110,2,57.19051849430103,51.1621284222712,1.6422975703031342,53.39415851497391,1,v,1.7291528999994625,correct,v
110,4F4K,111,1,46.7781154331994,62.62235832838316,1.3225694323089932,62.837447812627424,1,n,1.4009720999993078,incorrect,c
111,4F4K,112,1,65.7019670762313,47.457366349672505,1.9602790126892384,50.14890132285724,2,c,1.6700944999993226,incorrect,n
112,4F4K,113,1,47.71594175981848,36.75689396197077,1.3486147228532823,40.66362534146848,2,n,2.6404016000005868,correct,n
113,4F4K,114,2,49.97080052128847,62.28251267294411,1.4133551322091356,62.57590865197658,2,b,1.6619426999995994,correct,b
114,4F4K,115,2,57.09048365775227,46.38268269547395,1.6388848695445215,49.1985078030409,1,b,2.3186787000004188,incorrect,v
115,4F4K,116,2,47.99364646726019,39.30724876275236,1.3564251074376388,42.91312264267903,1,v,0.6848146000002089,correct,v
116,4F4K,117,1,41.90513640041347,48.32761652864573,1.1951188468243992,50.91604521880844,1,c,2.458289100000002,correct,c
117,4F4K,118,1,47.7411737623609,35.40433633702857,1.349322506087392,39.480255334819375,2,n,2.1245521999999255,correct,n
118,4F4K,119,2,48.59640016981768,36.255758247947256,1.3735334118638702,40.22425942383032,1,b,3.429175100000066,incorrect,v
119,4F4K,120,1,61.7607010315076,44.66446932603951,1.8060289650898456,47.673909645017446,2,c,1.091461199999685,incorrect,n
120,4F4K,121,2,26.950229121924508,37.69915143576226,0.8756989420089795,41.492331016808194,2,v,2.5309549000003244,incorrect,b
121,4F4K,122,1,64.6583733341152,45.21927058454694,1.91819740738636,48.16672554651878,2,n,1.188531700000567,correct,n
122,4F4K,123,1,52.402746839545365,37.5196302723912,1.4866678988745134,41.33420149136661,2,n,0.8243975000004866,correct,n
123,4F4K,124,2,47.22202688220797,33.95518166955403,1.3348344320863816,38.22206488843442,1,b,1.527304500000355,incorrect,v
124,4F4K,125,2,70.23643933094444,57.19096085830464,2.1541118763885523,58.50619743788408,1,v,0.5512724000000162,correct,v
125,4F4K,126,1,45.377781844183794,58.404432504451705,1.2846126918584242,59.50003394594022,1,c,2.3962662000003547,correct,c
126,4F4K,127,1,44.28490935509583,63.73443323070557,1.2557482640739486,63.68348133981612,1,c,0.7322092000003977,correct,c
127,4F4K,128,1,59.98724081155236,38.87868817879543,1.7406392391531225,42.53379368709571,2,n,0.7467596999995294,correct,n
128,4F4K,129,1,59.42584676835939,71.26864163617245,1.720437404842578,68.97059742763912,1,n,0.8678460999999515,incorrect,c
129,4F4K,130,2,34.04405183907592,51.69101645452104,1.0148887249094778,53.85227120796791,2,v,1.1049356999992597,incorrect,b
130,4F4K,131,2,52.11115164187802,36.75266133753143,1.4776806859984892,40.65991021258317,1,b,0.5452587999998286,incorrect,v
131,4F4K,132,2,66.09357223574445,47.723873796873136,1.9763071289736875,50.38408998488957,1,v,1.0918230999996013,correct,v
132,4F4K,133,2,52.129902126719166,63.979233463621895,1.47825695397235,63.867652482144926,2,v,1.121823499999664,incorrect,b
133,4F4K,134,1,51.9699722328734,65.17947863747659,1.4733489563900124,64.75946578513174,1,n,1.6997410999993008,incorrect,c
134,4F4K,135,2,63.85444249665223,52.34766116610459,1.886396929174449,54.41884712034975,1,v,3.5156878000007055,correct,v
135,4F4K,136,2,61.30858561547282,49.16588902855785,1.7891291933959887,51.65249627698592,1,v,1.4798424999999042,correct,v
136,4F4K,137,1,58.75326838074864,42.05002343655098,1.6965430645056905,45.34857828798391,2,n,1.255320600000232,correct,n
137,4F4K,138,1,46.59023883511544,31.647320610308768,1.3174125192074009,36.24363032690862,2,c,1.5964532999996663,incorrect,n
138,4F4K,139,2,65.53004071770685,49.09697037162185,1.953283315910419,51.59205076770355,1,v,1.7530839999999444,correct,v
139,4F4K,140,1,48.80459440980308,42.17008569944668,1.3794927095971774,45.45537369734463,2,c,1.2311886999996204,incorrect,n
140,4F4K,141,2,56.06360888867624,47.6462172188478,1.6042603230412362,50.31558160616649,1,b,1.0903195000000778,incorrect,v
141,4F4K,142,1,40.17792693797239,56.07213855846034,1.15295628078352,57.57818036629562,1,n,2.001774700000169,incorrect,c
142,4F4K,143,2,44.772317650642165,38.05759416045005,1.2685404553720343,41.80837689318235,1,v,1.309945100000732,correct,v
143,4F4K,144,2,64.03224314254841,52.34539727251907,1.89338433919101,54.4168981167724,1,v,1.250616400000581,correct,v
144,4F4K,145,1,41.43088715939766,59.02854149971885,1.1833908249680467,60.00571009669391,1,c,2.2581136000007973,correct,c
145,4F4K,146,1,48.54257655979634,35.90381202857608,1.3719969713442193,39.91632265894709,2,c,2.2142742000005455,incorrect,n
146,4F4K,147,1,54.55592549688577,66.46065020567359,1.554744770868891,65.69020117243588,1,n,2.2641285999998217,incorrect,c
147,4F4K,148,2,49.657578406642784,35.27235207104413,1.4041794817253617,39.36522141109846,1,b,3.320096100000228,incorrect,v
148,4F4K,149,2,33.48033780669506,48.38627393063796,1.0030615490851371,50.96766219475058,2,v,4.195035900000221,incorrect,b
149,4F4K,150,2,65.82042648684724,45.89001024595903,1.9651137087953083,48.76189249568743,1,b,2.165887200000725,incorrect,v
150,4F4K,151,1,37.897741783038,50.69919998311166,1.0995645144201105,52.991961433138805,1,c,3.7570418000004793,correct,c
151,4F4K,152,2,65.53051452659656,60.18828092202678,1.953302560883172,60.93491203472454,1,b,4.152740200000153,incorrect,v
152,4F4K,153,1,48.431696492370456,60.55792148997787,1.3688372209797903,61.228100409449205,1,c,1.4980837000002794,correct,c
153,4F4K,154,1,40.14193731802206,34.114631330859055,1.152093750570566,38.35995516724708,2,c,1.1278281000004426,incorrect,n
154,4F4K,155,1,35.87677229263056,52.10303235103728,1.0543129539538525,54.20806715344642,1,c,2.6221341000000393,correct,c
155,4F4K,156,1,56.00898678638743,65.09781179898343,1.60243918297388,64.69938416086461,1,n,4.909260299999914,incorrect,c
156,4F4K,157,2,35.87528267148075,45.94815841140133,1.0542802962713973,48.813450556440216,2,v,4.534622899999704,incorrect,b
157,4F4K,158,1,73.90837323034182,54.65038079594442,2.3250330062417435,56.38403299286505,2,c,1.796652200000608,incorrect,n
158,4F4K,159,1,53.270763148733714,70.50889326626184,1.5137457343183518,68.4758110767314,1,n,0.7091275000002497,incorrect,c
159,4F4K,160,1,24.582390413730487,43.71600476203381,0.8336257299813525,46.83064443111451,1,c,0.9289664999996603,correct,c
160,4F4K,161,1,31.93142954778364,41.51282277808394,0.9712690440771172,44.87084560116919,1,c,1.1276364000004833,correct,c
161,4F4K,162,1,53.262982025696985,35.208320611909826,1.5135008241618555,39.309443593651686,2,n,1.6133891999998013,correct,n
162,4F4K,163,2,29.931055576218903,42.9858261390151,0.9316962988113874,46.18108673007142,2,v,1.1404084999994666,incorrect,b
163,4F4K,164,2,56.8185316045514,40.4800881278126,1.629642994413345,43.953221149577466,1,b,0.4737960000002204,incorrect,v
164,4F4K,165,1,37.84920421325347,20.439992176331685,1.0984552724107757,27.304114121589585,2,c,0.7444154999993771,incorrect,n
165,4F4K,166,2,40.47514676954559,49.04182527920536,1.1601042078326127,51.54367178124855,2,v,2.9729222999994818,incorrect,b
166,4F4K,167,1,38.90200779835801,50.52976070019938,1.122768297786535,52.84447968168866,1,n,0.7212436999998317,incorrect,c
167,4F4K,168,2,47.4197785661504,33.56307174310458,1.340334746943636,37.88358996482885,1,b,0.9653367000000799,incorrect,v
168,4F4K,169,1,51.11203239145841,66.25301848557301,1.4472969637464872,65.54089176801597,1,c,0.6059132999998837,correct,c
169,4F4K,170,1,49.995271359491184,27.665594316715985,1.414074510558653,32.92309246558439,2,c,0.6315569999997024,incorrect,n
170,4F4K,171,1,33.022155498747466,45.89195881722652,0.993550129131139,48.76362033694105,1,c,1.321952200000851,correct,c
171,4F4K,172,2,47.93989157736338,68.5818907866028,1.3549097405002286,67.18035002936851,2,v,2.596560699999827,incorrect,b
172,4F4K,173,2,55.24734384075382,44.93265641820434,1.577259800542409,47.91218486819957,1,b,1.1152647999997498,incorrect,v
173,4F4K,174,2,27.426624304219555,36.36050323205217,0.8844170414036122,40.316008634370775,2,v,0.7336967999999615,incorrect,b
174,4F4K,175,2,29.95437987723493,44.66700300969231,0.9321482952861329,47.67616114835718,2,b,0.5225139000003765,correct,b
175,4F4K,176,2,48.67097822439166,65.82245520439992,1.3756651496891463,65.22937100345685,2,b,0.8547495000002527,correct,b
176,4F4K,177,1,43.76882956417337,30.712257913484905,1.2423441564338191,35.45234969244744,2,n,2.9559735000002547,correct,n
177,4F4K,178,1,41.19374836955704,53.79297508786934,1.1775696967606848,55.65651544570125,1,n,1.916787000000113,incorrect,c
178,4F4K,179,1,43.09351306932172,59.125218567483216,1.2250200754351823,60.08369607757128,1,c,1.5891218999995544,correct,c
179,4F4K,180,2,33.91001809602275,49.98206939136247,1.0120640126989169,52.36681791184935,2,b,2.0770665999998528,correct,b
180,4F4K,181,2,27.95951569516594,36.12446897714435,0.8942719134183629,40.10932475630484,2,v,2.32376480000039,incorrect,b
181,4F4K,182,2,54.68298348988429,63.58026658437269,1.5588579882456193,63.5671091310783,2,b,1.1999434999997902,correct,b
182,4F4K,183,2,68.97932899457001,51.31368443037833,2.0985311376347497,53.52558870421323,1,b,3.7570381000005,incorrect,v
183,4F4K,184,2,31.173178374950208,45.6735337201911,0.9560747682051924,48.56989299779278,2,v,1.0004251999998814,incorrect,b
184,4F4K,185,1,49.98297786405622,41.70986180458959,1.4137130683357546,45.04604876316849,2,c,0.7322804000004908,incorrect,n
185,4F4K,186,2,56.15950453370759,43.71088285020477,1.607462560452341,46.82608877583719,1,b,1.1525822000003245,incorrect,v
186,4F4K,187,1,34.35581570134123,41.86616777825644,1.0214895683330183,45.18505352311332,1,n,1.0611963999999716,incorrect,c
187,4F4K,188,1,44.24441740597143,40.35946275551446,1.2546913610068573,43.84613355485549,2,c,0.7333879999996498,incorrect,n
188,4F4K,189,1,59.95059934881284,39.73923830331352,1.739313485459742,43.29591012644821,2,n,0.8777110000000903,correct,n
189,4F4K,190,2,56.852833386090246,42.8526167576922,1.6308058097834195,46.062573224417726,1,v,1.8150475000002189,correct,v
190,4F4K,191,1,53.59903703983488,35.26692506494871,1.5241143108740192,39.36049317323913,2,n,1.9098536000001332,correct,n
191,4F4K,192,1,31.13192983754066,39.95841762114028,0.9552550569766112,43.49027185278543,1,c,2.15366559999984,correct,c
192,4F4K,193,2,65.89348590361996,77.46584606072153,1.9681014332371105,72.6438936269129,2,b,3.107692699999461,correct,b
193,4F4K,194,2,55.40510687740742,36.44810807501101,1.5824426402012834,40.39277931500345,1,b,0.9513921000007031,incorrect,v
194,4F4K,195,2,60.87174191245992,39.80716500537093,1.7729504999845285,43.35613554140654,1,v,1.4873123999996096,correct,v
195,4F4K,196,2,46.45097727587959,55.39770463276047,1.3136029920097378,57.01370044829278,2,v,5.0,correct,b
196,4F4K,197,2,24.72814197944856,46.97654777089264,0.8361561310098109,49.72406464899133,2,v,1.0917404000001625,incorrect,b
197,4F4K,198,2,54.15484488289557,49.85513793900872,1.5418317548146347,52.25591775696592,1,b,0.9642261999997572,incorrect,v
198,4F4K,199,2,69.56663334248026,60.553240808140025,2.12431690093002,61.22439705486342,1,v,1.0860036000003674,correct,v
199,4F4K,200,2,74.73777910810387,51.5483899719485,2.3654806726519557,53.72888180501304,1,v,0.8972118000001501,correct,v
200,4F4K,201,1,53.49049062280681,40.12370733047716,1.5206780216866855,43.6369054041748,2,c,1.03649360000054,incorrect,n
201,4F4K,202,2,54.548050794357806,64.80634006119396,1.5544902025115153,64.48423005632853,2,b,1.4737452999997913,correct,b
202,4F4K,203,2,45.81681886417661,56.20830030808492,1.2963942850830017,57.69169198886378,2,b,0.6133448000000499,correct,b
203,4F4K,204,2,57.86986135787537,39.352008926960025,1.6656621909168852,42.95276591535539,1,v,1.730037799999991,correct,v
204,4F4K,205,1,52.79773606485341,40.958036734102215,1.4989290347006945,44.37773719555107,2,n,1.5891044999998485,correct,n
205,4F4K,206,2,62.87285579317111,41.88246510062673,1.848283002255993,45.19954786408656,1,b,1.6012253999997483,incorrect,v
206,4F4K,207,1,52.524202411419246,67.03404344382993,1.490427369232364,66.09939195185262,1,n,1.3102971999996953,incorrect,c
207,4F4K,208,1,26.828207343873224,42.87396425646996,0.8734797850370571,46.081565668486654,1,c,2.347947799999929,correct,c
208,4F4K,209,1,68.82596138505109,45.77126126789559,2.0918491842418026,48.65658136775463,2,n,0.9943391999995583,correct,n
209,4F4K,210,1,52.84153280619024,67.18397037340652,1.500294772606119,66.20561579938399,1,n,0.9523663999998462,incorrect,c
210,4F4K,211,1,64.75610195953696,46.02535418921092,1.9220995502829863,48.88188711438283,2,n,1.3780280999999377,correct,n
211,4F4K,212,2,60.97286996207264,44.37110893632028,1.7766827581448772,47.41317353646607,1,b,1.1400059999996301,incorrect,v
212,4F4K,213,2,57.481299444981225,53.05943705603903,1.6522580025732103,55.030052174479,1,v,0.6614003999993656,correct,v
213,4F4K,214,2,54.6159263902991,44.858284069298,1.5566858109209265,47.84611662090844,1,v,0.6969634999995833,correct,v
214,4F4K,215,1,59.466560679545694,43.25276639538495,1.721894581720899,46.41857175160381,2,n,0.765041000000565,correct,n
215,4F4K,216,1,67.03501545186106,47.01514300569395,2.015378014833528,49.75818972319129,2,n,0.6605227999998533,correct,n
216,4F4K,217,1,59.79447976288263,78.94664235259786,1.7336761067465327,73.4204808526708,1,n,3.810626299999967,incorrect,c
217,4F4K,218,2,63.21171138001178,70.79417093739596,1.861352557824588,68.6626784827811,2,b,0.9518229999994219,correct,b
218,4F4K,219,2,34.759920079791286,50.22699197091439,1.0301094280606258,52.580598754685184,2,v,0.7698810000001686,incorrect,b
219,4F4K,220,2,63.24742165352807,43.6791192966371,1.862735263644146,46.797836545909135,1,b,0.8014861999999994,incorrect,v
220,4F4K,221,1,37.444706014750686,55.52573577900534,1.0892545808017675,57.12113987898515,1,n,1.000410099999499,incorrect,c
221,4F4K,222,1,33.6821778178559,44.67444073883878,1.0072803912434556,47.68277048278627,1,c,0.6011892000005901,correct,c
222,4F4K,223,1,64.28344029468789,45.898024790668686,1.903300303837408,48.76899912239199,2,n,1.4580845999998928,correct,n
223,4F4K,224,2,56.716881053968606,39.43742515470652,1.6262019521401418,43.028429995806135,1,v,1.1392530000002807,correct,v
224,4F4K,225,2,41.61747041113805,47.98856755896441,1.1879911694210623,50.61745881289478,2,v,1.813693200000671,incorrect,b
225,4F4K,226,1,50.007365395539736,33.49459211916849,1.4144301786297773,37.82456942481599,2,n,0.5648365999995804,correct,n
226,4F4K,227,1,62.670367796920544,47.532160554271705,1.840516947210288,50.21492770915755,2,n,0.9542482000006203,correct,n
227,4F4K,228,1,70.74514666897359,60.52159973706917,2.177019605594297,61.19935640077517,2,n,0.5694938999995429,correct,n
228,4F4K,229,2,60.66504809808934,46.78047006719369,1.7653465749809405,49.5506369347359,1,v,1.203028500000073,correct,v
229,4F4K,230,2,54.95856159809278,43.05937413477028,1.5678166458098006,46.24652025924815,1,v,0.6969681999999011,correct,v
230,4F4K,231,1,46.82042181157414,38.70962481545142,1.3237334567312478,42.38427794788236,2,n,2.318727300000319,correct,n
231,4F4K,232,2,37.87530117479823,19.71564464234605,1.099051534069584,26.77607015584751,1,v,2.258024800000385,correct,v
232,4F4K,233,2,57.94469652234794,75.94438766954713,1.6682562348032317,71.80423428985007,2,v,3.0652937000004385,incorrect,b
233,4F4K,234,2,49.22372643482389,59.51749806052448,1.3915683706732722,60.3991631890206,2,v,1.4009373000008054,incorrect,b
234,4F4K,235,2,68.09991023460417,47.43883726841922,2.0605040610606715,50.13254176920495,1,b,0.6365486000004239,incorrect,v
235,4F4K,236,1,43.353234179695015,56.22680306784002,1.231653998919834,57.70710492505229,1,c,1.9835558000004312,correct,c
236,4F4K,237,2,48.13704965649089,71.48802912930834,1.3604759842510326,69.1117490304717,2,v,1.9592980999996144,incorrect,b
237,4F4K,238,2,41.951618341750745,57.13551707406182,1.1962745650789373,58.460466108423546,2,b,1.2737503999996989,correct,b
238,4F4K,239,1,57.40315090760544,50.31331660502024,1.649575175959164,52.655880500427095,2,n,0.7346893000003547,correct,n
239,4F4K,240,1,50.962299697139855,65.02157831018066,1.442797662507923,64.6432198193255,1,n,0.6971556999997119,incorrect,c
240,4F4K,241,2,44.590972624978505,54.98415965423599,1.2637658433418006,56.665790848755016,2,v,1.7769988000000012,incorrect,b
241,4F4K,242,2,53.95192063264014,40.29211065949283,1.5353394084734613,43.78635046814475,1,b,0.4920196000002761,incorrect,v
242,4F4K,243,1,66.09919722723814,50.09976699336495,1.976538307995968,52.46958497563997,2,n,0.8001403000007485,correct,n
243,4F4K,244,2,45.19715897887339,58.05896035677233,1.279796804577085,59.21849376210948,2,v,1.5041513999995004,incorrect,b
244,4F4K,245,1,51.86806266697885,47.7041734564494,1.4702300150919958,50.366712178197815,2,n,1.870927799999663,correct,n
245,4F4K,246,2,59.14035929041936,40.82521506480262,1.71025420681788,44.259733429904976,1,v,1.4738052000002426,correct,v
246,4F4K,247,1,55.48902330861686,61.05414739637809,1.5852064024101518,61.61935137926413,1,n,0.9569030000002385,incorrect,c
247,4F4K,248,1,49.75354073417214,65.96926074599278,1.406984292045307,65.33587394803061,1,c,4.315409800000452,correct,c
248,4F4K,249,2,44.71799722375509,66.47655134745966,1.267108369850774,65.70161103029658,2,v,2.889223999999558,incorrect,b
249,4F4K,250,1,42.99138837330696,54.62008251367644,1.2224213545236398,56.35841549712784,1,n,0.6547874999996566,incorrect,c
250,4F4K,251,1,39.10562812599545,51.57508074412031,1.1275323635842105,53.751981207062656,1,c,1.5102032000004328,correct,c
251,4F4K,252,1,49.78461662871034,65.20114473194127,1.407893786243064,64.77539044265674,1,n,1.5211128999999346,incorrect,c
252,4F4K,253,2,49.75535298315381,62.08084346275791,1.4070373147664592,62.42006090070343,2,b,4.606732199999897,correct,b
253,4F4K,254,1,31.90645192383977,45.57678386885908,0.9707647026936526,48.48405486081947,1,n,0.982423800000106,incorrect,c
254,4F4K,255,2,58.39444159787536,38.338589123706285,1.683931260923944,42.05641347198193,1,v,0.9518519000002925,correct,v
255,4F4K,256,1,39.59202290097381,56.392900933293866,1.1389944261682174,57.84533676269535,1,c,0.8474317000000156,correct,c
256,4F4K,257,1,53.17139590300268,64.88076731158824,1.5106211353164063,64.53927625800814,1,c,1.2188817000005656,correct,c
257,4F4K,258,2,42.83472417982978,52.1746612154306,1.2184455028512708,54.26982166165589,2,v,1.0634847999999693,incorrect,b
258,4F4K,259,1,43.74559328959867,58.91575666100686,1.2417440196879803,59.9146123122838,1,n,0.9152872999993633,incorrect,c
259,4F4K,260,1,33.37948701648187,55.47124169056509,1.0009601995571171,57.075426152600585,1,c,2.2519212999995943,correct,c
260,4F4K,261,1,33.61314466698084,46.30453627805618,1.005835473536466,49.12928771217899,1,c,0.8793053999997937,correct,c
261,4F4K,262,2,45.12859501633208,61.36224460565827,1.277973437596578,61.86089446087527,2,b,1.1642794999997932,correct,b
262,4F4K,263,2,37.96866189793612,25.553719365298555,1.1011872850449076,31.22033039340746,1,b,1.1995986000001722,incorrect,v
263,4F4K,264,2,31.958496051528638,46.5851704768014,0.9718158593631292,49.37780121813624,2,v,0.6255195000003368,incorrect,b
264,4F4K,265,2,38.99984315047254,27.112510713960283,1.1250548152105293,32.472858959678305,1,b,0.37540350000017497,incorrect,v
265,4F4K,266,2,24.23204533946088,44.459296236993545,0.8275746507836008,47.49156317146296,2,v,0.4616316999999981,incorrect,b
266,4F4K,267,1,63.4963681170297,50.31553048993186,1.8724030802498437,52.65781071444541,2,c,0.5830137999992075,incorrect,n
267,4F4K,268,1,32.66591199724347,49.893249697712754,0.9862172277542308,52.289223667460085,1,n,0.817931900000076,incorrect,c
268,4F4K,269,2,37.62175222082923,45.86126362614697,1.0932721412883537,48.73640137495151,2,v,0.8634057999997822,incorrect,b
269,4F4K,270,2,56.8897598894868,67.48512161632807,1.6320585294688452,66.41800887071092,2,b,1.0004397000002427,correct,b
270,4F4K,271,2,41.21273601852771,33.788609741257964,1.178034736719733,38.07816910084967,1,v,1.3827477000004365,correct,v
271,4F4K,272,1,47.93662048413285,56.482416459764565,1.3548175820352029,57.91973755870247,1,n,1.394919899999877,incorrect,c
272,4F4K,273,1,46.347585173518446,62.18676367400339,1.3107818078753173,62.50197453989654,1,c,0.8318682999997691,correct,c
273,4F4K,274,1,74.92543909768763,57.72396874177639,2.374729474020774,58.9444167763895,2,n,1.8075955999993312,correct,n
274,4F4K,275,1,54.32525022495149,38.82848060402569,1.5473048952405577,42.48938350911129,2,c,3.5131406999998944,incorrect,n
275,4F4K,276,1,61.73800374308972,71.60227410131301,1.805176762364172,69.1849441730434,1,n,0.6666012999994564,incorrect,c
276,4F4K,277,2,40.80946477507097,51.96132813257414,1.1681972901132578,54.08580891854349,2,b,2.5675736999992296,correct,b
277,4F4K,278,1,43.113338092954265,31.08760259106458,1.2255251937984912,35.769203100481974,2,c,3.9634303000002546,incorrect,n
278,4F4K,279,2,36.46434976744079,61.32222680747687,1.0672739170755086,61.82958154716495,2,b,1.2371021999997538,correct,b
279,4F4K,280,2,46.13161865447652,33.32582622705658,1.3049084193783231,37.67923460918207,1,v,2.476902300000802,correct,v
280,4F4K,281,2,63.56198524979227,52.49204911657088,1.8749596617181783,54.54308772263076,1,b,4.10229419999996,incorrect,v
281,4F4K,282,1,40.59872107224843,63.65819839785495,1.163089109299304,63.62597299309744,1,c,2.0988766999998916,correct,c
282,4F4K,283,2,53.71507576190765,33.93407288604971,1.5277963743100662,38.20382098226595,1,v,2.8952304000004006,correct,v
283,4F4K,284,2,65.28077013838102,56.59601430233542,1.943184792032699,58.01405588532996,1,b,4.435400200000004,incorrect,v
284,4F4K,285,2,49.445601812764565,42.20337129371913,1.3980035792433934,45.48498241595872,1,v,1.0004308999996283,correct,v
285,4F4K,286,2,43.64817262599699,30.56273844961219,1.239231033784033,35.32642864013003,1,v,1.50550850000036,correct,v
286,4F4K,287,1,66.13671488501802,54.0552058635161,1.9780809213601895,55.87957820852216,2,n,1.3273917000005895,correct,n
287,4F4K,288,2,65.17078843531891,49.72095395609556,1.9387457962046797,52.13860278495935,1,v,0.921508399999766,correct,v
288,4F4K,289,2,57.2016270274495,42.45693889940696,1.6426769773932517,45.71055338353402,1,v,0.5454984999996668,correct,v
289,4F4K,290,1,45.44490361151719,61.34704190951802,1.2864069520739496,61.84900086932924,1,c,0.82442489999994,correct,c
290,4F4K,291,1,46.11149158020044,25.048338141646173,1.3043623893603482,30.819696648148884,2,c,1.1399332000000868,incorrect,n
291,4F4K,292,2,48.45713876057075,28.4458457313228,1.3695616056257431,33.563142257982875,1,b,0.6246761999991577,incorrect,v
292,4F4K,293,1,50.749192126600654,69.78314088371621,1.4364181263586893,67.99463804118365,1,n,2.342962100000477,incorrect,c
293,4F4K,294,1,63.916688437787286,48.225834181350166,1.888840201821383,50.82645089082612,2,c,1.4789120999994338,incorrect,n
294,4F4K,295,1,49.91977681499283,58.69414180080794,1.4118563461550526,59.73524325451603,1,n,0.8790449999996781,incorrect,c
295,4F4K,296,2,46.17292403260323,61.39184935758187,1.3060297143560475,61.88404776624587,2,v,0.9275792999997066,incorrect,b
296,4F4K,297,1,50.96909957812662,32.485066652851955,1.443001687872384,36.957830768349176,2,n,0.909619300000486,correct,n
297,4F4K,298,2,56.426031822793554,73.83480809106837,1.616396300488981,70.57194971623866,2,v,0.941049899999598,incorrect,b
298,4F4K,299,1,58.226240160914,39.56810900307016,1.6780517460546505,43.144224267914176,2,c,0.6241022000003795,incorrect,n
299,4F4K,300,2,36.986525694006495,52.81886482082456,1.078925889562821,54.8238270742373,2,b,0.4798665999996956,correct,b
300,4F4K,301,1,52.16265261559752,41.02874615431111,1.4792640301555624,44.4405669837739,2,n,0.21887860000060755,correct,n
301,4F4K,302,1,65.06508482739112,50.89990825008,1.934489026215452,53.16647408497209,2,n,1.067158300000301,correct,n
302,4F4K,303,1,51.07858918426717,62.84635389126871,1.4462908171004032,63.009074225351775,1,n,1.1959016000000702,incorrect,c
303,4F4K,304,1,72.40737058738785,55.56949326504814,2.2535838306858764,57.15782982865076,2,n,1.0975403000002188,correct,n
304,4F4K,305,2,48.14133238767487,64.24543538788721,1.3605971494081734,64.06705965296987,2,v,0.9278819999999541,incorrect,b
305,4F4K,306,1,51.07297154744335,72.17963979091446,1.4461218778209397,69.55159373078898,1,c,0.8547947999995813,correct,c
306,4F4K,307,1,41.36126757350431,62.54500309174134,1.1816788712345712,62.77803769006634,1,c,2.3964914999996836,correct,c
307,4F4K,308,2,38.65552920114827,52.21874279248311,1.1170284075900614,54.30781131809329,2,v,2.173086000000694,incorrect,b
308,4F4K,309,2,49.27546496538029,59.064015111137934,1.393066326471826,60.03433630443146,2,b,0.9035195000005842,correct,b
309,4F4K,310,1,68.42873528489726,54.164240764232005,2.0746414994370563,55.97218460589976,2,n,1.8201656999999614,correct,n
310,4F4K,311,1,44.71393795885592,54.17324280130843,1.267001417695811,55.97982650579459,1,c,0.7819513000004008,correct,c
311,4F4K,312,1,41.95500657680201,56.25471502493641,1.1963588532082323,57.73035036315228,1,c,0.8546576999997342,correct,c
312,4F4K,313,1,35.29309682559139,51.28028022382532,1.0415939001004917,53.49663094369473,1,c,1.0250820000001113,correct,c
313,4F4K,314,1,47.8534339969224,28.83152112993235,1.3524760249236505,33.8815560025414,2,n,1.0975408000003881,correct,n
314,4F4K,315,1,35.693695876893955,53.32945499887526,1.0503068496782018,55.261072903244816,1,c,1.012912199999846,correct,c
315,4F4K,316,2,74.63877263133067,55.30536325324757,2.3606156737823203,56.93613037033557,1,b,1.7711809000002177,incorrect,v
316,4F4K,317,1,48.62280352040849,37.72273183416158,1.3742877467877517,41.51310958159185,2,c,0.6800988000004509,incorrect,n
317,4F4K,318,1,34.94779447242139,53.72535311385246,1.0341416672016686,55.598916258066936,1,c,0.7941080999999031,correct,c
318,4F4K,319,2,48.33560065272496,39.50035874331286,1.3661046637667822,43.08418859898104,1,b,2.013919999999416,incorrect,v
319,4F4K,320,1,55.4563838606232,45.92228222129437,1.5841308589465626,48.79050781344596,2,n,1.2384486999999353,correct,n
320,4F4K,321,2,40.39650698503197,48.839854270355424,1.1582086764154522,51.36637997812886,2,v,1.7213808999995308,incorrect,b
321,4F4K,322,1,51.86948766717103,61.4298804257817,1.4702735816608627,61.91377655024272,1,n,0.8925936999994519,incorrect,c
322,4F4K,323,1,64.04921727580466,45.22617882138407,1.8940527596769028,48.17285924039733,2,n,0.9024547999997594,correct,n
323,4F4K,324,2,38.61232595931702,52.608759598038255,1.1160253353711624,54.64341978271886,2,v,1.8732996000007915,incorrect,b
324,4F4K,325,2,53.99070964112813,66.77967503789235,1.5365783047656356,65.91843942639613,2,v,3.2775932000004104,incorrect,b
325,4F4K,326,1,61.53268033612569,45.026354622956624,1.7974858455439215,47.995410591073885,2,n,0.6599062000004778,correct,n
326,4F4K,327,2,70.62588913809074,56.34714098857983,2.1716275237040663,57.80727713396402,1,b,1.2917250000000422,incorrect,v
327,4F4K,328,1,46.79244724704135,28.945357747358887,1.3229636454263975,33.97579035057028,2,c,1.3901754999997138,incorrect,n
328,4F4K,329,2,44.4281042297584,35.32169566639795,1.2594930200768224,39.408218169473336,1,v,1.1824820000001637,correct,v
329,4F4K,330,2,29.00008434749788,40.67011873159855,0.9138330530517932,44.12196928346144,2,b,1.0489683000005243,correct,b
330,4F4K,331,2,71.57420291823269,47.72865830047152,2.214876239337884,50.38831024610237,1,b,1.9717834000002767,incorrect,v
331,4F4K,332,1,47.56278532520992,35.44698401310615,1.3443264888783657,39.517443676296,2,c,1.0493188999998893,incorrect,n
332,4F4K,333,2,35.21932840228569,57.77514804706558,1.0399973498593056,58.986357472727,2,v,2.353766000000178,incorrect,b
333,4F4K,334,1,64.2049140722083,45.84989745810525,1.900194927739984,48.72632196271003,2,n,1.2431584000005387,correct,n
334,4F4K,335,1,57.70054454369826,35.42074820305297,1.6598079658557332,39.494565294584135,2,n,0.8850727999997616,correct,n
335,4F4K,336,1,49.44160684578309,40.65800164658494,1.3978874477116403,44.11120768913352,2,c,1.2544857000002594,incorrect,n
336,4F4K,337,2,55.86022291130783,41.4381284045389,1.5974897643122448,44.80443736424041,1,b,0.6800167999999758,incorrect,v
337,4F4K,338,1,25.7733085834601,41.7598800348112,0.8545277556501375,45.09052872618432,1,c,2.0260787999995955,correct,c
338,4F4K,339,2,40.76199464921124,58.026399069660975,1.1670447157321109,59.19189959910592,2,v,1.904677200000151,incorrect,b
339,4F4K,340,1,36.40047407299046,58.08226557175177,1.0658572433122142,59.237521950576586,1,c,2.7435609999993176,correct,c
340,4F4K,341,1,57.13966870277231,44.89587518273054,1.640561936285792,47.87951137559557,2,n,2.4167786000007254,correct,n
341,4F4K,342,2,62.67904932007778,46.792948640399416,1.84084924057254,49.56167697597988,1,v,2.5904435000002195,correct,v
342,4F4K,343,2,58.65803947873146,44.744404574548135,1.6931868442784468,47.744938730901474,1,v,0.8076007999998183,correct,v
343,4F4K,344,1,56.57238239867858,43.5679461527888,1.6213229311520858,46.6989490480812,2,c,1.7336426000001666,incorrect,n
344,4F4K,345,1,59.06506319685857,52.84017465869815,1.707578491672561,54.84210933242064,2,n,1.984952499999963,correct,n
345,4F4K,346,1,31.47484850869129,42.381813506382414,0.9620911276754496,45.643720458377466,1,c,2.4279836999994586,correct,c
346,4F4K,347,2,65.26627932740966,43.868896881901456,1.9425993443666216,46.96662640106265,1,v,3.3928849999992963,correct,v
347,4F4K,348,2,62.60229486723914,77.87247422537962,1.83791347087316,72.86117629523649,2,v,1.9788846000001286,incorrect,b
348,4F4K,349,1,54.282744611104334,43.32961782639763,1.5459378685630458,46.48694027131083,2,n,1.5162237000004097,correct,n
349,4F4K,350,2,41.04688498540681,50.66396120691227,1.1739789573964332,52.96130094862364,2,v,0.9046836999996231,incorrect,b
350,4F4K,351,1,81.75728377969105,65.71034448469258,2.7372335079340067,65.14783987569967,2,n,0.8484814000003098,correct,n
351,4F4K,352,2,70.5889378318338,53.92044461658179,2.169959527693087,55.76500559251124,1,b,1.3087562000000617,incorrect,v
352,4F4K,353,2,69.22667078816943,49.3380975959753,2.1093523763412976,51.803448585542974,1,v,2.5007861000003686,correct,v
353,4F4K,354,1,38.38992097324089,27.87499293806573,1.110875878590478,33.09431144529064,2,n,0.9629410999996253,correct,n
354,4F4K,355,2,35.2820030795958,46.03019017716438,1.04135364463874,48.88617397383848,2,v,0.8985517999999502,incorrect,b
355,4F4K,356,2,48.99705809147586,60.65274106417884,1.3850247362598198,61.303070259668814,2,b,0.9214954999997644,correct,b
356,4F4K,357,2,63.46406805010351,50.59875962472554,1.87114588235915,52.90455420731863,1,b,0.9275886000004903,incorrect,v
357,4F4K,358,1,71.06301349390948,52.73804681463915,2.1914570512399973,54.754465210565456,2,c,1.309891100000641,incorrect,n
358,4F4K,359,1,35.239606461440914,49.83780580819268,1.040435978415014,52.24076903798699,1,c,1.71657469999991,correct,c
359,4F4K,360,1,36.22272162311228,29.773184442367786,1.061924831728534,34.66440442002058,2,c,1.4252286999999342,incorrect,n
360,4F4K,361,2,33.44206118623731,46.60283424491474,1.0022634899750675,49.39343707853278,2,v,1.1944126999997025,incorrect,b
361,4F4K,362,2,48.11461437758143,34.4123949916752,1.3598414314477016,38.61783447291666,1,b,0.6425894000003609,incorrect,v
362,4F4K,363,1,25.849518495396502,41.74162697696811,0.8558830340494201,45.07429652888543,1,c,0.7151241000001392,correct,c
363,4F4K,364,2,56.55433875173059,41.28923199107712,1.6207147134036406,44.67207405979373,1,v,1.4147431999999753,correct,v
364,4F4K,365,2,41.83544465728808,21.488117311596525,1.1933881360928582,28.08056464784375,1,v,1.0550299999995332,correct,v
365,4F4K,366,2,29.087839075065908,46.87549071814468,0.9155021455788668,49.634693625845046,2,v,1.5054575999993176,incorrect,b
366,4F4K,367,2,56.46029706865033,45.74521057587587,1.6175484349000984,48.63347505133861,1,b,1.3342616999998427,incorrect,v
367,4F4K,368,1,51.06790618284345,44.03392695345072,1.4459695639516177,47.1133867065092,2,c,0.6851678000002721,incorrect,n
368,4F4K,369,2,39.398442220187945,50.67147544786752,1.134418736977877,52.96783944390043,2,v,0.7298399999999674,incorrect,b
369,4F4K,370,2,67.81843446977464,47.300784983976655,2.04847890202676,50.01062223020413,1,b,0.5878787999999986,incorrect,v
370,4F4K,371,1,56.35902131985824,39.405976941371705,1.6141455109211311,43.00057040550988,2,c,1.2674558000007892,incorrect,n
371,4F4K,372,1,23.029683875232625,42.12839120912704,0.8071398196731779,45.41828566046289,1,n,1.5463260999995327,incorrect,c
372,4F4K,373,2,50.66518542229582,61.06640631292679,1.433911080564618,61.62898249055623,2,v,0.9825448999999935,incorrect,b
373,4F4K,374,1,41.43773678902349,55.83575624204055,1.1835593921133152,57.38075554255765,1,n,1.7286777999997867,incorrect,c
374,4F4K,375,2,63.46374334145845,49.09421740277739,1.8711332481881904,51.58963586524493,1,v,1.9713816000003135,correct,v
375,4F4K,376,1,45.8799989865094,30.089326243943184,1.2980985990536005,34.92888471370689,2,c,2.397229000000152,incorrect,n
376,4F4K,377,2,54.18135431745916,67.9972223120153,1.5426819210909142,66.77616105515231,2,v,3.386902000000191,incorrect,b
377,4F4K,378,2,54.61275512182519,38.81851280310688,1.5565831591672403,42.480567448619226,1,b,0.9456101999994644,incorrect,v
378,4F4K,379,2,63.23170780880552,54.93416402206219,1.8621266953023683,56.623640893568286,1,v,0.6133439999994152,correct,v
379,4F4K,380,2,55.15799367773661,51.44703909182631,1.5743319971754384,53.64113238733142,1,v,0.7030327000002217,correct,v
380,4F4K,381,1,65.85067542579796,52.07408182533348,1.9663501718414216,54.18309902073074,2,n,0.6801111000004312,correct,n
381,4F4K,382,1,45.02000653493263,56.5607998465528,1.2750909856959154,57.98482975735417,1,c,1.6304620000000796,correct,c
382,4F4K,383,2,42.45629227729504,46.89239049804492,1.2088948535850257,49.64964100147039,2,v,1.965255099999922,incorrect,b
383,4F4K,384,1,40.70982092595536,59.414938905093365,1.1657792497473578,60.31683767054417,1,n,2.8722831999994014,incorrect,c
384,4F4K,385,1,41.04274243818777,57.34935227152116,1.173877833035398,58.63669048999278,1,c,0.9642042999994374,correct,c
385,4F4K,386,2,29.879676308171188,45.62701951867165,0.93070140433625,48.52862687403443,2,v,1.4434483000004548,incorrect,b
386,4F4K,387,2,54.66720606980746,37.67219017231065,1.558346638531781,41.46857555509604,1,v,0.9093883999994432,correct,v
387,4F4K,388,1,51.44222626621287,41.0275531281591,1.4572685719551357,44.43950685526739,2,c,0.7044079000006604,incorrect,n
388,4F4K,389,1,44.82831212086965,57.14530178647585,1.2700183689617563,58.46853876256512,1,c,5.0,incorrect,c
389,4F4K,390,2,51.90676910860285,34.77871373991066,1.471413846987015,38.93573834821132,1,b,0.6909074999994118,incorrect,v
390,4F4K,391,2,37.87777605235684,51.70593161373248,1.0991080967087945,53.86516808034712,2,v,0.4676733999995122,incorrect,b
391,4F4K,392,2,51.34600538814553,36.37034811743123,1.4543557011533998,40.32463441285292,1,v,1.0245427999998356,correct,v
392,4F4K,393,1,45.7346133374619,57.397548956841234,1.2941801011353944,58.67635311891989,1,c,1.0732459000000745,correct,c
393,4F4K,394,1,51.15956325155131,43.041297510303245,1.4487281451379332,46.23043806352695,2,c,0.4859078999998019,incorrect,n
394,4F4K,395,1,57.1856084661566,69.40500583419126,1.6421298983679178,67.74068891701408,1,c,1.06714010000087,correct,c
395,4F4K,396,2,27.04502529800965,44.912790154174026,0.877426849460344,47.894537498476566,2,v,0.8365374999993946,incorrect,b
396,4F4K,397,1,39.80663557090505,55.41700475460545,1.1440888269133038,57.02990476541879,1,c,0.6619167999997444,correct,c
397,4F4K,398,2,55.23295949407765,68.63090010503349,1.5767880904788791,67.21399971445905,2,v,0.8551899000003687,incorrect,b
398,4F4K,399,1,71.1463213435794,50.67842276474523,2.195256685814197,52.97388438154009,2,n,0.6134234000001015,correct,n
399,4F4K,400,2,68.09120400708157,51.73759628192371,2.0601310592919613,53.892543801809055,1,b,1.728677200000675,incorrect,v
