,condition,trial,sub_task,x,y,xt,yt,cat,resp,rt,acc,correct_resp
0,4F4K,1,2,30.716106862489085,40.13625227302013,0.9470307697813164,43.59599494582368,2,b,2.0456102000007377,correct,b
1,4F4K,2,2,38.99642959775997,46.25362451740078,1.1249749584665565,49.01526309830002,2,v,5.0,correct,b
2,4F4K,3,2,43.55542545804133,53.90608925865886,1.2368433273704866,55.66316592165928,2,b,1.3038247999993473,correct,b
3,4F4K,4,1,27.46072517938904,40.79293135265358,0.8850444108045636,44.17720302999368,1,c,1.3584296999997605,correct,c
4,4F4K,5,2,62.69525459328601,49.50475046276957,1.8414696729762488,51.87159630430293,1,b,1.0247392000001128,incorrect,v
5,4F4K,6,1,28.559011641435355,46.65910458554369,0.9054898340664376,49.37320633722063,1,n,2.6836905000000115,incorrect,c
6,4F4K,7,2,54.2986574644161,40.97375519231591,1.5464495017020234,44.33735293667648,1,v,0.9578926000012871,correct,v
7,4F4K,8,1,54.02321650294056,71.79646050762162,1.5376173231911336,69.17714889054791,1,n,1.7531020999995235,incorrect,c
8,4F4K,9,2,30.66973182867749,51.26632297901816,0.946117948708204,53.40194547247755,2,v,1.1474213000001328,incorrect,b
9,4F4K,10,2,34.08219243214948,40.30052558815908,1.0156939639424991,43.74132520533249,2,b,1.5890729000002466,correct,b
10,4F4K,11,2,59.5705541315692,39.820028083773984,1.7256221785338124,43.31637077113691,1,b,0.9753946000000724,incorrect,v
11,4F4K,12,2,56.70509720998916,44.72736318915501,1.6258035194448774,47.66508114324262,1,v,1.4677525000006426,correct,v
12,4F4K,13,2,35.599474849889056,55.48801470250376,1.0482510283544868,56.99572120775598,2,v,1.607785199999853,incorrect,b
13,4F4K,14,1,55.69646217913401,68.51225080332439,1.5920590703721664,67.0075113712999,1,n,1.3584294000011141,incorrect,c
14,4F4K,15,1,42.39799361519835,27.041495216916985,1.2074302145163072,32.398100708972,2,c,1.9592679999987013,incorrect,n
15,4F4K,16,1,34.85329579600311,24.20799685153666,1.0321115278751134,30.14958566340129,2,n,1.2249701999990066,correct,n
16,4F4K,17,2,65.24439120648677,55.49957360178483,1.9417153701416847,57.00538800142978,1,b,1.468184100000144,incorrect,v
17,4F4K,18,2,59.69567269287375,37.60908293334118,1.7301176915628784,41.36787999603497,1,v,0.9275629000003391,correct,v
18,4F4K,19,1,41.73661161363269,55.01125804216552,1.1909380327510772,56.596095596942725,1,n,1.2627635999997437,incorrect,c
19,4F4K,20,1,40.9711131274392,28.825697841626933,1.1721306556843998,33.855037545343244,2,c,1.777195999999094,incorrect,n
20,4F4K,21,2,46.68063356525592,56.71768522691711,1.3198911957189814,58.01799205053365,2,b,1.662326400000893,correct,b
21,4F4K,22,2,55.25439530809973,45.43814625844361,1.5774910929039885,48.294349273793856,1,b,0.9586677999996027,incorrect,v
22,4F4K,23,1,70.53219240194578,57.82051500687223,2.167400511499755,58.92373155770815,2,n,1.170585599998958,correct,n
23,4F4K,24,2,37.44462348565233,19.72076341753501,1.0892527114852717,26.780101191308823,1,v,1.2020362000002933,correct,v
24,4F4K,25,2,46.11471816812029,32.39793933906847,1.3044499085033794,36.85229490142579,1,b,1.1034975000002305,incorrect,v
25,4F4K,26,2,47.67408073117987,58.57701760120554,1.3474412974104435,59.53855274934431,2,v,0.9522668999998132,incorrect,b
26,4F4K,27,1,56.53464265237771,43.940496211683545,1.6200510550227667,46.96775804979881,2,c,1.7286938000015653,incorrect,n
27,4F4K,28,1,43.45937788193385,33.59992769362921,1.2343755033353403,37.88112538397503,2,c,0.9689342000001488,incorrect,n
28,4F4K,29,2,18.916609878714507,36.32393415656823,0.7409757824569605,40.24237564026303,2,v,1.7543473000005179,incorrect,b
29,4F4K,30,2,57.781384364146845,70.28043030679878,1.662600477417273,68.19656531712009,2,b,1.3827255999985937,correct,b
30,4F4K,31,1,49.81595601106094,61.82567713621484,1.4088115873137506,62.11247410784914,1,n,1.3962413999997807,incorrect,c
31,4F4K,32,2,54.36965583285138,40.71020167430186,1.54873431888575,44.10394618459608,1,b,1.1946229999994102,incorrect,v
32,4F4K,33,1,29.12521058551164,40.83401698789107,0.916213875941626,44.21358760547281,1,c,1.7106511999991199,correct,c
33,4F4K,34,2,53.13309600264156,36.32546367786577,1.5094185192908505,40.243711338989634,1,v,1.255284599999868,correct,v
34,4F4K,35,1,55.57317699399363,67.89524097726559,1.5879828259673154,66.58150746264688,1,n,1.2373561000003974,incorrect,c
35,4F4K,36,2,41.14684533849536,49.83932518994037,1.1764217480746364,52.16337058447523,2,b,1.7603553000008105,correct,b
36,4F4K,37,2,63.94002019806419,53.39143343225874,1.889756833361451,55.22576734120463,1,v,0.7339147000002413,correct,v
37,4F4K,38,1,71.79298036766858,56.73631486817813,2.2249754396893247,58.03338183332913,2,c,1.2309862000001885,incorrect,n
38,4F4K,39,1,52.35168137355952,42.62408789404445,1.485090079023008,45.8003495851026,2,n,1.2056892000000516,correct,n
39,4F4K,40,2,65.29048510961212,51.22631799592965,1.9435773883357896,53.36736242653382,1,v,1.1049055000003136,correct,v
40,4F4K,41,1,35.64729332489368,57.85209220868012,1.0492938827463931,58.94950287046984,1,c,2.6947973999995156,correct,c
41,4F4K,42,1,59.03596040905585,39.185027263006106,1.7065454197009071,42.75547322290058,2,n,1.358484899999894,correct,n
42,4F4K,43,1,56.20474603991933,66.5194998868866,1.608975525654226,65.6117962236054,1,n,0.7515500999998039,incorrect,c
43,4F4K,44,1,30.926670905078588,51.07017475833902,0.9511864885895416,53.232300538319045,1,c,1.3524010000000999,correct,c
44,4F4K,45,1,30.66424208124399,42.28765473472279,0.94600994974825,45.50197948449003,1,n,1.0853580000002694,incorrect,c
45,4F4K,46,2,65.2151019433078,50.54931783583048,1.9405331224272964,52.78085985513255,1,b,1.6682620999999926,incorrect,v
46,4F4K,47,1,37.100690571171896,46.4555595732355,1.081490293598492,49.193571447340055,1,c,0.7772206999998161,correct,c
47,4F4K,48,1,32.68126344060505,44.60092658149516,0.9865321025042082,47.55307466817696,1,c,0.7336747999997897,correct,c
48,4F4K,49,1,46.32988474430199,33.85570064025001,1.310299437091384,38.10118104805012,2,n,1.0501841000004788,correct,n
49,4F4K,50,1,46.63424630137659,40.04905249358879,1.3186186477507862,43.51886947166971,2,n,1.0853224000002228,correct,n
50,4F4K,51,2,43.97781317756022,36.52388420499268,1.2477547494558807,40.41706955647511,1,b,1.3887503000005381,incorrect,v
51,4F4K,52,2,45.788157974675656,56.537225390955165,1.2956218818587488,57.86876106902817,2,v,1.0064509999992879,incorrect,b
52,4F4K,53,2,49.782058145443926,40.241991445729305,1.40781888523959,43.68953566910076,1,b,0.7565276000004815,incorrect,v
53,4F4K,54,2,66.82771293613699,54.227469306928064,2.0067089534704925,55.93537231268834,1,v,1.0270799999998417,correct,v
54,4F4K,55,1,60.7386754759354,51.03216345391232,1.7680514582779991,53.19940191454973,2,c,1.2068581000003178,incorrect,n
55,4F4K,56,1,59.07419421608656,37.255707680749424,1.7079027475675084,41.05779322773284,2,n,0.9517955999999685,correct,n
56,4F4K,57,2,51.21638820395182,58.767894728729495,1.4504410344887138,59.69281212645006,2,b,1.5457950999989407,correct,b
57,4F4K,58,1,31.666514807023116,45.68341545122036,0.9659332786645164,48.51130798662168,1,c,2.2809077000001707,correct,c
58,4F4K,59,2,54.81125330052131,69.82350160968147,1.5630214736529506,67.89388997634919,2,b,1.3571709999996528,correct,b
59,4F4K,60,2,53.90573606094451,64.0590188750993,1.5338656052362034,63.81250308915087,2,b,0.7515535999991698,correct,b
60,4F4K,61,1,64.44452602250205,47.60155705121832,1.9096864473491004,50.20355196193916,2,c,1.4424376000006305,incorrect,n
61,4F4K,62,2,46.97746408015873,70.70302071954517,1.3280633095217855,68.4735838389656,2,b,1.3766640999983792,correct,b
62,4F4K,63,2,51.98323928474444,71.8175116526233,1.4737554808398985,69.19050463606033,2,b,0.7590090000012424,correct,b
63,4F4K,64,2,50.52639087319643,40.44984949822465,1.4297785623374797,43.87346835845667,1,b,0.9079818999998679,incorrect,v
64,4F4K,65,1,41.28679326135419,48.17216180238971,1.179850280793572,50.70500708888927,1,c,1.4798427999994601,correct,c
65,4F4K,66,1,46.48967044907292,32.72057827058961,1.3146603448125205,37.12756233540187,2,n,1.5591026000001875,correct,n
66,4F4K,67,2,54.71465403156213,44.09596633878672,1.559884944098921,47.10557995304867,1,b,2.1533483999992313,incorrect,v
67,4F4K,68,1,31.830990313403536,47.09997216911834,0.9692425926089896,49.76193315830034,1,c,1.6183415000014065,correct,c
68,4F4K,69,1,33.394756762913175,50.28743959545535,1.0012780803604675,52.55337620668052,1,c,0.6871589000002132,correct,c
69,4F4K,70,2,58.78102349083639,78.13307544420802,1.6975225091390682,72.85546822108172,2,v,1.0185654000015347,incorrect,b
70,4F4K,71,1,35.443110780122154,49.44554107022788,1.0448481759249777,51.81991122002935,1,c,1.1460571000006894,correct,c
71,4F4K,72,2,47.05238064361736,58.63261494503232,1.3301338401904277,59.58352107673944,2,b,0.5830184999995254,correct,b
72,4F4K,73,2,43.49094772271296,54.1738205446011,1.235186107744239,55.88998307792157,2,b,0.6665828000004694,correct,b
73,4F4K,74,2,29.848790858047167,40.3879534056512,0.9301038580303748,43.81868954827298,2,v,0.8127274999988003,incorrect,b
74,4F4K,75,2,46.024934193652456,29.391185615632978,1.3020167657110406,34.32276766835902,1,b,0.6012962999993761,incorrect,v
75,4F4K,76,2,40.781503589758536,21.11239539631849,1.1675182549931915,27.797730684283408,1,v,1.0914670000001934,correct,v
76,4F4K,77,1,37.31845024746127,23.786427700882307,1.0863985863496357,29.8225419709304,2,n,2.2201220000006288,correct,n
77,4F4K,78,2,64.47156693010453,52.54294500704235,1.910760565742432,54.5008444243612,1,b,1.0331162000002223,incorrect,v
78,4F4K,79,2,35.222967785163675,52.02877350255338,1.0400760586300053,54.05938136061011,2,b,1.0673853999996936,correct,b
79,4F4K,80,1,56.32307402777675,51.061838177160055,1.6129393832790355,53.22508590635693,2,c,1.8682177999999112,incorrect,n
80,4F4K,81,2,57.01317917403102,41.44922649928397,1.6362524759348598,44.75864120848863,1,b,2.470199600000342,incorrect,v
81,4F4K,82,2,35.807677944148864,51.57200528602343,1.052799229490387,53.6659132737075,2,b,0.9627237000004243,correct,b
82,4F4K,83,2,44.85676483870367,27.828818462106387,1.270770007359924,33.037366475626385,1,v,0.7151477999996132,correct,v
83,4F4K,84,2,44.18531161631557,32.27840304717641,1.2531502043535967,36.75048291123855,1,v,0.7286664000002929,correct,v
84,4F4K,85,2,54.16031741066448,41.78969860351706,1.5420072221927703,45.06044366737309,1,v,1.3341650999991543,correct,v
85,4F4K,86,1,39.391520441974336,59.36700015038072,1.1342554669255844,60.17464031315303,1,c,1.6679717999995773,correct,c
86,4F4K,87,2,68.47059288473002,47.38905072596314,2.076448062465185,50.01653993894577,1,v,0.9690097000002424,correct,v
87,4F4K,88,2,64.54910894741658,58.560826318374765,1.9138440395590253,59.52545123606374,1,v,0.5162700000000768,correct,v
88,4F4K,89,1,53.60129908648874,38.7596674069359,1.5241860037543231,42.38027186549601,2,c,1.1146965000007185,incorrect,n
89,4F4K,90,2,49.938403747660594,65.40238883741983,1.412403315116594,64.80490410884605,2,v,1.0246465000000171,incorrect,b
90,4F4K,91,2,49.75403747892116,63.24692947507948,1.4069988255880643,63.20137013890119,2,b,0.7298261000014463,correct,b
91,4F4K,92,1,57.35890039750584,40.0310268572532,1.6480579952433996,43.50292805244119,2,n,0.812266400000226,correct,n
92,4F4K,93,2,44.2673131801599,55.90068206213027,1.255288867109736,57.34017600559478,2,v,1.3161399000000529,incorrect,b
93,4F4K,94,2,32.81997484845415,43.28783192655084,0.9893817859035487,46.3890259480597,2,v,1.5344409000008454,incorrect,b
94,4F4K,95,2,45.489324444601735,61.213287914282944,1.2875957619077658,61.636017001101926,2,b,0.6977263999997376,correct,b
95,4F4K,96,1,43.966355828457495,55.97939589296109,1.2474575086983235,57.40572216657747,1,c,2.0624423999997816,correct,c
96,4F4K,97,1,47.24336366018369,63.78711155018178,1.335426810607723,63.6088011365536,1,n,0.9339438999995764,incorrect,c
97,4F4K,98,1,54.488565795731134,40.65675128642879,1.5525685556233326,44.05662103396813,2,c,0.6848098000009486,incorrect,n
98,4F4K,99,1,53.08087056962082,44.75443511133132,1.5077801845541416,47.68906091718633,2,n,0.800081900000805,correct,n
99,4F4K,100,1,47.02826085955908,28.67482803645469,1.329466869781129,33.730717182961705,2,c,1.3038313000015478,incorrect,n
100,4F4K,101,1,63.50602178609628,46.89931342329789,1.872778988676171,49.585068140365486,2,n,0.6933192000014969,correct,n
101,4F4K,102,1,33.55552228991493,55.3770522417716,1.0046309794588315,56.902868810285376,1,c,1.3099124000000302,correct,c
102,4F4K,103,2,49.936578061526895,60.29970077845071,1.412349695547774,60.91744893233104,2,b,1.880500100000063,correct,b
103,4F4K,104,1,37.51128651045599,54.5775310671098,1.0907637009263782,56.23103022345381,1,c,1.261319100000037,correct,c
104,4F4K,105,1,49.99373532136811,37.31300704845846,1.4140293443050764,41.1080438268316,2,n,0.8546714999993128,correct,n
105,4F4K,106,1,63.19799331348538,46.00280581178371,1.8608216656558292,48.79366770465912,2,n,0.824622800000725,correct,n
106,4F4K,107,1,40.89344975373797,52.54630682086847,1.1702392340388197,54.503725608727066,1,c,1.0914705000013782,correct,c
107,4F4K,108,2,35.867110978231935,25.64160756974378,1.054101162296429,31.276611731957782,1,v,1.4980954000002384,correct,v
108,4F4K,109,2,77.21716185781086,58.01812262045584,2.490637147856523,59.08485329678773,1,b,0.8679857999995875,incorrect,v
109,4F4K,110,1,55.16216752012776,66.77548536553354,1.5744686434923787,65.79426812965664,1,c,1.2188791000007768,correct,c
110,4F4K,111,2,37.309151374555015,56.77133807006943,1.086188535602015,58.062306058105975,2,v,1.6501642999992328,incorrect,b
111,4F4K,112,1,32.45522668512031,45.2655803447212,0.9819059840935882,48.141641817356,1,c,1.3225983000011183,correct,c
112,4F4K,113,1,43.02847556878951,58.01688804951376,1.2233644574953582,59.08384780959298,1,n,1.5344033999990643,incorrect,c
113,4F4K,114,2,40.944881086565545,27.707092711222277,1.1714914562579857,32.93814660417832,1,v,2.0928225999996357,correct,v
114,4F4K,115,2,51.433077074945935,29.94409657877202,1.456991349944341,34.78269637191834,1,b,0.8063074000001507,incorrect,v
115,4F4K,116,1,73.48197483059167,60.71041046914405,2.304508749133067,61.24161640808309,2,n,1.5587494999999763,correct,n
116,4F4K,117,2,35.41628494653823,45.82417672654831,1.044265493383735,48.63577315662366,2,v,0.9946648000004643,incorrect,b
117,4F4K,118,1,52.83626282084792,37.06149006020971,1.5001303699147202,40.88755561516353,2,n,0.8972126999997272,correct,n
118,4F4K,119,2,49.13073138675418,33.92131014550503,1.3888799870498036,38.1576891063996,1,b,1.8196979999993346,incorrect,v
119,4F4K,120,1,31.67393781753251,48.268840259608325,0.966082388894014,50.78986316663927,1,c,1.0964189000005717,correct,c
120,4F4K,121,2,32.91069922357236,53.76119385742222,0.9912500761135316,55.54020429510776,2,v,2.1485876999995526,incorrect,b
121,4F4K,122,1,53.99411434005828,66.6393572437228,1.5366870963999295,65.6973474023649,1,n,1.2969544999996288,incorrect,c
122,4F4K,123,2,49.16191926450973,36.76574424760715,1.389781014649035,40.628594966860376,1,b,0.8256732999998349,incorrect,v
123,4F4K,124,2,51.876960461651336,66.84158655919184,1.4705020687428283,65.84123697627612,2,v,0.7394316999998409,incorrect,b
124,4F4K,125,2,50.4824075962544,36.76744871502298,1.4284714753511374,40.63008647303136,1,v,1.0064431999999215,correct,v
125,4F4K,126,2,66.02630723629915,50.24687978354656,1.9735447287556385,52.518114170184994,1,v,1.1763612999984616,correct,v
126,4F4K,127,2,71.8847490949172,58.47395417936234,2.2292253629538625,59.45511341063516,1,v,1.1326179999996384,correct,v
127,4F4K,128,1,54.90375115835926,39.56499173797276,1.5660307430724254,43.09099323198608,2,c,1.359867099999974,incorrect,n
128,4F4K,129,2,33.12498236072771,48.6886119053482,0.995676835220591,51.15792087029168,2,b,2.7424881999995705,correct,b
129,4F4K,130,2,60.00462348708104,48.0432630228835,1.741268528821872,50.59182152339714,1,v,1.6303175000011834,correct,v
130,4F4K,131,1,65.30874314595287,50.62099271863489,1.9443154371156584,52.84306310994968,2,n,0.9763899000008678,correct,n
131,4F4K,132,2,40.380087233606126,50.2305389124996,1.1578132861547774,52.50390549644053,2,b,1.4627185000008467,correct,b
132,4F4K,133,1,60.64081271437328,47.54735722414863,1.7644571339373425,50.15586723354976,2,c,2.707150399999591,incorrect,n
133,4F4K,134,1,31.86926833617866,47.321960839409165,0.9700143868912712,49.95747133837175,1,c,0.831812299999001,correct,c
134,4F4K,135,2,33.86760155948842,54.346665966199005,1.011171738394668,56.03614412614917,2,b,1.3036097000003792,correct,b
135,4F4K,136,2,36.78043080383163,52.49480448698845,1.074311914153379,54.45957884030502,2,b,0.9761268000002019,correct,b
136,4F4K,137,1,42.50404795129765,65.72865120865771,1.2100959444933697,65.0423238354122,1,n,1.0367917999992642,incorrect,c
137,4F4K,138,1,54.393177308546505,43.11701892498103,1.5494920138787924,46.23753555520281,2,n,0.830437399999937,correct,n
138,4F4K,139,1,54.77372932269318,34.23724547955629,1.5618023406042072,38.43013570179597,2,n,0.8317815999998857,correct,n
139,4F4K,140,1,44.52348361132131,56.82313580760223,1.2619935251209926,58.10506416953103,1,c,0.9943101999997452,correct,c
140,4F4K,141,1,45.3125856543854,56.02205800297149,1.2828723010427696,57.44122630095983,1,c,1.0792524999997113,correct,c
141,4F4K,142,1,58.570160744506246,47.1473115017625,1.6900955621546458,49.80364334720805,2,n,0.8986287000006996,correct,n
142,4F4K,143,2,67.99671619004427,54.33864261767488,2.0560872487890496,56.02936420045579,1,v,1.806467899999916,correct,v
143,4F4K,144,1,53.27591556925772,68.4682268849617,1.5139079281058063,66.97730229252898,1,n,2.4148164999987785,incorrect,c
144,4F4K,145,1,62.98422760543545,46.89380455983786,1.852568422953824,49.58021101547526,2,c,0.648396499998853,incorrect,n
145,4F4K,146,1,59.19185484175679,44.09556894567648,1.7120865619197805,47.10522769354303,2,n,0.703248399999211,correct,n
146,4F4K,147,2,46.76333565725752,32.98641969584473,1.3221630205068104,37.35487340533013,1,v,2.488528199999564,correct,v
147,4F4K,148,1,53.91545331317109,45.62864824842642,1.5341755764607972,48.46287146043102,2,c,1.1579015999996045,incorrect,n
148,4F4K,149,2,38.493359976803305,47.72027102813231,1.1132678927056696,50.30796464499637,2,b,0.9703802999993059,correct,b
149,4F4K,150,1,40.57348803543114,27.44302155514761,1.1624789892554714,32.72337957733817,2,n,0.8972192999990511,correct,n
150,4F4K,151,2,55.716648401393016,35.72700572707442,1.5927274944674803,39.72185657873881,1,v,2.585611099999369,correct,v
151,4F4K,152,2,68.7086694113852,60.72358119088644,2.086753343324991,61.25198158390007,1,v,5.0,correct,v
152,4F4K,153,1,51.83116829522898,31.789873356634864,1.4691024917643514,36.33539272320892,2,c,2.2265528999996604,incorrect,n
153,4F4K,154,2,66.4194875746518,47.28262329492569,1.9897464843823167,49.92283101415974,1,v,1.8805245999992621,correct,v
154,4F4K,155,2,53.79156681154627,36.17739113368713,1.5302284005065394,40.11444820685648,1,v,1.6072692000016104,correct,v
155,4F4K,156,2,44.083411853966815,27.886245773353657,1.2504976580479323,33.08422408284577,1,b,1.018599600000016,incorrect,v
156,4F4K,157,1,60.91584068140767,49.29105863491623,1.7745770556593128,51.68499139297122,2,n,0.8561082999985956,correct,n
157,4F4K,158,1,29.38920918861896,42.30995681709507,0.9212574433228542,45.521757364382665,1,c,0.7030209000004106,correct,c
158,4F4K,159,2,63.67959961260328,51.43341079486529,1.8795509038227591,53.54629481871873,1,v,0.789361099999951,correct,v
159,4F4K,160,1,61.5890390889595,54.84778923935455,1.79959363913146,56.45867076377586,2,n,1.6983253000016703,correct,n
160,4F4K,161,2,56.70752228053764,74.04528845834443,1.6258855074090697,70.56234161196758,2,b,2.4338504999996076,correct,b
161,4F4K,162,2,28.561184765248107,44.3789460565945,0.9055307530255832,47.35638621584639,2,v,1.0552826000002824,incorrect,b
162,4F4K,163,2,49.42464810408591,66.01205660225561,1.3973945736398228,65.2473856460806,2,b,1.0856567999999243,correct,b
163,4F4K,164,2,46.87626495811551,61.72070413372824,1.325271502728404,62.031105753000205,2,b,0.7226182000013068,correct,b
164,4F4K,165,1,45.677139489364606,32.64262528165298,1.2926343050074087,37.06099294670448,2,c,1.1353209000008064,incorrect,n
165,4F4K,166,1,34.960810581078235,51.50129613089456,1.034421608319822,53.60489861385266,1,n,0.8304674999999406,incorrect,c
166,4F4K,167,1,68.19750803003872,48.71016127351118,2.0646900778982693,51.17679816117198,2,n,0.8729837000009866,correct,n
167,4F4K,168,2,58.55858837472215,43.196915970451776,1.6896889053662938,46.30839533347269,1,v,2.502028799999607,correct,v
168,4F4K,169,1,53.32429935940068,42.28265295255476,1.5154318564887086,45.49754384054811,2,n,1.1763828000002832,correct,n
169,4F4K,170,1,51.592852837625855,61.26516349366912,1.4618401720135374,61.676542378082864,1,n,1.2760729000001447,incorrect,c
170,4F4K,171,1,33.46931012957508,44.569319530475845,1.00283155930061,47.5250720686784,1,c,0.909400700000333,correct,c
171,4F4K,172,1,47.73274734267399,56.45926559803144,1.3490860951759545,57.80420613959772,1,c,0.9154151999991882,correct,c
172,4F4K,173,1,50.63204153466746,60.7806004491432,1.43292315839038,61.2968330575567,1,n,1.322038899999825,incorrect,c
173,4F4K,174,2,63.110043684448414,52.177067195981,1.8574215913361956,54.18686632090876,1,v,1.5713500999991084,correct,v
174,4F4K,175,1,43.33328920143692,62.99629498663943,1.231143283527916,63.0111062134561,1,n,2.0381668000009086,incorrect,c
175,4F4K,176,1,39.49585255945664,57.47270831947433,1.136718934273588,58.63926504155064,1,c,0.5694637000015064,correct,c
176,4F4K,177,1,56.15206859057824,61.21528511379995,1.6072140240166817,61.63757777854895,1,n,1.1950937999990856,incorrect,c
177,4F4K,178,1,30.201390470407777,47.47476339292751,0.9369485374288544,50.0919857765798,1,n,1.4508470999990095,incorrect,c
178,4F4K,179,1,55.553693970776365,46.22228406594287,1.587339603962404,48.98758144692229,2,c,0.6775266999993619,incorrect,n
179,4F4K,180,2,54.848816376122,69.27994690350864,1.5642428301021314,67.52962928076522,2,v,1.4798283999989508,incorrect,b
180,4F4K,181,2,38.936310915149946,46.12032864744975,1.123569469011056,48.89751414506982,2,b,0.8365842000002885,correct,b
181,4F4K,182,2,62.26360268274431,52.28321058484431,1.8250146948443056,54.27803597761536,1,b,1.1607737000013003,incorrect,v
182,4F4K,183,1,47.35310997652312,59.720254549777806,1.3384778822612218,60.457040286722304,1,c,1.3280880999991496,correct,c
183,4F4K,184,1,49.92429084767483,59.27197373022758,1.4119888786300003,60.09845620392458,1,c,0.6872066999985691,correct,c
184,4F4K,185,2,39.75960394065251,51.43506207820661,1.1429704604344633,53.54772063067612,2,v,1.340265200000431,incorrect,b
185,4F4K,186,1,50.27842873534007,69.10740843430585,1.4224252724165334,67.41305897639438,1,c,0.8561905999995361,correct,c
186,4F4K,187,1,37.69346487996479,52.36875677963531,1.094903669843028,54.35146521153792,1,c,0.7634756000006746,correct,c
187,4F4K,188,2,55.49201416248905,70.71656677891389,1.5853049943095052,68.4824169777684,2,b,1.2127856999995856,correct,b
188,4F4K,189,1,49.60107834698555,36.89875515420381,1.4025307000704423,40.74502077228974,2,c,1.4497283999990032,incorrect,n
189,4F4K,190,2,68.94147819668108,50.37644575961159,2.096880064655568,52.63072939636741,1,v,1.874595400000544,correct,v
190,4F4K,191,2,67.03887025258244,52.33188000677771,2.015539570639512,54.3198171297144,1,v,0.9336239999993268,correct,v
191,4F4K,192,1,39.728749558460414,63.130350971829095,1.1422373671131192,63.11296757790701,1,c,1.613726100000349,correct,c
192,4F4K,193,2,38.77925460442018,50.82769715609832,1.1199059955481312,53.02230935506448,2,v,2.0083675000005314,incorrect,b
193,4F4K,194,2,23.1957916017936,38.38173605897454,0.8099325923733208,42.04730254328169,2,b,1.2795597999993333,correct,b
194,4F4K,195,2,39.02788987684143,61.5448255558563,1.1257111557440027,61.89449273802588,2,v,0.9522704999999405,incorrect,b
195,4F4K,196,1,67.6263791385902,78.41761987506263,2.0403142505541703,73.00387565161184,1,n,1.3463800999998057,incorrect,c
196,4F4K,197,1,61.29506396927284,48.96393952476361,1.7886262061982765,51.39897625591301,2,n,1.6571844999998575,correct,n
197,4F4K,198,2,49.21061630382895,65.24262240438325,1.391189056475152,64.68812139383498,2,v,1.455521799998678,incorrect,b
198,4F4K,199,1,71.22175197800428,54.729733928070985,2.198702726752649,56.35929882053348,2,c,1.6120535999998538,incorrect,n
199,4F4K,200,1,58.93945798192623,43.56042435456098,1.7031243090213604,46.63076433188233,2,n,1.0246919000001071,correct,n
200,4F4K,201,2,50.77474792283735,36.45695054005473,1.4371816674431173,40.35857220763127,1,b,2.676579799999672,incorrect,v
201,4F4K,202,1,45.82778060821717,63.38757889023978,1.2966898228439772,63.307803408667496,1,c,1.8311094999990019,correct,c
202,4F4K,203,1,25.65334276425105,34.35159121865533,0.8523986911127477,38.52887721150023,1,c,0.891578999999183,correct,c
203,4F4K,204,1,30.7504794244755,45.26747495848083,0.9477079089347452,48.14331865913572,1,c,0.757635100000698,correct,c
204,4F4K,205,2,64.53296386919534,51.68559476324482,1.913201617399563,53.76387125214004,1,v,1.226305300000604,correct,v
205,4F4K,206,2,55.40568474004044,38.49140876896627,1.5824616554457844,42.143887056236295,1,b,1.2916253000003053,incorrect,v
206,4F4K,207,1,55.05093613457981,65.90354220745678,1.5708311190884212,65.16899800152196,1,n,1.6618828999999096,incorrect,c
207,4F4K,208,1,65.05438072251755,47.018833735063055,1.934058484726216,49.690428830567086,2,c,1.006511199999295,incorrect,n
208,4F4K,209,1,58.43949034020264,45.41467856903311,1.6855094432563265,48.27358500718251,2,n,1.2613682999999583,correct,n
209,4F4K,210,1,40.96639761898443,54.36857993058415,1.17201572659236,56.05465958999125,1,c,1.0442441000013787,correct,c
210,4F4K,211,2,75.75207005154647,66.682912142076,2.415902281303678,65.72838599072135,1,v,1.3463157000005594,correct,v
211,4F4K,212,1,54.28095968311999,67.64244968413126,1.54588048977245,66.40536032566074,1,c,0.6787490999995498,correct,c
212,4F4K,213,1,34.36094753913825,54.52169931568223,1.0215985809449704,56.183935248469055,1,n,1.6376232000002346,incorrect,c
213,4F4K,214,1,29.856229268533014,40.44016766492221,0.9302477352016966,43.86489942214086,1,n,1.0125372999991669,incorrect,c
214,4F4K,215,2,71.21493130302323,57.16366315328476,2.198390902573528,58.385578149066966,1,v,1.267450599998483,correct,v
215,4F4K,216,1,68.0237116405867,60.03310338827613,2.057241766867477,60.70605907989884,2,c,0.442263400000229,incorrect,n
216,4F4K,217,1,52.28496245463519,43.66203410738979,1.4830311219975294,46.720865257639815,2,n,0.7451689000008628,correct,n
217,4F4K,218,1,59.53602572371989,38.52761880249647,1.7243836298543536,42.17578324621465,2,n,0.9020261999994545,correct,n
218,4F4K,219,1,29.80361960037314,43.96523933981202,0.9292306124596232,46.98969364204624,1,c,1.6618954999994457,correct,c
219,4F4K,220,2,32.23691803603558,43.57240654437301,0.9774586252178084,46.64138961429762,2,b,1.1284027000001515,correct,b
220,4F4K,221,2,47.76418744403313,57.8824815213335,1.349968387078279,58.97429594150292,2,v,1.1413467999991553,incorrect,b
221,4F4K,222,2,33.27296151114928,51.787163117158656,0.9987453909308838,53.85140124516367,2,b,1.1097358000006352,correct,b
222,4F4K,223,1,53.00308458767204,62.52787854157502,1.505343300341664,62.65347585967397,1,c,1.3704340000003867,correct,c
223,4F4K,224,2,47.27773156487452,30.638083476768585,1.3363815284916796,35.363461354751315,1,b,0.6532405999987532,incorrect,v
224,4F4K,225,1,51.23863113286789,30.08573751785777,1.4511120602729568,34.900919340421986,2,c,0.8424918000000616,incorrect,n
225,4F4K,226,2,52.04011964024698,37.73480824567604,1.4754996608982391,41.478306344067214,1,v,0.6376464999993914,correct,v
226,4F4K,227,2,66.03329182596451,48.43200249231822,1.973831388114699,50.93299947010027,1,v,0.6291375999990123,correct,v
227,4F4K,228,1,39.976639468677085,59.914448440853214,1.1481404889215867,60.61173371258455,1,n,0.945734299999458,incorrect,c
228,4F4K,229,2,62.86516271626444,53.01897994581982,1.847987350459618,54.90812153514776,1,v,0.674046999998609,correct,v
229,4F4K,230,2,64.61298516988506,50.51554206497711,1.916387827746651,52.7515387313756,1,v,0.7333367999999609,correct,v
230,4F4K,231,2,41.11781418115301,52.29290725536725,1.175711773121494,54.28636139090525,2,v,0.4485332999993261,incorrect,b
231,4F4K,232,1,67.7251319861006,57.05588707124531,2.044508356489597,58.29690674648694,2,c,0.5757972000010341,incorrect,n
232,4F4K,233,1,60.531178771925504,43.12277639302111,1.7604391526770045,46.24264182740291,2,n,0.49192199999924924,correct,n
233,4F4K,234,2,37.79122808197428,53.37224247734505,1.097131794908344,55.2094226569492,2,v,1.7239207000002352,incorrect,b
234,4F4K,235,2,39.86040634600739,52.87889852246784,1.1453687844997802,54.78842136948077,2,b,0.7322088999990228,correct,b
235,4F4K,236,1,63.25575457791087,49.48007882819219,1.863058063193956,51.85006172916586,2,c,1.3036864000005153,incorrect,n
236,4F4K,237,2,53.04645866092555,38.32397159652068,1.5067016398935584,41.99644539977776,1,v,2.7739244000003964,correct,v
237,4F4K,238,2,56.64823652567331,47.19136353584765,1.6238823302698064,49.84245161063097,1,v,0.7333898000015324,correct,v
238,4F4K,239,2,58.58113087623668,42.55905350579619,1.6904811464667129,45.74267092048738,1,v,0.5466058999991219,correct,v
239,4F4K,240,2,76.60335758074996,59.01682976830962,2.459049416712169,59.89345274204536,1,v,0.6861914000000979,correct,v
240,4F4K,241,2,56.01963061009412,36.5286445873404,1.602793893443155,40.42123063165631,1,v,1.5409457000005204,correct,v
241,4F4K,242,2,47.31275914317948,30.06055473897988,1.3373552740001329,34.87988833766136,1,v,1.1824813000002905,correct,v
242,4F4K,243,2,59.88673549015216,45.0271562700188,1.7370051900234602,47.9305800859133,1,v,0.8510827999998583,correct,v
243,4F4K,244,1,39.801865994621245,57.73965735697188,1.1439753611803969,58.85769848921503,1,n,1.0366659999999683,incorrect,c
244,4F4K,245,2,53.62340483924931,40.56873308804219,1.5248867968503896,43.97869825277056,1,v,0.7287003000001278,correct,v
245,4F4K,246,2,44.25905829892268,59.63731378745019,1.2550734084527544,60.39085082972972,2,b,1.4371998999995412,correct,b
246,4F4K,247,2,63.80438006201521,72.90234438960947,1.884434175820598,69.86890381844941,2,v,0.8175114999994548,incorrect,b
247,4F4K,248,2,59.329889795744776,43.22945909065694,1.7170079198014685,46.337257075521165,1,b,0.7832873000006657,incorrect,v
248,4F4K,249,1,43.13631032703131,24.414830638971814,1.226110759898736,30.31078354765189,2,c,1.0914474000001064,incorrect,n
249,4F4K,250,2,56.796814150632684,35.77444408121295,1.6289072109242726,39.76316522763554,1,v,0.667047700000694,correct,v
250,4F4K,251,1,55.06376995255621,72.80338428033293,1.571250385468851,69.80782764107224,1,c,1.1898877999992692,correct,c
251,4F4K,252,1,45.86970807545132,33.12791526225327,1.2978208441375083,37.47604156387749,2,n,0.6168008000004193,correct,n
252,4F4K,253,2,48.83975425197686,34.45310801290238,1.380501664638183,38.61659964899196,1,v,1.158143000000564,correct,v
253,4F4K,254,2,65.34705970692254,72.73659326512895,1.9458652276033808,69.76651317489045,2,b,2.1982427000002644,correct,b
254,4F4K,255,1,71.96221692773094,56.29217226797341,2.232819312260822,57.66567033199512,2,c,1.4798632000001817,incorrect,n
255,4F4K,256,1,40.11412969249872,46.64353015762257,1.1514277526318566,49.35946490634818,1,c,1.212829399999464,correct,c
256,4F4K,257,1,53.17006651042478,63.567644825871895,1.5105793763712814,63.44370689140066,1,n,2.025907499999448,incorrect,c
257,4F4K,258,2,41.92005464288025,52.85935224936703,1.195489649480826,54.77170907742979,2,v,0.8814901999994618,incorrect,b
258,4F4K,259,2,46.73934693119673,41.5863163566083,1.3215036483692149,44.88014971430814,1,b,0.6180566999992152,incorrect,v
259,4F4K,260,1,58.480079472470734,72.69453630218138,1.6869326597356835,69.74046013525624,1,n,0.7833141999999498,incorrect,c
260,4F4K,261,1,60.51207937647055,50.96295472200232,1.7597401141439108,53.13948281026633,2,c,0.6964453000000503,incorrect,n
261,4F4K,262,2,40.87028958889034,25.350804552889997,1.1696757800703146,31.046188759838355,1,v,1.8696438999995735,correct,v
262,4F4K,263,1,44.51079171367435,50.80505525993272,1.26166050299025,53.00268561502676,1,c,1.4798121999992873,correct,c
263,4F4K,264,2,63.25205374139033,38.82258183135487,1.8629146938505792,42.43573871109341,1,b,0.9214807999996992,incorrect,v
264,4F4K,265,2,48.059145066883104,37.41491521625509,1.3582738240327867,41.19744424112456,1,b,0.8621889000005467,incorrect,v
265,4F4K,266,1,56.42256580003704,71.45771163451087,1.616279804674316,68.96124172894433,1,n,0.5572818000000552,incorrect,c
266,4F4K,267,1,41.77306032308755,55.69806821719439,1.1918410221027391,57.171224616797154,1,n,0.8062917999995989,incorrect,c
267,4F4K,268,1,51.25814384489444,61.75378415539411,1.4517009763550273,62.05676094901367,1,c,1.2978079999993497,correct,c
268,4F4K,269,1,59.41946868826935,64.8273864937768,1.7202092410323329,64.3830158556914,1,c,0.8682797000001301,correct,c
269,4F4K,270,2,64.6750070562237,49.01125465740768,1.9188610046216823,51.44037233337787,1,v,0.5998554999987391,correct,v
270,4F4K,271,1,68.31350310565661,45.29970191668731,2.0696762241634765,48.17184051189761,2,c,1.1828814999989845,incorrect,n
271,4F4K,272,2,51.92476983624368,60.49592319963939,1.471964721778706,61.072552055900175,2,v,0.6166940000002796,incorrect,b
272,4F4K,273,1,45.527701061666086,61.6963726877168,1.2886236983009325,62.01222749210099,1,n,0.5709009999991395,incorrect,c
273,4F4K,274,2,44.135339072142514,32.32370376652428,1.2518486698773197,36.78905547776035,1,b,1.1084138999995048,incorrect,v
274,4F4K,275,2,60.643857489877,55.59526241101963,1.7645688528893926,57.085372534741786,1,v,0.850060200000371,correct,v
275,4F4K,276,1,31.501935119820743,46.95195691667787,0.9626331783786848,49.631479552880656,1,c,1.5769460999999865,correct,c
276,4F4K,277,2,51.28627440041023,36.07365457173333,1.4525504095359576,40.023944590805634,1,v,0.8308032999993884,correct,v
277,4F4K,278,1,49.01762164303997,57.925612969309,1.385617109221246,59.00946987627013,1,c,0.8547207999999955,correct,c
278,4F4K,279,2,39.262583131654495,60.45841565764708,1.1312184016697573,61.04293642628567,2,v,0.8294741000008798,incorrect,b
279,4F4K,280,2,47.33710186406572,60.270359127487,1.3380324047757697,60.894220454232176,2,v,0.850085099998978,incorrect,b
280,4F4K,281,1,62.135692550700135,50.44369914427347,1.8201669407150585,52.68915264591429,2,n,1.9043916999999055,correct,n
281,4F4K,282,2,43.46187510136025,53.44412958676392,1.2344396039200438,55.27063536010794,2,b,1.5153121999992436,correct,b
282,4F4K,283,2,48.55794065529944,60.73482104712591,1.3724353770968163,61.26082569549465,2,b,0.8378752999997232,correct,b
283,4F4K,284,2,66.18677886271804,48.520366274771,1.9801412770593467,51.0104784375892,1,v,0.9033146999991004,correct,v
284,4F4K,285,2,53.94951226758393,36.8430820072671,1.5352625197668288,40.69628122962504,1,v,0.7506270999983826,correct,v
285,4F4K,286,2,56.58765949995995,44.00438624107655,1.62183807223145,47.02439775804272,1,v,0.7758641999989777,correct,v
286,4F4K,287,2,30.988732686328326,54.8618920154379,0.9524148237728894,56.4705346441551,2,b,1.3161020999996254,correct,b
287,4F4K,288,1,36.31871024758728,54.29571434340717,1.064046579546729,55.99308086708538,1,c,0.8851138999998511,correct,c
288,4F4K,289,1,36.18131406322339,46.42267639767701,1.0610108591407306,49.164541915240605,1,c,1.346313199999713,correct,c
289,4F4K,290,1,42.22608951485756,55.53706431401776,1.203121784947384,57.03673447570751,1,c,1.038241600001129,correct,c
290,4F4K,291,2,46.52072870135194,53.59222850873034,1.3155096769192762,55.39663423784101,2,b,1.1876279999996768,correct,b
291,4F4K,292,1,34.96679761163214,51.64837458216744,1.0345503985171924,53.7317809992543,1,c,0.9032824999994773,correct,c
292,4F4K,293,2,49.95699143819344,59.736907953321605,1.412949342988522,60.47032165873217,2,v,0.9093348999995214,incorrect,b
293,4F4K,294,1,56.32943236479942,41.97966501707013,1.6131526568383747,45.228870448431294,2,n,0.7392591000007087,correct,n
294,4F4K,295,1,52.47097231163809,72.95248569775003,1.488778544560062,69.8997875177084,1,n,0.8599229999999807,incorrect,c
295,4F4K,296,2,45.80338646383776,33.91806086165297,1.296032228207894,38.15488999267524,1,b,1.0006207000005816,incorrect,v
296,4F4K,297,2,52.8619552087332,39.68467574931682,1.500932040976614,43.19674246907333,1,v,0.715120200000456,correct,v
297,4F4K,298,1,36.70395808686842,50.19709384644185,1.0726048951135154,52.47482052289784,1,c,1.2605113999998139,correct,c
298,4F4K,299,1,31.9698307910083,41.50930107394528,0.9720449426591397,44.81188584015667,1,c,1.2855916999997135,correct,c
299,4F4K,300,2,60.57480222968663,41.47004487757064,1.7620368143449567,44.77709236125445,1,v,1.6862459000003582,correct,v
300,4F4K,301,1,70.14935421202283,48.54938483628264,2.150214559216907,51.035916304106486,2,n,0.738246099999742,correct,n
301,4F4K,302,2,37.40581638177939,54.55867032755013,1.08837407065942,56.21512345157028,2,b,1.0503052999993088,correct,b
302,4F4K,303,2,45.290843960037385,58.15033710933791,1.2822924380934289,59.19245124548974,2,v,1.5044600000001083,incorrect,b
303,4F4K,304,1,46.92335546622785,52.58324532448622,1.32656987013278,54.53537854678174,1,c,0.9943239000003814,correct,c
304,4F4K,305,1,22.066338024429857,37.41444061023201,0.7911318946323703,41.1970278019687,1,c,0.9882259999994858,correct,c
305,4F4K,306,1,52.54104790967017,43.33978962263188,1.4909495458983144,46.43510466486679,2,n,0.8550197000004118,correct,n
306,4F4K,307,1,46.24626787514004,59.002746992572895,1.3080231152812851,59.88211849529763,1,n,0.8682785000000877,incorrect,c
307,4F4K,308,2,68.49127374550687,53.41550442748029,2.077341223536945,55.24626482998276,1,b,1.431239400000777,incorrect,v
308,4F4K,309,2,40.480479663492346,62.55457209086643,1.1602328640402133,62.67392682328016,2,v,0.8426041999991867,incorrect,b
309,4F4K,310,2,29.44554049376072,40.66817072608923,0.9223372149839116,44.06673150868134,2,v,1.0114888999996765,incorrect,b
310,4F4K,311,1,39.96752516131935,54.73571308640253,1.1479229062706362,56.36433422829296,1,n,1.777234999999564,incorrect,c
311,4F4K,312,2,32.58174109791853,45.95898301065362,0.984492576637785,48.75493748516757,2,b,1.1109198000012839,correct,b
312,4F4K,313,2,47.99766179911559,24.858845645806483,1.3565383688860455,30.65845008339476,1,v,0.8850657000002684,correct,v
313,4F4K,314,2,27.79078375030852,44.91776458842048,0.8911396957051855,47.83371558437658,2,b,0.977360699998826,correct,b
314,4F4K,315,1,29.71141391557037,45.77017925586841,0.927450646739229,48.58803139286768,1,c,0.7409905999993498,correct,c
315,4F4K,316,1,60.35391097071965,47.36179140266275,1.7539618022313326,49.99254131009685,2,n,0.8051720000003115,correct,n
316,4F4K,317,2,51.56859109268025,70.36083561396212,1.4611028467871527,68.24948952706073,2,v,1.0734938999994483,incorrect,b
317,4F4K,318,1,50.757023137443454,33.546614755112735,1.4366520535890872,37.83530526563416,2,c,2.2034861000011006,incorrect,n
318,4F4K,319,2,57.959520967343295,41.35221587440073,1.668770580198549,44.67266676218303,1,v,1.1885416000004625,correct,v
319,4F4K,320,1,54.41847513957293,62.754059997947984,1.5503073441774178,62.82649244916803,1,n,1.001777999999831,incorrect,c
320,4F4K,321,1,32.587825632415594,54.41338998590479,0.9846171467896724,56.09250949986434,1,n,3.9692613999995956,incorrect,c
321,4F4K,322,1,33.03830981329334,46.02852382005717,0.9938839380843392,48.81639526439909,1,c,1.6062204999998357,correct,c
322,4F4K,323,1,57.2778940025212,73.36651318187165,1.6452842103247527,70.15318721518376,1,n,0.6536839000000327,incorrect,c
323,4F4K,324,2,54.92728206264674,40.3949393981146,1.5667972072705598,43.82487193774165,1,v,1.1581889999997657,correct,v
324,4F4K,325,2,41.539659295147175,54.105008004873625,1.1860705104127351,55.83173461282283,2,b,2.165577599998869,correct,b
325,4F4K,326,2,55.94587812444804,40.882152954371946,1.6003376688609807,44.25621858684381,1,v,0.7212374999999156,correct,v
326,4F4K,327,2,51.2823523432346,63.1843195396722,1.4524319488782165,63.1539131628825,2,v,0.6595056999994995,incorrect,b
327,4F4K,328,2,59.20680510050126,52.40583931908823,1.7126189013706308,54.38328162946625,1,b,1.572266999999556,incorrect,v
328,4F4K,329,1,69.5260202321031,51.4051198463218,2.122523617655358,53.521864502356046,2,c,0.7994424999997136,incorrect,n
329,4F4K,330,2,48.08491907213384,59.8616006620503,1.3590019933012976,60.5696745375754,2,b,0.8561150999994425,correct,b
330,4F4K,331,2,47.23620793828802,62.81807709218912,1.3352281151452263,62.87535054896323,2,v,0.8790318000010302,incorrect,b
331,4F4K,332,1,49.05367299993046,32.81222606543994,1.386656249948386,37.20587640497078,2,n,0.8416481999993266,correct,n
332,4F4K,333,2,44.77516672491632,58.17184123913127,1.2686156120670489,59.20993596832598,2,v,1.6147293000012723,incorrect,b
333,4F4K,334,2,39.91096947489297,50.02470353983561,1.14657369373872,52.32482167438209,2,b,0.5270127000003413,correct,b
334,4F4K,335,2,27.27099604755839,48.97047516968475,0.8815595184448929,51.40469482155179,2,b,0.7090841999997792,correct,b
335,4F4K,336,2,36.09339273200725,47.613306476784935,1.0590728141453536,50.2138878746724,2,b,0.44338989999960177,correct,b
336,4F4K,337,1,51.25559314515448,42.36871547768065,1.4516239797272,45.57386639759493,2,n,0.8729089999997086,correct,n
337,4F4K,338,2,60.84206871953998,44.03374887269027,1.7718568619003032,47.050427284404606,1,v,0.8672979999992094,correct,v
338,4F4K,339,1,54.699046069578266,44.09697999296701,1.5593787524154503,47.10647848169835,2,n,0.5951163999998244,correct,n
339,4F4K,340,2,45.63755219758224,61.421680598830974,1.291570653296202,61.79863059482976,2,v,1.1763750999998592,incorrect,b
340,4F4K,341,2,49.06887952695588,33.62414600520595,1.3870947950186905,37.9019454642147,1,v,1.0734732999990229,correct,v
341,4F4K,342,2,37.45051069412906,50.267368553284015,1.089386067118017,52.53592774044959,2,b,0.7394372999988263,correct,b
342,4F4K,343,1,49.82776972261453,63.80005074838035,1.409157717390673,63.61851581502668,1,n,0.5578752000001259,incorrect,c
343,4F4K,344,1,50.00626104541853,62.07959842519434,1.4143976975823007,62.30877076239235,1,c,0.563654100000349,correct,c
344,4F4K,345,1,48.21273608336021,63.677052461201214,1.3626188620307116,63.52608436527984,1,c,0.5270103999991989,correct,c
345,4F4K,346,2,34.252435401700495,48.57205272869796,1.019295997245132,51.05578500393301,2,v,2.79091359999984,incorrect,b
346,4F4K,347,1,49.39164046437675,37.84092297397498,1.3964357666253884,41.57154873367595,2,c,0.7334012999999686,incorrect,n
347,4F4K,348,2,66.90655549981457,53.341821572422006,2.010001621144625,55.18350856602771,1,b,0.9665695000003325,incorrect,v
348,4F4K,349,2,46.05133687192355,38.41680155883967,1.3027318059812172,42.078179669831606,1,b,0.5209298999998282,incorrect,v
349,4F4K,350,2,48.84360803128766,34.125415674482845,1.3806122984543232,38.33363593721088,1,v,0.589027600000918,correct,v
350,4F4K,351,2,62.2549176555964,47.24303194178435,1.8246851268373967,49.887962767126,1,v,0.5527041999994253,correct,v
351,4F4K,352,1,41.15160908919313,56.44803855906832,1.176538289492198,57.79490528577752,1,n,0.4850637999988976,incorrect,c
352,4F4K,353,2,40.9192794348854,26.327190407838263,1.1708679537164788,31.823358740989477,1,b,0.7758343999994395,incorrect,v
353,4F4K,354,1,73.23574536568188,57.685405194825954,2.2927393650487478,58.813359126351735,2,c,1.2142002000000502,incorrect,n
354,4F4K,355,2,49.501775927176894,60.58933714368076,1.3996375523703013,61.14624474955488,2,v,1.8380410999998276,incorrect,b
355,4F4K,356,1,58.52849016154032,37.6622042756379,1.688631702620862,41.41453084355573,2,n,0.5993730000009236,correct,n
356,4F4K,357,2,42.99709678698165,26.715937926004177,1.222566468371446,32.13552040280983,1,v,0.9033009000013408,correct,v
357,4F4K,358,2,34.5792062301723,54.11191410230345,1.0262457069885866,55.837582005946736,2,v,0.8061782000004314,incorrect,b
358,4F4K,359,2,51.87945378475481,38.99008516057717,1.4705783121288525,42.58346298661196,1,b,0.8077771999996912,incorrect,v
359,4F4K,360,1,42.23235663734337,56.35048969710657,1.2032785873772232,57.714047628117385,1,c,3.071289399998932,correct,c
360,4F4K,361,1,36.8650130938746,46.609248857389694,1.0762031188177106,49.32921619917684,1,c,3.544404600001144,correct,c
361,4F4K,362,1,46.84935768676834,31.41769804538736,1.3245301929294475,36.02027854855818,2,n,0.8608107999989443,correct,n
362,4F4K,363,2,51.28484154092712,37.07550437975542,1.4525071307508304,40.899834975312366,1,b,0.8985890000003565,incorrect,v
363,4F4K,364,2,52.31257834210594,39.7382046130302,1.483883006444339,43.24404846455904,1,v,0.7394831000001432,correct,v
364,4F4K,365,2,70.55018857924755,59.41602825635872,2.168211747871366,60.21391098661564,1,v,0.5223769000003813,correct,v
365,4F4K,366,2,64.44485695796737,48.27263399765364,1.9096995891107973,50.79319233050634,1,v,0.49664929999926244,correct,v
366,4F4K,367,2,60.795732565048354,49.52664548670068,1.7701504411365094,51.89070516284465,1,v,0.47376190000068163,correct,v
367,4F4K,368,2,75.5454977020319,63.57403166511237,2.4055469061858887,63.44851991019393,1,v,0.56340309999905,correct,v
368,4F4K,369,1,45.80435704383743,28.48789438490276,1.2960583858285546,33.57695843154178,2,c,0.9157900000009249,incorrect,n
369,4F4K,370,1,63.07531149542936,46.55944090929589,1.8560805797218296,49.2852622606869,2,n,1.1108721000000514,correct,n
370,4F4K,371,1,51.01187144606736,66.42244399404703,1.444285687567623,65.5423732740628,1,n,1.3095649999995658,incorrect,c
371,4F4K,372,1,69.49552241335746,55.160688760109295,2.1211779732129465,56.72154062094546,2,c,0.6378939999995055,incorrect,n
372,4F4K,373,2,56.66732261230906,41.10234947091904,1.6245269511190017,44.451269020915525,1,v,0.9032714999993914,correct,v
373,4F4K,374,2,26.706702566437077,39.68685249261734,0.8712756185478878,43.19866604750102,2,b,1.7677423000004637,correct,b
374,4F4K,375,1,40.96830840422604,56.3857995831673,1.1720622959943805,57.743325066126445,1,n,0.557414200000494,incorrect,c
375,4F4K,376,1,49.47337564786848,63.046715170014615,1.3988112163592274,63.04944329859836,1,n,1.5773245000000315,incorrect,c
376,4F4K,377,1,49.48918771859756,65.77936181175082,1.399271224980062,65.07909652563754,1,c,0.6604895000000397,correct,c
377,4F4K,378,1,59.92735738544449,45.50269832972575,1.738473073065592,48.35146037607117,2,c,0.9761089000003267,incorrect,n
378,4F4K,379,2,60.704149920382754,52.62670262662227,1.76678256118325,54.57260675300253,1,v,1.6486750000003667,correct,v
379,4F4K,380,1,37.85232182575917,53.00251622132398,1.0985264863985853,54.89405971332851,1,c,2.4958041999998386,correct,c
380,4F4K,381,1,46.29185759681408,36.14469326710688,1.3092637243453091,40.08591640213143,2,n,1.0550100999989809,correct,n
381,4F4K,382,2,58.63707301548063,40.38264194172672,1.6924488005250071,43.81398911694664,1,v,1.3707716999997501,correct,v
382,4F4K,383,1,53.09145931704255,67.51308255463672,1.508112214420084,66.31485764966116,1,c,0.9275596999996196,correct,c
383,4F4K,384,1,44.81869402771714,58.12917425691399,1.2697643873541025,59.1752397315002,1,c,1.1824373999988893,correct,c
384,4F4K,385,2,47.243731430615625,43.66379011700819,1.3354370234183106,46.72242232796056,1,v,1.6255065000004834,correct,v
385,4F4K,386,1,60.76529977834559,48.67758740179508,1.7690305876535717,51.14826271398413,2,n,3.538567300000068,correct,n
386,4F4K,387,1,63.76017079999163,46.8081067531839,1.882702600674276,49.50464185708188,2,n,0.9508584000013798,correct,n
387,4F4K,388,1,46.85812777560485,65.103773905808,1.3247717680319062,64.58635260734175,1,c,1.2672574999996868,correct,c
388,4F4K,389,1,58.63213792648858,48.94871778201676,1.6922751264639089,51.38565687440533,2,n,0.9577745000005962,correct,n
389,4F4K,390,2,52.863595981584034,40.60121629755585,1.500983252018863,44.00745443859499,1,b,1.5152242000003753,incorrect,v
390,4F4K,391,1,44.6793779549036,30.35389499213581,1.2660912077945543,35.125179520084984,2,n,1.4434416999993118,correct,n
391,4F4K,392,1,41.9756099994146,46.49365408154091,1.1968715263799856,49.22719847103935,1,n,1.2920555999990029,incorrect,c
392,4F4K,393,2,56.78910797105309,67.93684603306325,1.6286462067876206,66.61040899066815,2,v,0.7332714000003762,incorrect,b
393,4F4K,394,2,42.97813664197431,58.230153947538376,1.2220845480502802,59.25732715552565,2,b,0.8925595999990037,correct,b
394,4F4K,395,1,60.00438207194185,40.25384740282924,1.741259787524844,43.7000250622261,2,c,1.5587140999996336,incorrect,n
395,4F4K,396,2,31.90669090948574,51.85633751030916,0.9707695269856778,53.91098124840812,2,b,2.026025600000139,correct,b
396,4F4K,397,1,43.26982735058659,33.02619740127104,1.2295196742563952,37.3889240514642,2,n,1.0428541000001132,correct,n
397,4F4K,398,2,47.87917868295439,51.02926285594881,1.3532002609837366,53.196891150759946,2,v,0.8247297999987495,incorrect,b
398,4F4K,399,2,45.181804014780056,32.58163516559205,1.279388233885502,37.0089366377108,1,b,1.1875006999998732,incorrect,v
399,4F4K,400,2,38.39472940191087,49.2755546784488,1.11098695891574,51.67144531009663,2,b,0.9533841000011307,correct,b
