,condition,trial,sub_task,x,y,xt,yt,cat,resp,rt,acc,correct_resp
0,2F4K,1,2,43.0825494523978,58.80454904166274,1.2247408247357576,59.93560559998509,2,v,3.2169295000001057,incorrect,b
1,2F4K,2,2,57.47654991030857,42.75794611854354,1.6520948273572549,46.07850574106821,1,v,4.224395700000059,correct,v
2,2F4K,3,1,46.84702690816254,58.38391553546427,1.324465998243741,59.594020976453805,1,c,1.6925577000001795,correct,c
3,2F4K,4,1,46.78759898466097,55.13109665026842,1.3228302752120706,56.89813630938664,1,c,2.0213779000000613,correct,c
4,2F4K,5,2,44.71835149047664,54.206952417418975,1.267117704380292,56.11640709473639,2,b,1.661861300000055,correct,b
5,2F4K,6,2,40.77304128157791,52.195588318467536,1.1673128263383237,54.39448771822196,2,b,1.492402399999719,correct,b
6,2F4K,7,1,50.217112329029625,39.75690794764621,1.420612780713186,43.40965796167833,2,c,1.7103738999999223,incorrect,n
7,2F4K,8,1,49.47148573580808,63.76515945745261,1.398756244695079,63.82060326187323,1,c,2.0749778999997943,correct,c
8,2F4K,9,1,58.1444603742917,45.73006800277216,1.675200538601197,48.72225945655791,2,c,1.7346803000000364,incorrect,n
9,2F4K,10,2,51.41075433876384,66.06199478544222,1.456315188625415,65.51828228121315,2,v,1.3462008000001333,incorrect,b
10,2F4K,11,2,58.546918355742186,46.98719495364698,1.6892789162421222,49.8365621505265,1,b,2.0494368999998187,incorrect,v
11,2F4K,12,1,74.25727675843892,52.71866936702492,2.341963031586812,54.84480842303863,2,n,1.71036230000027,correct,n
12,2F4K,13,2,43.013829096948754,58.02702218170741,1.2229919204534718,59.302857319868906,2,v,1.2005563999996411,incorrect,b
13,2F4K,14,1,26.18282080266414,33.868941608873165,0.8618356153057329,38.24160645157087,1,c,2.6464759999998932,correct,c
14,2F4K,15,1,43.5655421862684,61.02678787358464,1.2371035512648407,61.71017250125762,1,n,2.7131890999999086,incorrect,c
15,2F4K,16,1,59.3185586578609,45.1138377408864,1.7166033985200666,48.1748950097457,2,c,5.0,incorrect,n
16,2F4K,17,1,52.577812544335295,70.19567508646935,1.492089811273619,68.38667696306447,1,n,2.0901340000000346,incorrect,c
17,2F4K,18,1,56.59215041103339,47.05225657196938,1.6219895360637526,49.894128880025086,2,c,1.0441656999996667,incorrect,n
18,2F4K,19,1,49.71473715501082,32.66084204785344,1.4058494575024616,37.20153296205029,2,n,1.6132871999998315,correct,n
19,2F4K,20,2,33.38631315563583,21.360488098777104,1.0011022915108774,28.07138437778697,1,v,1.0784395999999106,correct,v
20,2F4K,21,1,31.37780660377107,42.33809326994475,0.960151652950386,45.70469504881184,1,n,2.373348299999634,incorrect,c
21,2F4K,22,2,48.2187261617334,40.468919037301,1.362788600649926,44.04187893180664,1,b,1.7582462000000305,incorrect,v
22,2F4K,23,2,69.33499791645332,53.90986112690405,2.114109257703671,55.86377503153168,1,v,0.8000329000001329,correct,v
23,2F4K,24,1,40.75926505862935,55.9598217396344,1.1669784758733106,57.59355016613598,1,c,1.516165600000022,correct,c
24,2F4K,25,2,47.15852569485379,61.45214838484878,1.3330729863954378,62.04375721207692,2,v,0.9517475000002378,incorrect,b
25,2F4K,26,1,47.57258902989849,62.79996816441764,1.3446005743158789,63.08697620631169,1,n,1.1399068999999145,incorrect,c
26,2F4K,27,1,49.780016378318784,64.95228970350614,1.4077591142439831,64.70675882238723,1,c,1.1514078000000154,correct,c
27,2F4K,28,1,58.19556704871139,40.097758707858894,1.676981776519067,43.71220013739018,2,n,1.03671630000008,correct,n
28,2F4K,29,1,62.61915659433063,52.4351656299292,1.838558011019156,54.60094687073754,2,n,0.860265100000106,correct,n
29,2F4K,30,1,71.86046951044197,54.78142535114144,2.228100156245817,56.603101724552566,2,n,0.6907826999999997,correct,n
30,2F4K,31,1,43.0874557620969,54.91401609462414,1.2248657838745058,56.71508456349057,1,c,0.884255899999971,correct,c
31,2F4K,32,2,67.21583760260249,54.41832947300705,2.022970284272158,56.29576746950099,1,v,0.7206258999999591,correct,v
32,2F4K,33,1,62.36518214433008,43.611281439489375,1.8288737212096424,46.83824625152636,2,n,1.3219401999999718,correct,n
33,2F4K,34,2,36.18464039993557,42.84241474725029,1.061084250980329,46.15371421268678,2,b,0.9821187999996255,correct,b
34,2F4K,35,1,58.8506962441465,47.56670486146889,1.699983669277458,50.348898625247045,2,n,0.6910955000003014,correct,n
35,2F4K,36,2,38.28463184028592,25.20230913303891,1.108446358690447,31.0299122295702,1,v,0.7393588999998428,correct,v
36,2F4K,37,1,62.38151651382143,49.75108508105016,1.82949502867201,52.26992936263454,2,n,0.7454200999995919,correct,n
37,2F4K,38,1,66.77950679175972,52.79323294422296,2.0046983989841114,54.90886282544047,2,n,0.6665260999998281,correct,n
38,2F4K,39,1,43.14572391938968,63.4084094107596,1.2263507947566448,63.550787036709735,1,c,0.7094824000000699,correct,c
39,2F4K,40,2,55.55358707245196,34.13312466048192,1.5873360754879065,38.47019624295245,1,v,1.0488575000003948,correct,v
40,2F4K,41,2,68.7322430440128,48.10175756262837,2.0877765203857046,50.821032924953805,1,v,3.865892999999687,correct,v
41,2F4K,42,1,33.761806422083886,51.0655007798307,1.0089496582410895,53.4161672950581,1,c,1.3218394000000444,correct,c
42,2F4K,43,1,56.522165935260965,74.54201197379831,1.6196307937138696,71.11334812501207,1,n,0.612478700000338,incorrect,c
43,2F4K,44,1,42.74938321625661,57.030271191801646,1.2162851481050343,58.483392647545976,1,c,1.8560309000004054,correct,c
44,2F4K,45,1,51.33818200900751,38.25918597820148,1.4541191220369531,42.083350262057856,2,c,1.0790856999997231,incorrect,n
45,2F4K,46,1,68.34980060823239,53.49533793171122,2.071238975147407,55.510257068705926,2,n,0.7878383000002032,correct,n
46,2F4K,47,2,36.690766747580845,51.14592402842473,1.072310713302171,53.48602145227774,2,v,0.9821099000000686,incorrect,b
47,2F4K,48,2,35.84612847598936,47.087390553456046,1.0536413383926335,49.9252108103615,2,b,1.0113493999997445,correct,b
48,2F4K,49,2,35.85297249226615,53.2044566288961,1.053791300472451,55.261490897342654,2,v,1.8744846999998117,incorrect,b
49,2F4K,50,2,56.39320219344464,44.26007007190765,1.6152932070259645,47.41565986819504,1,v,1.182372000000214,correct,v
50,2F4K,51,2,75.15338128920578,60.934498433775815,2.386012231309462,61.637527791580325,1,v,0.7029285000003256,correct,v
51,2F4K,52,1,48.39745510348144,39.49823432601687,1.3678629151803672,43.18021010621077,2,c,1.1581068999998934,incorrect,n
52,2F4K,53,1,51.7869795366687,61.927337319327286,1.467753183765471,62.41398312329281,1,n,1.6377793000001475,incorrect,c
53,2F4K,54,1,56.121901911598,43.362608543099554,1.6062061372993692,46.61686680503237,2,n,0.7271606000003885,correct,n
54,2F4K,55,1,40.67356158402829,28.62816338574107,1.1649005930221727,33.804107790610466,2,c,0.7150821999998698,incorrect,n
55,2F4K,56,1,33.74177740451598,53.2931577593106,1.0085295265676653,55.3374089767821,1,n,1.0063754000002518,incorrect,c
56,2F4K,57,2,46.19474270703497,24.85724969895016,1.306622403074316,30.757175347062365,1,v,1.5283696000001328,correct,v
57,2F4K,58,2,60.71321746970686,49.77304274895145,1.7671157271958144,52.28914409258138,1,b,1.752698600000258,incorrect,v
58,2F4K,59,2,30.47411096574285,44.04122809400319,0.9422771269710376,47.22092701472016,2,b,0.9092626999999993,correct,b
59,2F4K,60,2,52.21844081054565,66.16144218794267,1.4809810948392872,65.5901893347359,2,v,0.8303510999999162,incorrect,b
60,2F4K,61,2,48.95143326762136,36.201962496789605,1.3837113288984215,40.27279772619795,1,v,0.8850297999997565,correct,v
61,2F4K,62,2,34.8443988684138,26.67476890873808,1.031920598290596,32.20799895991792,1,v,1.2794931999997061,correct,v
62,2F4K,63,2,53.15465590711716,41.237719616819135,1.5100953819853784,44.72539274674409,1,v,0.781810299999961,correct,v
63,2F4K,64,2,62.35295177515211,54.00836309274223,1.828408655009159,55.94760549656802,1,b,1.2552067000001443,incorrect,v
64,2F4K,65,2,51.40265362471658,62.8506841136384,1.4560698935558911,63.12580950790888,2,b,0.9639015000002473,correct,b
65,2F4K,66,1,23.33126575996556,44.04463833508613,0.8122174751440525,47.22396185780968,1,c,0.8000499999998283,correct,c
66,2F4K,67,2,58.82453220519039,43.89370699626684,1.699059017699391,47.089636842075215,1,v,0.6294238999998925,correct,v
67,2F4K,68,2,41.94818244295725,54.35918257541298,1.1961890972970302,56.24561200107408,2,v,0.5269133000001602,incorrect,b
68,2F4K,69,1,52.4293550527791,38.45004016964776,1.4874907031610611,42.25203805374351,2,c,0.8668574999996963,incorrect,n
69,2F4K,70,1,56.246747954570566,46.76701586893919,1.6103814272155892,49.641664749284864,2,n,0.9214192000004005,correct,n
70,2F4K,71,2,46.2374003658934,65.19393331022783,1.307781945025238,64.88488287836694,2,b,0.836464800000158,correct,b
71,2F4K,72,2,51.04096220188892,42.9210674639853,1.4451596367749535,46.22374443003318,1,v,0.8007307999996556,correct,v
72,2F4K,73,2,55.81664099927234,59.47830168311039,1.5960426784431023,60.47907641563685,2,v,0.7455796000003829,incorrect,b
73,2F4K,74,2,44.4418484719589,36.23380667295452,1.2598530390122789,40.30070058270879,1,v,0.9821108000001004,correct,v
74,2F4K,75,2,48.99255942659801,55.15633394861624,1.3848951772636302,56.919393974173865,2,v,1.0127299999999195,incorrect,b
75,2F4K,76,2,48.341776443662056,68.14665942154932,1.3662801128738915,66.9963855983899,2,b,0.9881739000002199,correct,b
76,2F4K,77,1,68.68644401984234,53.54670605887817,2.085789143827933,55.55412909161563,2,c,1.0540910999998232,incorrect,n
77,2F4K,78,1,34.28767958840173,44.02491240972636,1.0200432950056677,47.20640723235693,1,c,0.9578027000002294,correct,c
78,2F4K,79,1,41.30734524919813,52.795297670744695,1.180354617125141,54.910636046661374,1,c,2.949251500000173,correct,c
79,2F4K,80,2,51.98266893633197,30.772647779639595,1.4737380021124364,35.59525899445551,1,v,0.7818436999996266,correct,v
80,2F4K,81,2,26.24452285966684,41.18836198488046,0.8629421102605633,44.68148898289919,2,v,3.0590609999999288,incorrect,b
81,2F4K,82,1,53.25896201371637,48.240529106418506,1.5133743101659818,50.9433326385695,2,n,1.0624980000002324,correct,n
82,2F4K,83,1,36.36001527355642,47.22996521693619,1.0649608965145072,50.05130744262606,1,c,0.8127057000001514,correct,c
83,2F4K,84,1,54.12691017430837,34.57932222642065,1.5409363865128696,38.85715211821152,2,n,0.9214047999998911,correct,n
84,2F4K,85,1,53.23925737237981,67.05655634460324,1.512754337367361,66.23120255934144,1,n,1.3099671999998463,incorrect,c
85,2F4K,86,1,58.75785899241458,41.93411050554055,1.696705022686053,45.345069112437166,2,c,0.7272324999999,incorrect,n
86,2F4K,87,2,61.8255424277538,50.821103009901016,1.8084657466862988,53.20368153410237,1,v,0.8418255000001409,correct,v
87,2F4K,88,2,70.13331116117054,55.0365866289168,2.14949735466962,56.81848577184473,1,v,0.7194669000000431,correct,v
88,2F4K,89,2,24.177330289001727,41.281203430777495,0.8266335987021343,44.7640738374385,2,b,1.3037141999998312,correct,b
89,2F4K,90,2,66.24871885424182,46.59433377168083,1.9826933539282927,49.48872505371178,1,b,1.2793828000003487,incorrect,v
90,2F4K,91,2,28.687570992694788,45.59299583327336,0.9079137335126606,48.600560930090055,2,b,0.8368401999996422,correct,b
91,2F4K,92,2,64.56239381908247,43.1703220591983,1.9143728141910132,46.4456706939658,1,v,1.0063587999998163,correct,v
92,2F4K,93,1,42.04932353589574,28.9386503598962,1.1987075336253128,34.0610434249216,2,c,2.068428600000061,incorrect,n
93,2F4K,94,2,33.26499673766827,51.9949400050053,0.99857998961179,54.22131365638924,2,v,1.0063977999998315,incorrect,b
94,2F4K,95,1,23.44544513768244,36.6454193083632,0.8141482089018384,40.661747717389545,1,c,0.7810310999998364,correct,c
95,2F4K,96,1,47.37285664659564,33.58827522332534,1.3390276015209843,37.99919164102224,2,c,1.728574899999785,incorrect,n
96,2F4K,97,1,51.81394759086302,35.257846023513665,1.468576508452455,39.44758299162017,2,c,0.7629019000000881,incorrect,n
97,2F4K,98,2,52.79580633326642,60.968870295441945,1.4988688874224023,61.664594322974175,2,v,2.463329199999862,incorrect,b
98,2F4K,99,1,38.61429153520309,23.949106745514207,1.1160709516086085,30.045720648704723,2,n,0.5998724999999467,correct,n
99,2F4K,100,1,47.608539607104525,31.3362678226158,1.3456061348475858,36.072068720277706,2,n,0.6725671000003786,correct,n
100,2F4K,101,1,43.06191998164316,62.26738260978247,1.2242155508034092,62.6773073710091,1,c,0.6908168999998452,correct,c
101,2F4K,102,1,49.796468510621736,37.69020292248467,1.408240808588913,41.58110586868357,2,c,0.9274969000002784,incorrect,n
102,2F4K,103,1,62.90414313964445,39.28562342728672,1.8494858902797184,42.99172831096365,2,n,0.7818593000001783,correct,n
103,2F4K,104,2,53.18811169728866,63.69201948316598,1.5111463111963652,63.76541629429308,2,v,0.5330977000003259,incorrect,b
104,2F4K,105,1,59.55056955970786,42.50519152065786,1.7249052150414284,45.85346447462312,2,n,0.7275462000002335,correct,n
105,2F4K,106,2,71.42928574726677,59.31827664713395,2.2082118275285096,60.35041092090336,1,v,1.0428095000002031,correct,v
106,2F4K,107,1,35.45472951133285,49.67271183611993,1.0451006466773638,52.20132917228944,1,c,0.9882109999998647,correct,c
107,2F4K,108,2,59.944227235735326,50.11567760350654,1.7390830340965944,52.58869685739682,1,v,3.0955411999998432,correct,v
108,2F4K,109,2,54.16561459519792,39.22616181976183,1.542177086505104,42.939033268400514,1,v,1.2005684999999175,correct,v
109,2F4K,110,2,39.50478470796864,52.286531338868365,1.136930086701012,54.47289973995058,2,b,1.4615341999997327,correct,b
110,2F4K,111,2,48.036203910725575,39.91722125024216,1.3576260168447434,43.551926191272656,1,v,0.8600196000002143,correct,v
111,2F4K,112,1,46.76804555252567,61.99795505257072,1.3222925188581816,62.468779483560986,1,c,1.4979346000000078,correct,c
112,2F4K,113,2,51.204967198358304,39.56309160593884,1.450096605601973,43.23772647238636,1,v,0.8849798000001101,correct,v
113,2F4K,114,2,53.37339544161589,72.9366792448543,1.5169797877657196,70.14287948019573,2,v,1.6860932999998113,incorrect,b
114,2F4K,115,2,51.82681132859218,69.64904493934279,1.4689693962643902,68.02206700945099,2,b,1.0489032000000407,correct,b
115,2F4K,116,1,30.58677396140381,46.400160625934376,0.94448724507999,49.31666599639131,1,c,2.098750000000109,correct,c
116,2F4K,117,1,25.06315046881905,36.52946108167582,0.8420013865075647,40.55996457751508,1,c,2.8831245999999737,correct,c
117,2F4K,118,1,36.9521990306139,53.364196698532,1.078156023934476,55.39817272800366,1,c,0.7953129000002264,correct,c
118,2F4K,119,2,63.17413250293205,43.52679924169787,1.8598986077964488,46.76303938904379,1,v,0.8667691999999079,correct,v
119,2F4K,120,1,58.93989236354573,41.57693925555402,1.703139692921959,45.027194226251154,2,n,2.1426950000000033,correct,n
120,2F4K,121,1,54.59534355386295,39.28640282890921,1.556019679425484,42.992419073021,2,n,2.0332515000000058,correct,n
121,2F4K,122,2,51.81693799470753,41.72893723580461,1.4686678328126137,45.16245808226802,1,v,1.4122631000000183,correct,v
122,2F4K,123,1,54.05492227257498,36.50349300074935,1.5386314130799148,40.5371783415877,2,n,1.4316189000001032,correct,n
123,2F4K,124,1,46.23675045916224,60.3700634742871,1.3077642712163935,61.19119879404007,1,c,1.2977061000001413,correct,c
124,2F4K,125,2,42.13254177151073,59.75958001896184,1.200783662344967,60.70459440574714,2,b,2.068450500000381,correct,b
125,2F4K,126,2,50.00457607980468,66.61010602628129,1.4143481409608452,65.91289546249975,2,b,1.4499464999998963,correct,b
126,2F4K,127,1,49.692944167518526,38.274195946788616,1.4052125096149513,42.09661308998376,2,c,1.746827100000246,incorrect,n
127,2F4K,128,2,50.0382365823704,32.26896835732369,1.415338461158904,36.86613659314846,1,v,5.0,incorrect,v
128,2F4K,129,2,30.698750571051008,49.87391898452927,0.9466890348524896,52.37739143835648,2,v,0.6483545000000959,incorrect,b
129,2F4K,130,1,44.612310846008754,27.79043896803584,1.2643267206807605,33.11519740448553,2,n,1.7831562999999733,correct,n
130,2F4K,131,2,72.54660707388324,57.94968814539808,2.260118180138349,59.23960656186289,1,b,2.379503300000124,incorrect,v
131,2F4K,132,1,39.289820992839,48.81776176928794,1.1318593000532793,51.45131695284963,1,c,0.9594939999997223,correct,c
132,2F4K,133,2,62.18447713586992,43.98792215850148,1.822014340366097,47.17348783986508,1,v,0.9092603999997664,correct,v
133,2F4K,134,1,50.97483323483127,47.75496768142325,1.4431737443912191,50.515126731743024,2,c,1.0364865000001373,incorrect,n
134,2F4K,135,2,66.24615604704131,48.63444325589844,1.9825876948957168,51.290122463351686,1,v,0.6786509999997179,correct,v
135,2F4K,136,1,49.34354660773972,59.62870686148729,1.3950399121713228,60.59976735935265,1,c,1.297557599999891,correct,c
136,2F4K,137,2,42.89892414571904,33.59369387904082,1.2200732147807245,38.003867446243504,1,v,1.3948199999999815,correct,v
137,2F4K,138,1,62.372451964179554,47.4656278880019,1.829150215973512,50.259607475089,2,n,1.7103698000000804,correct,n
138,2F4K,139,1,61.184073997829046,48.17983055612301,1.7845028678632688,50.88984692855701,2,n,0.6179821000000629,correct,n
139,2F4K,140,1,50.322112739677365,32.99227790875541,1.4237179668689603,37.48597837842411,2,n,0.48448050000024523,correct,n
140,2F4K,141,1,55.84774654259359,68.29806842365262,1.5970753672521258,67.10128995818691,1,c,0.5815840999998727,correct,c
141,2F4K,142,1,46.747870137330665,67.2340972123185,1.3217378859429352,66.35699671871217,1,c,0.6972894999998971,correct,c
142,2F4K,143,2,60.923787573431895,78.9175742362832,1.7748703304775488,73.52710625400826,2,v,1.1823905999999624,incorrect,b
143,2F4K,144,1,50.26525289888542,64.67292642867837,1.422035604295241,64.4998682142014,1,c,0.7999149000002035,correct,c
144,2F4K,145,1,56.853159800989545,47.08094445833984,1.6308168790899402,49.91950840269955,2,n,0.6971002000000226,correct,n
145,2F4K,146,2,51.04377102242279,42.70510464948655,1.4452440478076531,46.03145740252828,1,v,1.2676460000002407,correct,v
146,2F4K,147,2,54.65899256234666,40.99071102503831,1.558080503311313,44.50570483825444,1,v,0.7697067999997671,correct,v
147,2F4K,148,1,39.50911207208926,53.48050249318723,1.1370323979662025,55.49758324019645,1,c,0.9208921000004011,correct,c
148,2F4K,149,2,30.777951087687747,45.37730841204349,0.9482494485439158,48.40899814415922,2,v,1.1825738999996247,incorrect,b
149,2F4K,150,2,61.35501736482361,41.82198096876268,1.7908574695644364,45.245266643602136,1,v,0.5330262000002222,correct,v
150,2F4K,151,2,53.97664331981419,64.2934423671645,1.5361289199102832,64.2171967912286,2,b,1.0973244000001614,correct,b
151,2F4K,152,2,60.40385876212699,51.89126568964559,1.7557844749468134,54.13174319734539,1,v,0.6543512999996892,correct,v
152,2F4K,153,2,63.00911532105396,54.01691107185669,1.85352742248023,55.95487706859559,1,v,0.7265654000002542,correct,v
153,2F4K,154,1,43.20681606867792,60.71821794214737,1.2279097107934709,61.46691539182776,1,n,1.073091100000056,incorrect,c
154,2F4K,155,1,52.58744291647344,33.797269303114234,1.4923886440544818,38.17965887244005,2,n,0.6786784000000807,correct,n
155,2F4K,156,2,36.85621464558962,49.358363508606494,1.0760062362252092,51.925913792705366,2,b,1.079205400000319,correct,b
156,2F4K,157,2,63.38088435245077,51.38050994058749,1.8679120535338023,53.68958208482897,1,v,0.7575435999997353,correct,v
157,2F4K,158,1,52.30874713878548,43.67446656707601,1.4837647937059122,46.894492014874096,2,n,1.328282500000114,correct,n
158,2F4K,159,1,47.54982510279707,61.68806509587985,1.343964241370305,62.22788777616085,1,c,0.746126799999729,correct,c
159,2F4K,160,2,44.01188503171758,54.87036595605616,1.2486391022948464,56.6782334272447,2,b,1.4918687999997928,correct,b
160,2F4K,161,1,47.92009826725421,60.721482959667554,1.35435218752578,61.469494823664064,1,c,3.186307200000101,correct,c
161,2F4K,162,2,58.68423563089762,42.119141471857525,1.69410943142224,45.50977442411816,1,v,1.4372435999998743,correct,v
162,2F4K,163,2,57.67171260022639,62.7257835468892,1.6588131371795125,63.03011683476527,2,b,0.6122027999999773,correct,b
163,2F4K,164,1,30.73038570131972,51.85023576986265,0.9473120040081444,54.09627788866768,1,c,1.2187668000001395,correct,c
164,2F4K,165,2,79.27282668668711,66.99122817785572,2.599411072587776,66.18480187836728,1,b,1.0184041000002253,incorrect,v
165,2F4K,166,2,53.99773457205571,36.8092948351381,1.5368027834933866,40.80568154107406,1,v,0.9947555999997348,correct,v
166,2F4K,167,1,57.704492987856014,72.30129829465174,1.6599442509596545,69.74672580831779,1,c,1.1338393000000906,correct,c
167,2F4K,168,1,47.23763657630366,68.35971533420415,1.3352677822805314,67.14390486694991,1,c,1.5221785999997337,correct,c
168,2F4K,169,1,55.75152227684104,48.79298657903432,1.5938829304436215,51.4295391979405,2,n,0.8910811999999169,correct,n
169,2F4K,170,1,50.49124897418353,58.58468009525865,1.4287341258117747,59.75727184381142,1,c,1.7773383000003378,correct,c
170,2F4K,171,1,46.562283863124605,57.79111514648463,1.316646920237854,59.10973574082509,1,c,0.5816076999999495,correct,c
171,2F4K,172,2,50.02449492375104,31.38050031243354,1.4149340863141149,36.10958761792833,1,v,0.6303527000000031,correct,v
172,2F4K,173,1,48.58173685967918,57.590116178005005,1.3731146648195935,58.94478216155154,1,c,0.6361787000000731,correct,c
173,2F4K,174,2,52.09414165433677,35.42931753463405,1.4771581039310262,39.59715356424244,1,b,0.739180000000033,incorrect,v
174,2F4K,175,1,56.70472107536784,67.64557485468926,1.625790803273082,66.64680027227776,1,c,0.714388500000041,correct,c
175,2F4K,176,1,50.985179462985855,40.50694077303017,1.4434842676283024,44.075663793779896,2,n,1.1034715999999207,correct,n
176,2F4K,177,1,53.50822219961019,71.28155460826306,1.521238826084801,69.0969957519191,1,c,0.605780699999741,correct,c
177,2F4K,178,1,39.40177045554661,51.51286411620114,1.134497251350643,53.8043003645497,1,c,0.9396037000001343,correct,c
178,2F4K,179,2,53.23254446641628,41.36714455479822,1.512543185282139,44.84052847958748,1,v,1.370495199999823,correct,v
179,2F4K,180,2,37.25432728856156,45.47490225943741,1.084950948431708,48.49568584651833,2,v,0.7029594000000543,incorrect,b
180,2F4K,181,2,66.58987733295642,53.61766275917645,1.9968089697699944,55.61470175308978,1,v,0.6361821000000418,correct,v
181,2F4K,182,2,33.141479564981395,44.11643900427187,0.9960184604724706,47.28785663465238,2,b,1.1643699000001106,correct,b
182,2F4K,183,2,61.29176429659735,71.3945970829526,1.7885034842429388,69.16985643955867,2,v,0.7211477000000741,incorrect,b
183,2F4K,184,2,67.17361559465516,44.55638686944128,2.021194932308231,47.67926221624104,1,v,0.721036599999934,correct,v
184,2F4K,185,2,62.19973656686846,44.14504829021774,1.822592577197851,47.3133146330645,1,v,0.5390793000001395,correct,v
185,2F4K,186,1,40.31140114291847,31.93967978419922,1.1561607767801882,36.58510025948924,2,n,0.926868900000045,correct,n
186,2F4K,187,2,60.36078443840288,38.16649651952061,1.7542125134564512,42.00146454477207,1,v,0.8789226000003509,correct,v
187,2F4K,188,2,51.19430351748163,68.75357615073422,1.4497750895642372,67.41483168572572,2,b,0.866726799999924,correct,b
188,2F4K,189,1,46.61266564174896,60.61487246151916,1.3180270408907329,61.38520996667146,1,c,1.0306543000001511,correct,c
189,2F4K,190,2,42.15108211548755,58.50479252128552,1.2012466964645967,59.69235848745209,2,v,0.824288599999818,incorrect,b
190,2F4K,191,1,56.754732002156,44.23608273729288,1.627482420590805,47.39431713002416,2,n,1.388688699999875,correct,n
191,2F4K,192,1,56.14700002045527,66.54383739569785,1.607044635875727,65.86540799839267,1,c,0.9456889000002775,correct,c
192,2F4K,193,2,43.88585068185323,59.70391125813149,1.245370940152876,60.660026500116544,2,v,0.7515098999997463,incorrect,b
193,2F4K,194,1,36.33274202834845,51.83818711644334,1.0643570952067654,54.08586148123315,1,c,1.6254414999998517,correct,c
194,2F4K,195,1,36.4468408862148,52.26183436927806,1.066885407300511,54.45161063747624,1,c,0.9640140999999858,correct,c
195,2F4K,196,1,42.22724125987156,33.60246569640235,1.2031505998958951,38.011437090380085,2,n,0.7027627000002212,correct,n
196,2F4K,197,2,46.990956448493726,55.604603539889,1.328435971091189,57.29614550810431,2,v,0.8364503000002514,incorrect,b
197,2F4K,198,2,52.11546555160452,67.51470036451865,1.4778132476313048,66.55489088898511,2,v,1.0117731000000276,incorrect,b
198,2F4K,199,2,49.20452289599597,59.44403686169251,1.391012791671802,60.45154841234747,2,b,1.1581114000000525,correct,b
199,2F4K,200,2,50.86516285240022,40.046252738003126,1.4398862912149115,43.66646913352688,1,v,0.8235383999999613,correct,v
200,2F4K,201,1,44.86074297308212,58.66118941824916,1.2708751335884827,59.81938174776887,1,c,2.3731142000001455,correct,c
201,2F4K,202,2,37.77197616437216,46.52408031646408,1.096692665439021,49.42648286369976,2,b,1.7836398999997982,correct,b
202,2F4K,203,2,65.5461083456817,60.12568326719614,1.9539360499757328,60.99688314932145,1,b,1.4261877999997523,incorrect,v
203,2F4K,204,2,52.090943711298486,30.24377490695206,1.4770598771344243,35.150042863989576,1,v,0.7332973000002312,correct,v
204,2F4K,205,1,57.44575235084588,40.34280460366676,1.6510371360569838,43.92983389251013,2,c,1.4483377999999902,incorrect,n
205,2F4K,206,1,60.61904574094721,45.07546870362721,1.7636586657992128,48.14079406077648,2,n,0.7270615000002181,correct,n
206,2F4K,207,2,54.16543636130634,37.39425073206339,1.5421713707916684,41.32028391138269,1,b,1.4433444000001145,incorrect,v
207,2F4K,208,2,44.85156617415375,60.01819465804956,1.270632640493069,60.9112132950582,2,b,0.6300731999999698,correct,b
208,2F4K,209,2,40.17872384369395,64.21622689416806,1.152975386797826,64.15945208513588,2,b,0.6240251999997781,correct,b
209,2F4K,210,1,43.12272960195474,62.47124061361442,1.2257645511364248,62.83451696909317,1,c,1.8744315999997525,correct,c
210,2F4K,211,1,59.65896619001568,41.32384023981995,1.7287976134302947,44.802003335686855,2,n,0.7696807000002082,correct,n
211,2F4K,212,2,46.604619511083904,33.37389316832942,1.31780653419279,37.81433936022683,1,b,1.3515917000004265,incorrect,v
212,2F4K,213,2,46.00152820342004,34.08846240783466,1.301383210266416,38.43152377179406,1,v,0.5942888999998104,correct,v
213,2F4K,214,1,68.15613618075588,60.80801069588944,2.062914581804069,61.5378108446463,2,n,1.1040432999998302,correct,n
214,2F4K,215,2,49.38901417429251,62.00509052592547,1.3963595063244625,62.474313072295054,2,b,1.2551899000000049,correct,b
215,2F4K,216,1,45.71464599101338,61.360459374353695,1.2936428570677254,61.9720236139824,1,c,1.4858328000000256,correct,c
216,2F4K,217,1,61.96355903857419,77.471075317003,1.8136634527720144,72.76760224383736,1,c,1.5464735999998993,correct,c
217,2F4K,218,1,68.36176468528737,55.84058439337462,2.0717543344874016,57.49383371554816,2,n,1.097403299999769,correct,n
218,2F4K,219,2,51.27718314785673,55.29736794805696,1.4522758347833178,57.03809743092228,2,v,2.415820000000167,incorrect,b
219,2F4K,220,2,46.43048219141949,62.70896312721384,1.313043275630723,63.01721545156887,2,b,0.5390597999999045,correct,b
220,2F4K,221,1,36.47784250780536,26.432227615648635,1.067573408024776,32.01240236306383,2,n,2.0382689000002756,correct,n
221,2F4K,222,1,54.49938940906838,70.27237351327068,1.5529180326606935,68.43746239348665,1,c,0.8606924999999137,correct,c
222,2F4K,223,2,58.86171434068024,47.676856800175926,1.700373205448331,50.446171400377565,1,b,1.255201500000112,incorrect,v
223,2F4K,224,1,75.2448618720083,63.6434408620057,2.3905554270198417,63.728724631784544,2,n,0.8418327000003956,correct,n
224,2F4K,225,1,55.20319039965601,39.9563432633344,1.5758123119526122,43.586652054121984,2,c,0.7272351999999955,incorrect,n
225,2F4K,226,1,30.455630711050667,52.3090235866545,0.9419150925421712,54.49228516417935,1,c,1.4484169999996084,correct,c
226,2F4K,227,2,53.08113363754717,68.68963825464648,1.5077884326526003,67.37100849484085,2,b,0.7574046999998245,correct,b
227,2F4K,228,2,57.60357292694791,49.65986798410566,1.6564643883114174,52.19008437312445,1,b,1.1398527999999715,incorrect,v
228,2F4K,229,1,62.48636141171809,72.65254989410968,1.8334880235992856,69.96656036408565,1,n,1.7346738999999616,incorrect,c
229,2F4K,230,2,73.4214471847837,63.05724593774164,2.30161003372685,63.28365117151409,1,v,0.8053848999998081,correct,v
230,2F4K,231,2,52.92260440447801,38.80802707187747,1.5028261574354216,42.56872165122538,1,v,0.6907580000001872,correct,v
231,2F4K,232,2,47.68243007092969,60.40953207814349,1.3476752599920234,61.22252156260291,2,v,0.6665326000002096,incorrect,b
232,2F4K,233,2,36.442151469508886,47.88408086831145,1.0667813764516234,50.62906410045184,2,b,0.7944984999999178,correct,b
233,2F4K,234,2,35.040214712764886,41.40221164377523,1.0361310173564555,44.87172679795823,2,v,0.9942249999999149,incorrect,b
234,2F4K,235,1,41.74998643478207,53.42324519702347,1.1912693043916522,55.44865479834833,1,c,1.9351444999997511,correct,c
235,2F4K,236,2,46.51432725940415,63.86709463101474,1.3153345754988095,63.89740472234727,2,b,0.7393270000002303,correct,b
236,2F4K,237,1,55.1880874807631,49.846268280222496,1.575317495763117,52.353206891791146,2,c,1.1702420999999958,incorrect,n
237,2F4K,238,2,79.28869167111024,63.17855397612386,2.600268767768528,63.37610404820344,1,b,1.8256892999997945,incorrect,v
238,2F4K,239,1,58.77898839311913,43.26832602298613,1.69745067376869,46.53292660261571,2,c,0.9886283000000731,incorrect,n
239,2F4K,240,1,76.61570251749039,60.293585571484726,2.4596807498494067,61.13045723364911,2,n,0.9214311999999154,correct,n
240,2F4K,241,1,60.029929685408696,43.90284394720876,1.7421850735162805,47.09776894815423,2,n,1.036489900000106,correct,n
241,2F4K,242,2,33.24765800002652,51.80733858755311,0.9982200175793292,54.05918826233171,2,v,0.7575572999999167,incorrect,b
242,2F4K,243,1,26.300685328567685,41.88117057983273,0.8639504994771054,45.29794820193517,1,c,1.3886277000001428,correct,c
243,2F4K,244,1,62.83569730506744,45.64919869226325,1.8468554058563085,48.650464320290126,2,n,1.230901299999914,correct,n
244,2F4K,245,1,74.00901066112078,56.177290552989824,2.3299036894275496,57.7751142278015,2,n,0.6546806999999717,correct,n
245,2F4K,246,2,47.02914765576968,60.582347693502655,1.3294913859197277,61.35947158475987,2,v,0.7757237000000714,incorrect,b
246,2F4K,247,2,49.580469373329535,26.476398316183765,1.4019297721251578,32.04797937892795,1,b,1.8074445999995987,incorrect,v
247,2F4K,248,1,28.23261443524348,37.53724930991899,0.8993648673829273,41.446270942284734,1,c,1.7531071999997039,correct,c
248,2F4K,249,2,28.648505165227142,41.02427870302738,0.907176488333994,44.53555563652542,2,v,0.5876465999999709,incorrect,b
249,2F4K,250,1,23.73576513483269,37.469177220996514,0.819078115865155,41.38628810531058,1,c,0.7218907999999828,correct,c
250,2F4K,251,1,49.14554473139607,66.78021900361962,1.3893078763764706,66.03451399109056,1,n,0.7211892000000262,incorrect,c
251,2F4K,252,1,35.16294547540801,54.8132006682192,1.0387787194935838,56.62995046332812,1,c,0.7272832999997263,correct,c
252,2F4K,253,2,44.56415572777534,56.940434625025766,1.2630613112642088,58.409093632644456,2,v,0.6726011999999173,incorrect,b
253,2F4K,254,1,60.64559011262936,44.76043866144589,1.764632429469323,47.86073114648001,2,n,0.6846911999996337,correct,n
254,2F4K,255,2,43.54991421625506,62.22058798785629,1.2367015894733082,62.641151178855125,2,b,0.6361298000001625,correct,b
255,2F4K,256,1,51.52211006746399,40.2236038666655,1.4596913063132666,43.82395487344613,2,n,0.970001499999853,correct,n
256,2F4K,257,2,50.92437061644821,39.2641337410126,1.4416601577895434,42.97268314771832,1,b,0.6179655999999341,incorrect,v
257,2F4K,258,2,42.48479282039465,55.5243096502204,1.2096115200443314,57.22877875338952,2,b,1.4979408999997759,correct,b
258,2F4K,259,1,52.75911092240327,40.33090299984278,1.4977255973573795,43.919261345961374,2,n,1.1088138000000072,correct,n
259,2F4K,260,1,57.02175466651041,41.37313035611059,1.6365442823435326,44.84585381570997,2,n,0.8121683000003941,correct,n
260,2F4K,261,2,58.8988675303652,46.92258099834865,1.701687385430066,49.779380404318765,1,b,0.8307346000001417,incorrect,v
261,2F4K,262,2,38.56045395117147,59.00363159833742,1.114822185783522,60.09666733260425,2,v,1.1520288000001528,incorrect,b
262,2F4K,263,1,34.60185264069616,50.438744653856176,1.026729099265686,52.870644037972966,1,c,1.0301453000001857,correct,c
263,2F4K,264,2,36.4503949434199,52.888065352750765,1.0669642578915104,54.99027863947114,2,b,0.8789490000003752,correct,b
264,2F4K,265,1,37.409793349516974,44.39054971307266,1.088464081522952,47.53174484053117,1,c,0.8115599000002476,correct,c
265,2F4K,266,1,47.80238924408329,37.017604403480334,1.351041206559311,40.98879206533022,2,n,0.8424955000000409,correct,n
266,2F4K,267,1,33.50571881207518,42.85377478762247,1.0035910878173109,46.163828884181335,1,c,0.8551057999998193,correct,c
267,2F4K,268,1,66.30730395752767,79.22584083940114,1.9851102280492696,73.68394340586278,1,n,0.8121577000001707,incorrect,c
268,2F4K,269,1,34.20968463381864,49.19108222537756,1.0183902689618487,51.77918197452642,1,c,0.8478187999999136,correct,c
269,2F4K,270,1,44.61099868526944,35.83900134390809,1.2642922232186296,39.955069870589405,2,n,0.8607365000002574,correct,n
270,2F4K,271,2,33.67503608761936,51.73932345322185,1.0071308130480745,54.000359769745934,2,b,1.417960000000221,correct,b
271,2F4K,272,2,57.87173247940342,74.55231323513328,1.665727001225283,71.1194324049831,2,v,0.9457016000001204,incorrect,b
272,2F4K,273,1,53.54642089686463,68.56329144100914,1.522447655903869,67.2842295644581,1,c,1.6557662000000164,correct,c
273,2F4K,274,1,46.86523688113761,65.62534294522317,1.3249676231128251,65.2009477099108,1,c,0.787879299999986,correct,c
274,2F4K,275,2,51.17412165424285,64.5809197035026,1.4491667900341805,64.43150588659852,2,b,0.9706897999999455,correct,b
275,2F4K,276,1,71.49038147402216,61.58840854866058,2.211019032902655,62.15018457475648,2,c,1.990038899999945,incorrect,n
276,2F4K,277,1,51.51202465100756,65.46086762297047,1.4593852114553003,65.08074328079344,1,c,1.0548813000000337,correct,c
277,2F4K,278,2,45.26914844411705,36.831198725932985,1.281714068013963,40.82492792901707,1,v,1.2369717000001401,correct,v
278,2F4K,279,1,50.52491779465609,33.01376918422078,1.4297347663071278,37.50444664396328,2,c,1.1641303999999764,incorrect,n
279,2F4K,280,2,55.23990832499842,39.45807673703647,1.5770159478953183,43.14460232057711,1,b,0.9455779999998413,incorrect,v
280,2F4K,281,2,56.19316924010586,46.2332213799942,1.608588239113867,49.168670419591685,1,v,0.745206799999778,correct,v
281,2F4K,282,2,42.463937743858416,54.87123094970507,1.2090870626035104,56.6789638286672,2,b,2.129128999999921,correct,b
282,2F4K,283,2,66.35089055159898,50.01542755364936,1.986910263691501,52.50110721830544,1,b,0.9820598000001155,incorrect,v
283,2F4K,284,2,40.7494553548172,54.94551147433143,1.166740451647141,56.74166519143076,2,v,0.9084305000001223,incorrect,b
284,2F4K,285,1,52.75144315693285,32.45543753145354,1.4974868089901257,37.025605430988215,2,c,1.0371488000000681,incorrect,n
285,2F4K,286,2,42.61727454080759,34.64920472549381,1.21294844885194,38.9178528668504,1,b,1.7653641000001699,incorrect,v
286,2F4K,287,1,46.306792606258206,36.21469258826897,1.3096703987058465,40.28395171112233,2,c,0.6543847000002643,incorrect,n
287,2F4K,288,2,56.96273632292958,36.61686799425178,1.6345370621102298,40.636681603227984,1,b,0.6240482999996857,incorrect,v
288,2F4K,289,2,31.86335200004193,45.86908240319091,0.9698950565130322,48.84564692618004,2,v,0.8000061999996433,incorrect,b
289,2F4K,290,2,51.54133156055961,64.44864375662817,1.4602748611241128,64.3330296682532,2,b,0.5261924000001272,correct,b
290,2F4K,291,2,43.3483563994732,24.43376343971909,1.231529077865725,30.424249939735525,1,v,0.7080471999997826,correct,v
291,2F4K,292,2,65.6334220214618,51.76087053533845,1.9574869108237196,54.01899937823456,1,b,0.7211195999998381,incorrect,v
292,2F4K,293,2,48.875419223377065,35.18734082404556,1.381525868912305,39.38612416342932,1,v,0.6415565000002061,correct,v
293,2F4K,294,2,39.891173504202925,48.39654263342785,1.146101808810273,51.08074831980475,2,v,0.6301056000002063,incorrect,b
294,2F4K,295,1,47.52435655075301,36.65007769174896,1.3432526614451965,40.665837769500136,2,c,0.6717647999998917,incorrect,n
295,2F4K,296,2,47.33065583418816,64.86111166521907,1.3378530650278748,64.63934719888495,2,b,0.45481480000034935,correct,b
296,2F4K,297,1,53.35369280701991,46.86657784103574,1.5163584012140203,49.72981017704596,2,n,1.255194500000016,correct,n
297,2F4K,298,2,53.119022610333225,63.43012672386839,1.5089768556604966,63.56725767027684,2,b,0.812154499999906,correct,b
298,2F4K,299,2,32.85979625335817,53.94107870820011,0.9902013954884108,55.89035023964909,2,b,1.7346198999998705,correct,b
299,2F4K,300,2,73.76321066958313,60.413407896691325,2.3180253119161507,61.22559655312037,1,b,1.4734511000001476,incorrect,v
300,2F4K,301,2,75.71019444221471,53.6683673317971,2.413799480445019,55.65796505253836,1,v,0.5876589999998032,correct,v
301,2F4K,302,1,33.2753344311953,52.84133000972027,0.99879467372517,54.95016238750534,1,c,0.7091957000002367,correct,c
302,2F4K,303,1,35.68540024241239,25.41634322125082,1.0501256843589364,31.19973705856497,2,n,1.1762540999998237,correct,n
303,2F4K,304,1,59.99166857151406,73.56891398106592,1.7407995118510562,70.53033758427779,1,c,1.2248412000003555,correct,c
304,2F4K,305,1,58.11152973611309,45.95706244293273,1.6740537985559072,48.92371770111627,2,n,1.0973918999998205,correct,n
305,2F4K,306,2,56.83528320754608,41.46545552065545,1.6302107627967692,44.9279961965978,1,b,1.1156190000001516,incorrect,v
306,2F4K,307,1,52.31123209857916,64.12879337091464,1.4838414666897717,64.0939734532084,1,c,0.667008899999928,correct,c
307,2F4K,308,2,63.994657716495695,50.08042115919786,1.8919051106766849,52.55789817050872,1,b,0.8425492000001213,incorrect,v
308,2F4K,309,1,57.83581508486389,44.64984645284594,1.6644833654877518,47.7623844010036,2,c,0.6542582000001858,incorrect,n
309,2F4K,310,1,61.59862419439144,49.509832659870206,1.7999523638811878,52.05867557122019,2,n,0.5815892000000531,correct,n
310,2F4K,311,1,39.178708172962025,51.23119013912776,1.1292471284672103,53.56004470519096,1,c,0.8182366000000911,correct,c
311,2F4K,312,1,40.68152983410536,50.95110537321293,1.1650936273370205,53.31674731467282,1,c,0.59974050000028,correct,c
312,2F4K,313,2,42.6326753343886,56.31815912657151,1.2133369584053877,57.89251444192795,2,b,1.2302199000000655,correct,b
313,2F4K,314,1,75.8824629291665,57.73595609922846,2.422461753038977,59.06450566542672,2,n,1.0791902000000846,correct,n
314,2F4K,315,1,49.81511882924232,30.47470679321119,1.408787061939769,35.34417837227135,2,n,1.2845710999999937,correct,n
315,2F4K,316,1,56.32357297651534,66.05129803744636,1.612956118172194,65.51053969775191,1,c,0.8540497999997569,correct,c
316,2F4K,317,1,62.23252442706571,48.92888970269223,1.8238356525290436,51.54897107011771,2,n,1.5104135000001406,correct,n
317,2F4K,318,2,60.84736421807744,74.3707150550906,1.7720519838445676,71.01190410693327,2,b,1.2251243999999133,correct,b
318,2F4K,319,1,42.58269275745919,62.816754644031946,1.212076521499154,63.09983309748967,1,c,1.0306439000000864,correct,c
319,2F4K,320,1,67.75633050995526,50.40052721828515,2.045835171984773,52.83731683838299,2,n,0.9032833000001119,correct,n
320,2F4K,321,1,53.5827216509276,64.93042709438251,1.5235973138800376,64.69060491509579,1,c,2.458053199999995,correct,c
321,2F4K,322,2,66.0476385343999,76.99217612844814,1.9744203318716675,72.50766876215516,2,v,0.812507000000096,incorrect,b
322,2F4K,323,1,36.05567713218156,42.28786217544054,1.0582425366564956,45.65997543496496,1,c,0.6361923999997998,correct,c
323,2F4K,324,1,64.88706013519905,58.88073507598396,1.927340942730404,59.997288167641656,2,c,0.7943685999998706,incorrect,n
324,2F4K,325,2,33.77210645368508,44.00216067567785,1.0091657813870187,47.18615949647223,2,b,0.40583379999998215,correct,b
325,2F4K,326,1,64.79488336228725,49.72273488986734,1.9236502268848528,52.24511751734722,2,n,0.7756940999997823,correct,n
326,2F4K,327,2,47.67387904489953,56.36445633547103,1.347435646323159,57.93106216071549,2,b,0.6240410999998858,correct,b
327,2F4K,328,1,40.13905435259094,53.46391094687711,1.1520246851034126,55.4834074251004,1,c,1.3644630000003417,correct,c
328,2F4K,329,2,44.65893662214505,23.76200295273007,1.2655531503828432,29.900310116468187,1,b,1.2304022000002988,incorrect,v
329,2F4K,330,1,54.76876535608559,38.69170993358421,1.5616411353391089,42.46578682064843,2,c,1.2976829000003818,incorrect,n
330,2F4K,331,1,58.05566000766655,44.16609669193841,1.672110048430524,47.3320441396779,2,n,1.0844004000000496,correct,n
331,2F4K,332,2,58.86078287275576,40.68119480565407,1.7003402706759068,44.23052760413029,1,v,0.6048997999996573,correct,v
332,2F4K,333,1,41.805272091064296,47.36079912239489,1.192639614306459,50.166970092611415,1,c,1.2362457999997787,correct,c
333,2F4K,334,2,49.95602965360939,64.18347726639435,1.412921084640049,64.13493750085684,2,v,0.9940943999999945,incorrect,b
334,2F4K,335,2,47.10221069559102,60.1546733282669,1.3315128216369752,61.01996759149495,2,b,0.6789380000000165,correct,b
335,2F4K,336,2,42.38497179361625,58.72949923135012,1.2071033094150618,59.874786813931095,2,v,1.0488667999998142,incorrect,b
336,2F4K,337,1,47.20138529323198,55.52329208751689,1.3342616043482165,57.22792468573745,1,n,0.5754713999999694,incorrect,c
337,2F4K,338,2,42.54610738054887,51.13808235531596,1.2111547588645253,53.47921181718809,2,v,0.6422507000002042,incorrect,b
338,2F4K,339,2,58.731163395510734,45.04038169612917,1.6957634103053654,48.10960821604959,1,b,0.7575108999999429,incorrect,v
339,2F4K,340,2,52.53830164759111,74.22049820482312,1.4908644048011457,70.9225254226071,2,b,0.31450779999977385,correct,b
340,2F4K,341,1,38.7593207985981,55.04617572765794,1.1194418774521633,56.826570342702816,1,c,0.9213995999998588,correct,c
341,2F4K,342,2,40.91015365728079,56.76407615643517,1.1706457847933935,58.263030623263845,2,v,0.8727446999996573,incorrect,b
342,2F4K,343,2,39.68835041371361,27.119934711808824,1.1412782031732474,32.56853025668307,1,v,0.7393536999998105,correct,v
343,2F4K,344,2,57.04686612613875,66.99760768774459,1.6373990731225754,66.18933573548817,2,b,0.6483054999998785,correct,b
344,2F4K,345,1,52.46103844460527,41.21474749179409,1.4884710408892032,44.70495865112648,2,c,0.690784899999926,incorrect,n
345,2F4K,346,1,49.10322643816877,61.91933392843651,1.388085845202158,62.40776916746292,1,n,1.121684699999605,incorrect,c
346,2F4K,347,2,22.72809498206337,43.2943875789631,0.8020937907584162,46.55612959536005,2,v,0.8426997999999912,incorrect,b
347,2F4K,348,1,56.19006208576717,66.72560582433451,1.60848430923985,65.9955139539178,1,c,0.85499770000024,correct,c
348,2F4K,349,1,64.97581825144457,55.23416946498233,1.9309014689146329,56.98492460508667,2,c,0.9699622999996791,incorrect,n
349,2F4K,350,2,29.318298782399093,50.6596505879636,0.9199000130019592,53.06314361458857,2,v,0.7020821000000979,incorrect,b
350,2F4K,351,1,52.3652149236742,44.80029914348182,1.4855080752479892,47.89617439973178,2,n,3.210797300000195,correct,n
351,2F4K,352,1,47.709156873265954,62.53160039334497,1.3484244632590183,62.8809698206865,1,n,0.8971242000002349,incorrect,c
352,2F4K,353,2,55.47666455625925,42.09614695777278,1.5847990677560624,45.489304889756845,1,b,0.8425659000004089,incorrect,v
353,2F4K,354,2,42.571922956717785,55.30965708516662,1.211805105282017,57.04843342105829,2,b,0.9396317999999155,correct,b
354,2F4K,355,1,71.4754630031129,54.53482799047411,2.2103332350092333,56.39448123957772,2,n,1.030637100000149,correct,n
355,2F4K,356,2,47.2341025575648,60.78090441745005,1.3351696599224798,61.51641855419294,2,b,1.0973894999997356,correct,b
356,2F4K,357,1,72.37692830728336,54.651567077006106,2.252157697263314,56.49329851147344,2,n,0.8061044999999467,correct,n
357,2F4K,358,2,43.82836495117191,62.43093090195065,1.2438831353678648,62.803470425421686,2,v,0.9942553999999291,incorrect,b
358,2F4K,359,1,58.40736498117664,37.63000394394218,1.684383851656396,41.52802860685818,2,n,1.1701850999997987,correct,n
359,2F4K,360,2,67.33017782698627,56.02430509077971,2.0277858981701296,57.64742798086261,1,b,1.0427779000001465,incorrect,v
360,2F4K,361,1,45.01028844607422,36.94014542322325,1.2748333388227242,40.92068397486008,2,c,2.4651268000002347,incorrect,n
361,2F4K,362,2,56.71380943592512,40.33706643128227,1.6260980858704897,43.92473647567176,1,b,0.9699697999999444,incorrect,v
362,2F4K,363,2,27.70591291143369,42.40772524950444,0.8895683641695229,45.7666882111403,2,b,0.6475208000001658,correct,b
363,2F4K,364,2,66.49572715602903,79.37985094206343,1.9929034457418944,73.76163261687495,2,v,0.6111341000000721,incorrect,b
364,2F4K,365,1,47.098546449715926,59.82523081503371,1.3314113697496808,60.75711227237766,1,n,0.5997950999999375,incorrect,c
365,2F4K,366,2,50.190929445371935,37.77366510124179,1.4198395275822924,41.65471405864411,1,b,0.6232738000003337,incorrect,v
366,2F4K,367,1,28.621988995636908,47.28857927749202,0.906676419760168,50.10313075253323,1,c,0.6535873000002539,correct,c
367,2F4K,368,2,60.3823407415173,67.68638982076293,1.7549990167439833,66.67541254062168,2,v,0.8182359999996152,incorrect,b
368,2F4K,369,2,54.59182298261764,45.05262324587386,1.5559057701625425,48.12048888204219,1,v,0.8666563000001588,correct,v
369,2F4K,370,1,63.3650123006411,69.84787093791256,1.8672956508154368,68.15522487585605,1,c,0.8425131999997575,correct,c
370,2F4K,371,2,51.19613477453227,42.90028118364491,1.449830297934601,46.20523690920774,1,v,1.0117875000000822,correct,v
371,2F4K,372,1,64.06990634429597,49.951080002678935,1.894867788840783,52.44486174956573,2,c,0.8243360000001303,incorrect,n
372,2F4K,373,2,54.1275919759556,69.49184857963442,1.5409582335502088,67.91635672254314,2,b,0.9340500999996948,correct,b
373,2F4K,374,2,62.93044172660059,51.30491484848601,1.8504975836585285,53.62401710054268,1,b,1.7049204999998437,incorrect,v
374,2F4K,375,2,53.96817830668984,43.68244558834597,1.5358585466149806,46.90159458687519,1,v,0.9092585000003055,correct,v
375,2F4K,376,1,34.02895626934969,45.63057581111583,1.0145701977340862,48.63392939784702,1,n,1.108602400000109,incorrect,c
376,2F4K,377,2,37.35637122796481,54.68754008549506,1.0872555979633602,56.523728540185616,2,b,0.9820820999998432,correct,b
377,2F4K,378,2,50.50553209139166,34.65198972079137,1.4291585358332717,38.92027247693076,1,v,1.2431053999998767,correct,v
378,2F4K,379,2,43.02758411731538,64.19124530285283,1.2233417799389072,64.14075347483545,2,b,0.7332679000001008,correct,b
379,2F4K,380,2,43.73272628243898,50.657087496609606,1.2414118207525011,53.060911491921225,2,v,1.0127957000004244,incorrect,b
380,2F4K,381,2,58.53831098541709,40.25916617199074,1.6889765873167066,43.85554031297065,1,v,0.9457022000001416,correct,v
381,2F4K,382,2,68.30371770075253,49.672032796180815,2.069255125616936,52.2007346904545,1,b,2.3733321999998225,incorrect,v
382,2F4K,383,1,54.78584711367206,34.85026628718314,1.5621959368619558,39.092639047850966,2,n,1.0115538000000015,correct,n
383,2F4K,384,2,62.92040723018432,40.08474758751501,1.850111496363248,43.7006474055598,1,v,1.1277491000000737,correct,v
384,2F4K,385,2,28.654947908143605,51.15061513326302,0.9072980336972736,53.490095008266,2,b,1.989684699999998,correct,b
385,2F4K,386,1,48.70004152589781,64.7349904517862,1.376496790204481,64.54592015121186,1,c,0.7515018999997665,correct,c
386,2F4K,387,2,49.95886425110712,64.41175372202812,1.4130043700294754,64.30552541935076,2,b,0.8719624999998814,correct,b
387,2F4K,388,2,63.099121194329626,42.62262683476352,1.856999769025021,45.95802239993856,1,b,1.9167507000001933,incorrect,v
388,2F4K,389,2,49.24077956940853,55.85736131833753,1.3920619221880612,57.50787104617837,2,b,0.8234422999998969,correct,b
389,2F4K,390,1,39.37347988783848,57.03808675120298,1.1338300389829368,58.48985310292871,1,c,0.7868135999997321,correct,c
390,2F4K,391,2,38.27825244512176,57.89971301507725,1.108299326612113,59.198702471662585,2,b,1.0239639999999781,correct,b
391,2F4K,392,2,65.05669210380333,54.31535763007124,1.9341514452042072,56.208432865977805,1,b,0.7264445999999225,incorrect,v
392,2F4K,393,1,56.92161987146336,34.657650293477815,1.6331401423261696,38.92519052003098,2,n,1.1636553000003005,correct,n
393,2F4K,394,1,48.130726484068056,38.21644486882103,1.3602971115485996,42.04558781063607,2,n,1.036140499999874,correct,n
394,2F4K,395,1,52.964149394981,35.5282690881811,1.5041250156135235,39.68353034886245,2,n,0.8971412000000782,correct,n
395,2F4K,396,2,40.3700868633736,60.19423597512691,1.1575725417690548,61.05145640290554,2,v,1.461555099999714,incorrect,b
396,2F4K,397,1,44.86526419462117,53.9976113759587,1.2709946220037844,55.938458523411256,1,n,1.005726699999741,incorrect,c
397,2F4K,398,2,50.961375829917706,36.365289784091246,1.4427699447860134,40.4159554341606,1,v,1.8317334999997001,correct,v
398,2F4K,399,2,56.29247741931975,37.38318324616756,1.6119134953948826,41.31053600863673,1,v,0.7700942999999825,correct,v
399,2F4K,400,1,62.71140744390033,49.78487323669489,1.8420883064316027,52.29949584007554,2,n,0.8487901000003149,correct,n
