,condition,trial,sub_task,x,y,xt,yt,cat,resp,rt,acc,correct_resp
0,2F4K,1,2,41.71627819247024,46.1396052725566,1.1904345848606548,49.16119590604264,2,v,2.458300100000997,incorrect,b
1,2F4K,2,2,39.54112756995029,52.33047684641631,1.137789621995816,54.601481898901184,2,v,2.263058700000329,incorrect,b
2,2F4K,3,1,52.90401673389584,43.42086566847576,1.5022453976989822,46.73752112373093,2,c,2.810340800000631,incorrect,n
3,2F4K,4,1,40.594221339265886,44.58048538069392,1.1629802849372388,47.772369889757286,1,n,2.446092200001658,incorrect,c
4,2F4K,5,1,47.22267676191705,58.52870197112994,1.3348524709854426,59.817040693727165,1,c,1.4789154999998573,correct,c
5,2F4K,6,2,42.20988571976398,57.93712601308655,1.2027164632210878,59.33322602797136,2,b,1.176314000000275,correct,b
6,2F4K,7,1,48.68204524498525,43.88472018484244,1.3759817710000273,47.15158160580906,2,n,1.437291099999129,correct,n
7,2F4K,8,2,57.84979091307726,45.311484982090114,1.6649671665721948,48.4240119009321,1,b,0.709057699999903,incorrect,v
8,2F4K,9,2,50.26085568960587,34.74118904393437,1.4219055830064429,39.04513730884008,1,v,1.2188261999999668,correct,v
9,2F4K,10,1,59.285224519634376,44.29554083206553,1.7154139232812495,47.51818422089725,2,c,2.0517089999993914,incorrect,n
10,2F4K,11,2,54.71711619431501,61.93288784092628,1.5599648110594602,62.53110528587664,2,v,1.885663500001101,incorrect,b
11,2F4K,12,1,49.57877752526822,61.970375134243824,1.4018804517134642,62.56027997048027,1,n,1.061093999998775,incorrect,c
12,2F4K,13,1,54.73592926594399,42.00100046089006,1.560575199329232,45.46986464295546,2,n,1.6496817000006558,correct,n
13,2F4K,14,2,56.03586477575397,43.04216897143207,1.603335055918813,46.39941593812083,1,v,0.9821244999984629,correct,v
14,2F4K,15,2,44.46665903661655,27.239661045603004,1.260503191588468,32.695474494309146,1,b,0.9023200999999972,incorrect,v
15,2F4K,16,1,63.65307819702622,48.085348163821735,1.8785146222916709,50.88692238834501,2,n,0.8657963000005111,correct,n
16,2F4K,17,2,71.71550354443997,53.88990825853193,2.221393700600869,55.94122990677874,1,b,2.5604822000004788,incorrect,v
17,2F4K,18,1,54.026461673030106,63.90646054442789,1.5377210872847735,64.04405944674761,1,n,0.7458256000008987,incorrect,c
18,2F4K,19,1,53.27735366405777,71.25281154490743,1.5139532012011758,69.20986493835709,1,n,1.8136102000007668,incorrect,c
19,2F4K,20,1,37.74711274609414,53.1571957055051,1.0961257996779323,55.31371476609047,1,n,0.8910642999999254,incorrect,c
20,2F4K,21,1,35.30419724660201,51.72115587274487,1.04183435560244,54.07388055936204,1,c,0.9032131000003574,correct,c
21,2F4K,22,2,50.53859277809937,65.04596989654452,1.4301413881955798,64.89530875449366,2,v,1.249204900001132,incorrect,b
22,2F4K,23,2,67.9369880591573,56.776363675063415,2.053535149842174,58.37444277998004,1,v,1.8196117999996204,correct,v
23,2F4K,24,2,61.68061773503887,40.57391586328143,1.803023914368116,44.19688814177368,1,b,1.097491500000615,incorrect,v
24,2F4K,25,1,50.26381398294839,67.07249587297056,1.4219930556132825,66.36601694604003,1,n,0.9942437000008795,incorrect,c
25,2F4K,26,2,47.9172096782256,33.46370890431607,1.3542708387459037,37.93600540165279,1,v,0.7211442000007082,correct,v
26,2F4K,27,2,55.66137790647177,40.83323857616879,1.5908979962143068,44.42803897003803,1,v,1.1095131999991281,correct,v
27,2F4K,28,2,73.74462503226104,64.36819547172509,2.3171296204672536,64.39102424326609,1,b,0.7944707999995444,incorrect,v
28,2F4K,29,1,53.965081258462206,33.47337627580427,1.5357596385015198,37.94436374079367,2,c,0.787981999999829,incorrect,n
29,2F4K,30,1,46.07143116738318,39.857385398035184,1.3032762650724026,43.55874812127458,2,c,0.7322761000013998,incorrect,n
30,2F4K,31,1,25.4756436718844,43.51603446240933,0.8492547633759239,46.82248219398016,1,n,0.40100879999954486,incorrect,c
31,2F4K,32,1,57.34365334526473,67.95179599565132,1.6475355554499451,66.98610610430899,1,n,2.6949714999991556,incorrect,c
32,2F4K,33,2,41.374998521740025,50.38119142948798,1.1820163206800691,52.90643728826494,2,v,1.0913864000012836,incorrect,b
33,2F4K,34,2,39.48888107012154,52.63665131687917,1.1365541582955363,54.86575628749232,2,b,0.7261060000000725,correct,b
34,2F4K,35,2,36.34547378495213,55.57101648476301,1.064638920452105,57.3663888592875,2,b,0.5391954999995505,correct,b
35,2F4K,36,1,45.19378741955011,61.067075687167566,1.2797070816736724,61.852777269929305,1,n,1.285573099999965,incorrect,c
36,2F4K,37,1,44.44061290959421,31.64826704743,1.2598206702796144,36.3769230177458,2,n,1.78921260000061,correct,n
37,2F4K,38,1,55.04026389729773,41.34562504768343,1.5704825543140346,44.88500899818372,2,c,0.799568200000067,incorrect,n
38,2F4K,39,1,50.106809994277214,37.461094699076256,1.4173580941645902,41.43317055102376,2,n,0.7695906999997533,correct,n
39,2F4K,40,1,40.61628143854417,52.79831803340859,1.1635138976233894,55.00506452478267,1,c,0.8785829999997077,correct,c
40,2F4K,41,2,52.39681018788269,46.90114516709762,1.4864843822381797,49.83783895086548,1,b,5.0,correct,v
41,2F4K,42,1,44.976471754183045,59.686302634316135,1.273937193257063,60.75378143826352,1,n,1.2431042999996862,incorrect,c
42,2F4K,43,1,47.39175854891235,71.13870888218143,1.3395540151355592,69.13585245870327,1,c,0.5876399999997375,correct,c
43,2F4K,44,1,56.20580212940119,45.73903263075084,1.6090108603730535,48.80476894098534,2,n,0.5149842999999237,correct,n
44,2F4K,45,1,46.198182281659015,37.85155181464908,1.3067158612035732,41.77839126732373,2,c,0.5572980000015377,incorrect,n
45,2F4K,46,2,59.304632203948174,48.81711813000496,1.7161063550788995,51.532907295977154,1,v,0.8183058000013261,correct,v
46,2F4K,47,2,74.09710582485728,58.51802591803596,2.33417572245866,59.80833929403288,1,v,0.5274508999991667,correct,v
47,2F4K,48,1,39.35253647664939,55.73597413068236,1.133336356715067,57.50505738450647,1,c,1.352635299999747,correct,c
48,2F4K,49,2,37.439996906687625,47.89530695363128,1.0891479227850491,50.71885510525945,2,v,1.5466701999994257,incorrect,b
49,2F4K,50,2,52.07625948647845,35.35360078351212,1.4766089259439574,39.57992782411549,1,b,1.0610091999988072,incorrect,v
50,2F4K,51,1,44.98942002720283,56.331564341213,1.2742802492809482,58.00387133203477,1,n,1.8924807000003057,incorrect,c
51,2F4K,52,2,45.167269640242175,58.118448721219295,1.2790016179169523,59.48187490363136,2,b,0.847632999999405,correct,b
52,2F4K,53,2,55.82355800512463,41.547255315459466,1.5962722619010834,45.0649072396326,1,v,0.8304023000000598,correct,v
53,2F4K,54,2,72.30581298549716,58.54086607597759,2.248829664340501,59.82695355766773,1,b,1.2673726000011811,incorrect,v
54,2F4K,55,2,47.71702352606621,35.991535262332825,1.3486450598737012,40.13892006590921,1,b,0.8066708000005747,incorrect,v
55,2F4K,56,1,62.108218268443416,50.658238694455534,1.819127355149713,53.14857373506074,2,c,1.2734572999997908,incorrect,n
56,2F4K,57,2,62.61340729294629,46.18812176912645,1.838338218367653,49.20434334876544,1,v,0.6108543999998801,correct,v
57,2F4K,58,2,60.107194812727954,70.64933681765493,1.7449864627961331,68.8160474235833,2,v,0.7154258000009577,incorrect,b
58,2F4K,59,2,63.82986587614428,52.47842971900323,1.8854331201458836,54.729259124518464,1,v,0.5455989999991289,correct,v
59,2F4K,60,2,36.034046621346334,50.31240880322374,1.0577666527278464,52.84626416835919,2,b,0.6786872000011499,correct,b
60,2F4K,61,2,39.8206877684979,47.59714500819145,1.144423186793978,50.45493462952748,2,b,0.6969033000004856,correct,b
61,2F4K,62,2,54.20780811186216,37.48293490501509,1.5435307702757592,41.452466851320295,1,v,0.5994488999986061,correct,v
62,2F4K,63,2,37.70943176411291,46.8951141474455,1.095267262330278,49.83248583141769,2,b,1.0428367999993498,correct,b
63,2F4K,64,1,73.51754991243052,60.21208919439167,2.306214170234516,61.174692942654616,2,n,1.267514699999083,correct,n
64,2F4K,65,2,45.95042880828488,63.030612188040976,1.3000011182501563,63.37850366586272,2,v,1.7650153999984468,incorrect,b
65,2F4K,66,1,48.72107574243957,33.23716442075637,1.3770989936579612,37.74029807632325,2,n,0.9518226000000141,correct,n
66,2F4K,67,2,68.8762912338779,54.48859558807487,2.094039617341544,56.45118422413184,1,v,0.9639169000001857,correct,v
67,2F4K,68,1,48.02061153406834,36.94472205647418,1.357185899199871,40.97744058699196,2,c,1.2855471999992005,incorrect,n
68,2F4K,69,1,55.96898964143908,70.61665823613902,1.6011069607601576,68.79455549988553,1,n,1.5101597999982914,incorrect,c
69,2F4K,70,1,35.95259276737583,50.77548701124247,1.055976539606803,53.25093294269376,1,n,0.6847899000003963,incorrect,c
70,2F4K,71,2,38.01533716627013,50.7560039434504,1.102256599663615,53.23392878427823,2,v,1.164002800000162,incorrect,b
71,2F4K,72,1,39.68959842004476,53.99749581348005,1.1413078215097214,56.03306029656744,1,c,0.4776404999993247,correct,c
72,2F4K,73,1,41.373136214736135,55.1678486196811,1.181970547292319,57.02656071235271,1,c,0.5454903999998351,correct,c
73,2F4K,74,1,41.74573403579254,60.28061997381248,1.1911639696893734,61.22933779622984,1,c,0.5937601000005088,correct,c
74,2F4K,75,2,59.09116968033763,49.61702517190267,1.7085057348705914,52.23668813307162,1,v,0.7636185999999725,correct,v
75,2F4K,76,1,53.80133028197535,30.47934526340115,1.5305391076772186,35.385227018390374,2,n,0.6789604000005056,correct,n
76,2F4K,77,2,36.70042083075888,54.95529665474881,1.072526002376439,56.84689050175888,2,v,2.6655661999993754,incorrect,b
77,2F4K,78,2,69.44418666217277,53.49096673638483,2.11891483039004,55.600015932205984,1,v,0.8000721000007616,correct,v
78,2F4K,79,2,26.24786097657367,38.875287904207255,0.8630020127668975,42.685755197499965,2,b,0.8609042000007321,correct,b
79,2F4K,80,2,44.19924045047434,38.26042839200941,1.2535132218096898,42.14042290975101,1,v,0.8789724999987811,correct,v
80,2F4K,81,1,62.50394356296513,54.40172506394158,1.834158488733856,56.37734959790267,2,n,3.4169914000012795,correct,n
81,2F4K,82,2,63.43278794060795,51.32205072899093,1.8699291882859213,53.7271545292951,1,v,0.7160239000004367,correct,v
82,2F4K,83,1,54.62324560539754,73.15088332127482,1.5569227546630269,70.40967373397935,1,n,1.564869900001213,incorrect,c
83,2F4K,84,1,52.37379544386807,40.892097002318295,1.4857731534987078,44.48051585745443,2,c,0.9093204000000696,incorrect,n
84,2F4K,85,2,59.59820534840905,49.43572871626844,1.7266146808781744,52.07740984543872,1,v,3.7013946999995824,correct,v
85,2F4K,86,1,35.085846963812884,44.98005939285682,1.0371146645340656,48.12865570108686,1,n,0.8304367000000639,incorrect,c
86,2F4K,87,1,51.534333794513984,41.26792511075574,1.4600623854843116,44.81569397722127,2,c,0.7100195000002714,incorrect,n
87,2F4K,88,1,29.969648966944817,42.95843604376119,0.9324443103557264,46.324654583861545,1,c,0.4312861999987945,correct,c
88,2F4K,89,2,61.67222353224835,48.64653403036324,1.802709219430528,51.38249473364464,1,v,0.7942047000015009,correct,v
89,2F4K,90,2,49.24298550806454,34.678736741980224,1.392125779210172,38.99070756856062,1,v,0.8668569999990723,correct,v
90,2F4K,91,2,74.86847099921805,51.73176453368848,2.37191799161178,54.08308480565921,1,v,0.7093542999991769,correct,v
91,2F4K,92,2,61.74443385698717,45.57263944444587,1.8054181495162904,48.6566233454771,1,v,0.8000836999999592,correct,v
92,2F4K,93,1,57.5899619395672,53.54110605921422,1.655995621352928,55.642959861519934,2,n,1.6558000999993965,correct,n
93,2F4K,94,1,64.09344013653245,75.7262315429822,1.8957953099748133,71.93963553794246,1,n,0.775002600001244,incorrect,c
94,2F4K,95,2,43.49589373200618,47.28995583992917,1.2353131523927174,50.18274025661623,2,b,0.7272414999988541,correct,b
95,2F4K,96,1,48.30366442352799,62.07176428626084,1.3651977413687144,62.63910421619412,1,c,1.8742750999990676,correct,c
96,2F4K,97,1,46.82187240104123,54.705838531986245,1.323773386641228,56.635583329141134,1,c,0.7147660999999061,correct,c
97,2F4K,98,2,36.93795842652428,48.99072631550668,1.077836802208859,51.68587197242172,2,b,0.6605042999999569,correct,b
98,2F4K,99,2,61.3904643871987,53.27205824605405,1.792177997420485,55.41232470817103,1,v,0.7272714999999152,correct,v
99,2F4K,100,1,50.13964843583632,58.421423947818376,1.4183262764473334,59.72955446066069,1,c,2.92563329999939,correct,c
100,2F4K,101,2,70.14884660161815,49.55518801728721,2.1501918628294274,52.18237682455232,1,v,0.5516031000006478,correct,v
101,2F4K,102,1,39.39206508734436,46.748179259685415,1.1342683131017188,49.70203787229392,1,n,1.2677447000005486,incorrect,c
102,2F4K,103,1,56.75399128923813,68.61402085430585,1.627457353173205,67.44561247453113,1,c,1.1702079999995476,correct,c
103,2F4K,104,1,58.60076427905353,76.94581066544335,1.691171451883098,72.62325330478376,1,c,0.678223099999741,correct,c
104,2F4K,105,1,31.87119119095038,50.43240127407548,0.970053173343634,52.95122241824645,1,c,0.7165392999995674,correct,c
105,2F4K,106,2,54.67518036765846,76.56709656214302,1.5586050663407125,72.41384390215012,2,v,0.951860499999384,incorrect,b
106,2F4K,107,1,31.42693485458937,39.08280707541989,0.9611330386071174,42.87003470651786,1,n,1.7285907999994379,incorrect,c
107,2F4K,108,2,39.9901410280086,45.80297534056663,1.148462882694356,48.86168582150697,2,v,1.3633928999988711,incorrect,b
108,2F4K,109,2,64.65045226239754,75.34485614147225,1.9178814793310917,71.72039010102684,2,b,0.7867509000006976,correct,b
109,2F4K,110,1,59.395966767038,48.67834998191661,1.7193687651784164,51.41055675952409,2,n,1.4668220000003203,correct,n
110,2F4K,111,1,66.93461179242082,50.33404579577871,2.011174626780282,52.86519530791988,2,n,0.461640499999703,correct,n
111,2F4K,112,1,38.583891305955866,54.95172711642273,1.115365644736076,56.84387020489351,1,n,0.32204509999974107,incorrect,c
112,2F4K,113,2,39.969249339265815,58.04102251060013,1.1479640638011823,59.41843877667237,2,b,1.5161995999987994,correct,b
113,2F4K,114,1,52.79882976931463,43.16448933279936,1.4989631251488111,46.50862866172775,2,c,0.6119426000004751,incorrect,n
114,2F4K,115,2,29.205904658009132,39.52798641358493,0.9177525606428985,43.26570512501093,2,v,0.7697227000007842,incorrect,b
115,2F4K,116,2,42.42260080367442,56.83128221108506,1.2080482051146344,58.42007771957877,2,b,1.2370512000015879,correct,b
116,2F4K,117,1,43.338083928580495,58.0961187737715,1.2312660390008978,59.46358558389431,1,n,0.8291933000000427,incorrect,c
117,2F4K,118,1,54.2826192083891,34.00487786048413,1.5459338372629852,38.40474074413624,2,c,0.3584969999992609,incorrect,n
118,2F4K,119,2,26.81187296946413,41.43149913860401,0.8731831459844626,44.96162290461562,2,b,1.3819677000010415,correct,b
119,2F4K,120,2,57.37957927484337,73.53838198566804,1.6487668210832076,70.64720897285467,2,v,0.6775992000002589,incorrect,b
120,2F4K,121,2,40.44259684367346,57.60380858551704,1.159319249231819,59.05916622501911,2,b,1.200376700000561,correct,b
121,2F4K,122,2,50.35136154152161,61.92971235851901,1.4245841522305036,62.52863319590743,2,v,1.3037674000006518,incorrect,b
122,2F4K,123,2,67.39217464988171,52.95260213892389,2.0304017806070367,55.137857009483234,1,v,0.5451467999992019,correct,v
123,2F4K,124,1,41.95174053610163,24.65258056249747,1.1962776047687305,30.619887744334147,2,c,0.9100918999993155,incorrect,n
124,2F4K,125,2,62.51919893068758,51.088046737359726,1.8347404246247137,53.523458398030186,1,v,0.7575923000003968,correct,v
125,2F4K,126,2,43.37634442370511,55.63566127734884,1.2322460297527833,57.42075742538864,2,v,0.436418399998729,incorrect,b
126,2F4K,127,1,24.918491243387766,40.45470016681364,0.8394723644334301,44.0906561585589,1,n,1.3645089000001462,incorrect,c
127,2F4K,128,2,37.62755945874482,47.93964659002047,1.0934041707458586,50.758078502552586,2,b,0.9213949000004504,correct,b
128,2F4K,129,1,38.41675680719501,58.28501603300639,1.1114959597413778,59.618151422799066,1,c,0.5937413000010565,correct,c
129,2F4K,130,2,41.0384651664741,55.66566657757733,1.1737734290340784,57.44598151854217,2,v,0.6119374999998399,incorrect,b
130,2F4K,131,1,61.0421891931134,44.92719580229113,1.7792456093060869,48.081530792724855,2,c,0.6181580000011309,incorrect,n
131,2F4K,132,2,38.29184391334908,49.7021770879757,1.1086126057914003,52.31144953762064,2,b,0.6908062000002246,correct,b
132,2F4K,133,2,51.16617865175203,59.5004259729992,1.4489274507864318,60.60428668021398,2,v,1.2301616999993712,incorrect,b
133,2F4K,134,2,37.05999529217362,54.71566004937717,1.08057548628599,56.64391167159138,2,b,0.8124530000004597,correct,b
134,2F4K,135,2,49.82083232957894,42.3783476312115,1.408954448323504,45.80672777904309,1,v,1.249178199999733,correct,v
135,2F4K,136,2,47.61258064495064,31.125635018980063,1.3457192122541326,35.93227174774967,1,v,0.8000303999997413,correct,v
136,2F4K,137,2,50.42220129270384,68.56714692365304,1.4266842125266606,67.41330271217502,2,v,0.6422953000001144,incorrect,b
137,2F4K,138,2,67.91893638709065,55.65221059816349,2.052764450863928,57.43467058581077,1,v,0.9032189999998081,correct,v
138,2F4K,139,2,57.26890550981806,73.67561032589417,1.6449767182482191,70.73071573304277,2,b,0.7211676000006264,correct,b
139,2F4K,140,1,30.742544080179226,44.8052563832952,0.9475515397528074,47.97281460725596,1,n,0.9156843000000663,incorrect,c
140,2F4K,141,1,73.7257598827699,57.657665434351415,2.316220812524844,59.10351830642844,2,c,0.3705900000004476,incorrect,n
141,2F4K,142,1,43.607534845365166,49.64765580417306,1.2381842777013092,52.26358475682856,1,n,1.4615926000005857,incorrect,c
142,2F4K,143,2,64.92063508781635,49.671495550019735,1.92868702711536,52.28451550681989,1,v,1.096468300000197,correct,v
143,2F4K,144,1,54.44393619464245,47.66153421100448,1.5511283682475012,50.5119527912123,2,c,0.8064940000003844,incorrect,n
144,2F4K,145,2,42.27898904146304,29.187148396528016,1.204445964809871,34.3014111197009,1,b,1.7288281000001007,incorrect,v
145,2F4K,146,2,64.5900064009532,45.15053111867957,1.915472338764144,48.280595077826405,1,v,0.8182574000002205,correct,v
146,2F4K,147,1,45.630972345186805,66.98190377839741,1.291393947284471,66.3014964666301,1,n,1.7529790999997203,incorrect,c
147,2F4K,148,2,57.111683633754886,41.45773599891378,1.639607516640578,44.98503189961272,1,v,1.467641499999445,correct,v
148,2F4K,149,2,52.26759761715395,66.56301646152049,1.4824957085237265,66.001644486566,2,b,0.6715380999994522,correct,b
149,2F4K,150,1,51.755025838437504,42.22924344876629,1.4667782466616104,45.67361318874429,2,c,0.927517699999953,incorrect,n
150,2F4K,151,1,66.35928178133587,56.64621706771548,1.9872569913375384,58.26619152232165,2,n,1.388707300000533,correct,n
151,2F4K,152,2,38.82976969022358,54.07185616086025,1.121082998355661,56.09648216419819,2,b,0.8546914999988076,correct,b
152,2F4K,153,1,59.868696576794456,48.919091517342615,1.73635374652633,51.622769361804814,2,c,2.3283151000014186,incorrect,n
153,2F4K,154,2,48.192512920333336,29.83171842363909,1.3620459619525045,34.840324938265354,1,b,3.162323300000935,incorrect,v
154,2F4K,155,1,53.41045517418589,38.94200406355445,1.5181492767709417,42.74498817671011,2,c,0.8877795999997034,incorrect,n
155,2F4K,156,2,55.16374756622348,39.15872004370036,1.5745203752963612,42.9374727897802,1,v,0.7104742999999871,correct,v
156,2F4K,157,1,36.88801038437901,49.87955324694939,1.0767178985985073,52.46707904880936,1,n,0.7821747999987565,incorrect,c
157,2F4K,158,1,36.66408818578078,24.39262121449078,1.0717159977244886,30.4153065838942,2,c,0.593709900000249,incorrect,n
158,2F4K,159,2,46.485057322482255,55.49335864595243,1.3145342390823358,57.30103157451754,2,b,1.8612044000001333,correct,b
159,2F4K,160,2,49.41001488574816,58.50609404935084,1.3969694262207493,59.798613039988815,2,b,0.6177774999996473,correct,b
160,2F4K,161,2,65.45821958152813,53.54055436688848,1.9503683064866524,55.64248743410474,1,v,2.0196840000007796,correct,v
161,2F4K,162,2,71.14538858347603,63.9271857397372,2.1952141065870503,64.0596916626424,1,v,1.3098492999997688,correct,v
162,2F4K,163,1,76.06499471316266,63.08952985948386,2.431674022166693,63.423574192851646,2,c,3.034871899999416,incorrect,n
163,2F4K,164,2,61.68797498777652,50.16298883215613,1.8032997796833816,52.71546951303287,1,v,1.188519900000756,correct,v
164,2F4K,165,1,42.22170141317909,32.393537608938914,1.2030120074882538,37.01432895453823,2,c,0.9084235000009357,incorrect,n
165,2F4K,166,2,49.737629732149614,33.62881592064491,1.4065188542441027,38.07883208834583,1,b,1.382691499999055,incorrect,v
166,2F4K,167,2,54.64590167196953,67.25956302211134,1.5576564243914095,66.49887572335433,2,v,1.3210620999998355,incorrect,b
167,2F4K,168,1,57.11477286711224,38.93613823032479,1.6397128464458854,42.73977982854421,2,c,0.5398230999999214,incorrect,n
168,2F4K,169,1,48.02030667919173,57.15071677712941,1.3571772956471446,58.68498669637233,1,n,0.4359170000006998,incorrect,c
169,2F4K,170,2,33.89093582674079,41.23328719594105,1.0116625006744064,44.7847959575736,2,v,0.7337683999994624,incorrect,b
170,2F4K,171,1,52.24208776545148,39.29489937887976,1.481709508756012,43.0584833544187,2,c,0.5997977000006358,incorrect,n
171,2F4K,172,1,40.26145593952777,59.550759965529096,1.1549606331403486,60.64480407740428,1,c,0.47356849999960104,correct,c
172,2F4K,173,2,47.01817730911917,62.43796076795488,1.329188134348708,62.92279110641849,2,b,0.9821275000012974,correct,b
173,2F4K,174,2,66.7125691921709,46.29436616983904,2.001909943759133,49.29881251637475,1,v,0.539140300001236,correct,v
174,2F4K,175,2,64.0493138395915,52.23523991527087,1.894056562914983,54.51916195485563,1,v,1.2724999000001844,correct,v
175,2F4K,176,2,59.254703437879314,68.40967118885962,1.714325550280818,67.30451488412051,2,v,0.9396718999996665,incorrect,b
176,2F4K,177,2,51.75097784923668,47.00004836159043,1.4666547849643377,49.92561158684946,1,v,0.775927299999239,correct,v
177,2F4K,178,2,35.459140242503075,51.22171916497384,1.0451965062166932,53.63985356241434,2,b,0.6604783999991923,correct,b
178,2F4K,179,2,48.23019217793782,55.37959282391258,1.3631135678543786,57.20519889211633,2,b,0.575528100000156,correct,b
179,2F4K,180,2,37.28827199263942,61.11223259369751,1.0857170425554596,61.88836641071996,2,b,0.48590750000039407,correct,b
180,2F4K,181,1,53.82683772341679,73.57266262944961,1.531351139833813,70.66809974471413,1,n,0.8729106999999203,incorrect,c
181,2F4K,182,2,75.3764666890251,65.53091270665914,2.3971064890181197,65.25237765727954,1,v,0.6726266000005126,correct,v
182,2F4K,183,2,43.1831533575588,60.3791281574138,1.2273056636872963,61.30779737605387,2,b,0.6351377000009961,correct,b
183,2F4K,184,1,60.27131121780985,47.590410076663744,1.7509517594144282,50.44896995502615,2,n,1.1521967000007862,correct,n
184,2F4K,185,1,49.60525751395973,33.2705622524268,1.402652589960779,37.76913021656499,2,c,0.8304165999998077,incorrect,n
185,2F4K,186,2,48.984791619155,33.42410331591236,1.384671497345431,37.90176854546732,1,v,0.9449688000004244,correct,v
186,2F4K,187,2,55.26136678248064,40.416843536687445,1.5777197947904715,44.05692702701868,1,v,0.5809167999996134,correct,v
187,2F4K,188,1,57.43267017268458,48.584781758686766,1.650588055196338,51.328017811898754,2,c,0.9036052999999811,incorrect,n
188,2F4K,189,2,48.84024105285252,32.12501771888485,1.380515639167828,36.78423368319533,1,b,1.0671137999997882,incorrect,v
189,2F4K,190,1,39.31704667065231,55.63368289571482,1.1325002746269748,57.41909403474486,1,n,0.7758127999986755,incorrect,c
190,2F4K,191,1,43.149632503342346,67.65319877797211,1.226450472575542,66.7767938975502,1,n,0.4798762999998871,incorrect,c
191,2F4K,192,1,47.717406176065445,34.45295090710125,1.348655791062268,38.7940972106281,2,n,1.2248939000000973,correct,n
192,2F4K,193,2,41.47452994349308,55.499607209744696,1.184465270595774,57.30629218383712,2,b,1.0792328999996244,correct,b
193,2F4K,194,2,38.63456636096824,33.489057839371995,1.1165415898411406,37.95792309519869,1,b,0.6109911999992619,incorrect,v
194,2F4K,195,1,79.0013300359533,67.8088551871512,2.584777148295472,66.88606980241691,2,c,1.9107143000001088,incorrect,n
195,2F4K,196,1,56.03205812642033,41.26637351298041,1.6032081456724765,44.814309880707015,2,c,0.6421109000002616,incorrect,n
196,2F4K,197,1,50.37997644969108,39.61085863920465,1.4254320751932048,43.3394096731148,2,n,0.8123182999988785,correct,n
197,2F4K,198,2,65.6740877725697,50.51199567184504,1.959142901997997,53.02080573922663,1,v,0.9275127000000793,correct,v
198,2F4K,199,2,38.660530226158336,56.36016628792644,1.1171445772029769,58.0277511851756,2,b,0.7643099999986589,correct,b
199,2F4K,200,1,62.56117314953966,75.63244210168807,1.836342538989729,71.88595758717467,1,c,3.046495099999447,correct,c
200,2F4K,201,1,45.57505230661793,58.32875081182386,1.2898931554956086,59.65388876338565,1,n,2.276017900001534,incorrect,c
201,2F4K,202,2,37.899936020550925,56.2664223679208,1.0996146863694387,57.94945825248251,2,b,2.185173500000019,correct,b
202,2F4K,203,1,22.364856948801645,36.30517587990587,0.7960581409351773,40.41441576433856,1,n,1.006418400000257,incorrect,c
203,2F4K,204,2,44.14169110856688,59.24705697053992,1.2520140335885002,60.39993653185185,2,b,0.8549598999998125,correct,b
204,2F4K,205,2,53.26830265297637,66.1904506707823,1.5136682861487076,65.7328760754706,2,v,2.9377391999987594,incorrect,b
205,2F4K,206,2,48.43733945069674,38.17299940952783,1.3689978525280573,42.06296760094581,1,b,0.7337840999989567,incorrect,v
206,2F4K,207,1,21.69145088203441,37.98522546636089,0.7849885557834201,41.896692855018976,1,n,1.0065543000000616,incorrect,c
207,2F4K,208,1,40.26364740915789,61.72958039240144,1.155013266276624,62.37259522640701,1,c,0.5223575999989407,correct,c
208,2F4K,209,2,37.35841886019761,51.802661607352334,1.087301893547855,54.14457985566049,2,b,0.47985159999916505,correct,b
209,2F4K,210,1,41.9578677271737,30.63549399398396,1.196430033831484,35.517104490047934,2,c,0.5452156000010291,incorrect,n
210,2F4K,211,2,59.39539687698272,39.28525704660786,1.7193483898670647,43.049913644944574,1,v,0.5512440000002243,correct,v
211,2F4K,212,1,36.50048794639948,42.36556562233551,1.0680762452927193,45.79531618403547,1,n,0.9157197000004089,incorrect,c
212,2F4K,213,1,65.06632578174509,77.15342560260989,1.9345389461947795,72.7369466837023,1,n,0.915496699999494,incorrect,c
213,2F4K,214,2,47.93224975506305,53.742470109125854,1.354694452655765,55.81525399396689,2,v,2.425727399999232,incorrect,b
214,2F4K,215,2,37.82811576377621,21.82939693175217,1.0979736812328318,28.44065008375484,1,b,0.6179990000000544,incorrect,v
215,2F4K,216,2,44.87317557218785,59.10114028495359,1.2712037336707591,60.28195313049552,2,b,0.8615303999995376,correct,b
216,2F4K,217,2,54.85407344779391,39.5060285705499,1.5644138389279405,43.2461788060572,1,b,1.1156522000001132,incorrect,v
217,2F4K,218,2,58.57804408986066,50.458774118219786,1.6903726414835465,52.97428160670249,1,v,0.6474361000000499,correct,v
218,2F4K,219,2,56.44714803610167,44.73361252033207,1.617106214841777,47.90893108708546,1,v,0.5208791999993991,correct,v
219,2F4K,220,1,50.78515963163829,68.07326928184399,1.4374928587181135,67.07088201722206,1,c,1.1571294000004855,correct,c
220,2F4K,221,1,42.61954264826197,58.032007580987965,1.2130056576636017,59.41104904970624,1,n,0.50269870000011,incorrect,c
221,2F4K,222,1,49.86847068873621,34.754556072283336,1.4103508668082143,39.05678985668091,2,n,0.618028900000354,correct,n
222,2F4K,223,2,68.80653597084529,55.42332361959518,2.091004373042921,57.24204846216743,1,v,0.7505379000012908,correct,v
223,2F4K,224,2,27.76360735927384,45.6739541473769,0.8906362396362245,48.74683328308347,2,b,0.6906949000003806,correct,b
224,2F4K,225,1,59.83378833673366,42.82317304019536,1.735093790867947,46.20388354500126,2,n,1.8682848999997077,correct,n
225,2F4K,226,1,59.12486896847942,44.70613856807452,1.7097034018062278,47.88443140592012,2,n,0.5573339000002306,correct,n
226,2F4K,227,1,55.32092626873512,38.95098336476866,1.5796750186973925,42.75296118084053,2,n,0.5518818000000465,correct,n
227,2F4K,228,2,29.130868699722235,49.09222744059869,0.916321681422057,51.77524897300544,2,b,0.5882732000009128,correct,b
228,2F4K,229,2,40.86697862457756,22.790990302856063,1.1695952511711385,29.172132793883183,1,v,0.8789708000003884,correct,v
229,2F4K,230,2,57.41617153581531,68.53010022170386,1.650021869385942,67.38774342785253,2,v,0.5466153999987,incorrect,b
230,2F4K,231,2,46.64210136772987,60.693812943087615,1.3188340505072442,61.55773116475925,2,b,1.3827039999996487,correct,b
231,2F4K,232,1,59.86281178387018,46.903340158357125,1.736141280479523,49.83978719665617,2,c,5.0,correct,n
232,2F4K,233,2,54.071703383603655,34.6326297693678,1.539168417422743,38.950536529469865,1,v,0.6785445000004984,correct,v
233,2F4K,234,1,58.27842187998699,74.45672793742227,1.6798735686846922,71.19987251864,1,n,0.5087537999988854,incorrect,c
234,2F4K,235,2,45.94919721667509,31.453306114768758,1.2999678253520135,36.2108201529857,1,v,0.6907558000002609,correct,v
235,2F4K,236,2,43.63867649034692,57.83779316207372,1.2389863512172234,59.25166117437699,2,b,1.0244533000004594,correct,b
236,2F4K,237,2,61.00380522967901,40.30207432987507,1.7778260317444534,43.95468500552599,1,v,0.5693233000001783,correct,v
237,2F4K,238,2,45.04286295502171,50.74536850056913,1.2756971624975622,53.22464572211765,2,v,0.5685204000001249,incorrect,b
238,2F4K,239,2,52.76568725441828,69.34514795789111,1.4979304268053426,67.94526597910249,2,b,0.3766665000002831,correct,b
239,2F4K,240,2,53.1437188127738,37.10712289303463,1.50975197931453,41.12066410283551,1,v,1.0298961999997118,correct,v
240,2F4K,241,2,44.96839177196247,34.81498248996698,1.2737231662127806,39.10947739633501,1,v,1.048688700000639,correct,v
241,2F4K,242,2,62.335220774635104,48.33512016463359,1.827734634415929,51.107628627971,1,v,0.35367070000029344,correct,v
242,2F4K,243,1,40.99771226085324,56.66452044911684,1.1727791562223466,58.28142450836993,1,n,0.732388100001117,incorrect,c
243,2F4K,244,2,49.0367705237266,57.27446917172852,1.3861689576557166,58.78737071502542,2,b,2.2080808999999135,correct,b
244,2F4K,245,2,69.48084456740074,46.521251747793706,2.1205306519474103,49.50046733244289,1,b,0.60586289999992,incorrect,v
245,2F4K,246,1,41.08665223239815,31.28986197962276,1.17495016513553,36.07178038875552,2,n,0.7576146999999764,correct,n
246,2F4K,247,1,46.58672658191462,36.61612093834673,1.317316305165483,40.68795194614138,2,n,0.9212800999994215,correct,n
247,2F4K,248,1,34.72242897301425,45.10899461494166,1.02930666189285,48.2435779360547,1,n,0.45315189999928407,incorrect,c
248,2F4K,249,2,58.78629682390768,46.408176901064685,1.6977086626673357,49.39998167066402,1,v,0.5876641999984713,correct,v
249,2F4K,250,1,45.98123344647661,57.427821881210605,1.3008341195097988,58.91405196345972,1,n,0.35845159999917087,incorrect,c
250,2F4K,251,1,43.75720770931379,57.70080677034247,1.2420439557978944,59.13902661139513,1,n,1.6193729000005987,incorrect,c
251,2F4K,252,1,61.630515301637786,76.15419941808628,1.8011464106453283,72.18257666388168,1,n,1.3587311999999656,incorrect,c
252,2F4K,253,1,51.68911482649904,31.70218027728702,1.4647692853566463,36.422903886436295,2,c,0.2796195999999327,incorrect,n
253,2F4K,254,2,54.81591905901699,39.46244220886132,1.5631731280421026,43.20742211583616,1,v,0.7575500000002648,correct,v
254,2F4K,254,2,54.81591905901699,39.46244220886132,1.5631731280421026,43.20742211583616,1,many,0.7575500000002648,correct,v
255,2F4K,255,2,42.545831673343706,33.2547349871711,1.2111478151281103,37.75546578641791,1,b,1.352376999999251,incorrect,v
256,2F4K,256,2,58.81299452518728,46.09507599510569,1.698651429526726,49.12159005460426,1,v,0.8850432999988698,correct,v
257,2F4K,257,1,72.18116231502283,54.56899402851878,2.2430081608292283,56.519468475210594,2,n,1.9045986000000994,correct,n
258,2F4K,258,2,28.690472775851013,37.81652883557583,0.9079685194832,41.74740527297434,2,b,1.0367375000005268,correct,b
259,2F4K,259,1,56.03412537688342,35.19207997875489,1.6032770646870336,39.43869840229651,2,c,2.1461326999997254,incorrect,n
260,2F4K,260,2,36.85713443575384,47.805916604326725,1.076026816653979,50.63975997383729,2,b,0.6962722000007489,correct,b
261,2F4K,261,2,64.63267223754386,48.09009161252124,1.9171725212415152,50.89111583078312,1,v,0.5390570999988995,correct,v
262,2F4K,262,2,47.49804371442901,59.962793303365935,1.3425178882903064,60.97548683919258,2,b,0.9457237000005989,correct,b
263,2F4K,263,2,66.09239626138334,47.9177250949902,1.9762588015441591,50.73868727335746,1,v,0.7393753999986075,correct,v
264,2F4K,264,2,37.38595771177083,55.81603959035125,1.087924719989135,57.57228345321998,2,b,0.5685221999992791,correct,b
265,2F4K,265,1,64.99380915519208,51.36149978685801,1.931623974233048,53.76146525137083,2,n,0.8061961999992491,correct,n
266,2F4K,266,1,56.628181175730056,44.17334974744758,1.623205248749761,47.4091593272909,2,c,0.6182702999994945,incorrect,n
267,2F4K,267,1,52.643004608100384,63.50384385360936,1.4941139059140167,63.73930250420796,1,c,0.4609325000001263,correct,c
268,2F4K,268,2,34.33098774628236,59.0286096750875,1.020962326941364,60.22322723634748,2,b,0.5998111000008066,correct,b
269,2F4K,269,2,43.79561627410068,58.26315957995148,1.2430363522527934,59.60028479045312,2,v,3.2967195000001084,incorrect,b
270,2F4K,270,1,64.0070430306231,56.89678872522715,1.8923924248228612,58.47447621878078,2,n,0.7029987999994773,correct,n
271,2F4K,271,1,75.93979804791252,63.759587478634415,2.425351656137048,63.93312242079483,2,n,0.6301547000002756,correct,n
272,2F4K,272,2,48.51605749848523,60.751539717489486,1.3712405944112036,61.60346219760065,2,b,0.6298366999999416,correct,b
273,2F4K,273,1,40.107990638755766,48.26394264491754,1.151280773010661,51.04475592154492,1,c,0.6604853999997431,correct,c
274,2F4K,274,1,58.401992113415965,41.12908702150467,1.6841956732978682,44.69185408179847,2,c,1.115513100001408,incorrect,n
275,2F4K,275,1,57.21109093685323,46.64623642542698,1.6430002822248335,49.61150168919116,2,n,0.6362580999993952,correct,n
276,2F4K,276,2,54.684191500870185,38.95960920538067,1.558897147066588,42.76062052720874,1,v,1.6861642000003485,correct,v
277,2F4K,277,2,42.272602487991925,58.45715922990991,1.204286019410918,59.7587093513341,2,b,0.6837799999993877,correct,b
278,2F4K,278,1,41.38558630663773,55.53996039836309,1.1822765900782823,57.34025766377677,1,c,1.8623631000009482,correct,c
279,2F4K,279,1,52.79277944671758,41.71188657671882,1.498774548081797,45.21182000958407,2,c,0.7515084000006027,incorrect,n
280,2F4K,280,2,51.75562687371904,30.894027347630868,1.466796578830792,35.7358650050094,1,v,0.95182609999938,correct,v
281,2F4K,281,2,33.552952383918054,43.08098533311177,1.0045772937223176,46.434073055546406,2,b,1.024395700000241,correct,b
282,2F4K,282,2,64.07290370121805,73.0400666417269,1.8949858963810269,70.34127500164442,2,v,0.728115699999762,incorrect,b
283,2F4K,283,1,59.00936392714537,39.4259746766192,1.7056018615487367,43.174998630262,2,c,0.7455432999995537,incorrect,n
284,2F4K,284,1,53.6730887103156,34.82284488068304,1.5264630432599129,39.11633422564996,2,n,0.8911341000002722,correct,n
285,2F4K,285,2,59.41109154847568,79.88201030341574,1.7199096105944656,74.1570831139399,2,v,0.5084683999994013,incorrect,b
286,2F4K,286,1,32.068580264113905,52.62816282349602,0.9740430270288436,54.858437231928,1,n,0.8358454000008351,incorrect,c
287,2F4K,287,2,49.53114779243811,38.72205044798957,1.4004926711870207,42.54974906087686,1,b,0.39952980000089156,incorrect,v
288,2F4K,288,2,40.777013358810734,55.9034892107877,1.1674092468858812,57.64564973951318,2,v,0.4565853000003699,incorrect,b
289,2F4K,289,2,48.2942389848649,67.68394888324676,1.3649301936273486,66.79840955106317,2,v,0.41823049999948125,incorrect,b
290,2F4K,290,2,54.6822632413132,35.58349770538574,1.558834641173669,39.78115899193698,1,b,0.3948229999987234,incorrect,v
291,2F4K,291,1,49.65685017295113,34.82199760953738,1.4041582181241925,39.11559530107346,2,c,0.6604655999999522,incorrect,n
292,2F4K,292,2,42.16525599283951,30.363724201647983,1.2016008010866472,35.28770037827842,1,v,2.5857357000004413,correct,v
293,2F4K,293,2,47.281454918911386,33.90292027352348,1.3364850017978724,38.31630033262237,1,v,1.5829478000014205,correct,v
294,2F4K,294,1,49.60105236453047,35.58695914457282,1.402529942297385,39.78419072677583,2,c,1.2491494999994757,incorrect,n
295,2F4K,295,1,24.94304983462792,37.289003020391824,0.8399011769642574,41.281182195673736,1,c,0.40094589999898744,correct,c
296,2F4K,296,1,25.703045607812125,37.3335601758132,0.8532801360262048,41.320524258757246,1,c,0.41919460000099207,correct,c
297,2F4K,297,1,39.3677051486774,55.71187451811704,1.1336938942101105,57.484812212690926,1,c,0.7818806000013865,correct,c
298,2F4K,298,2,53.57697384506002,46.292935905370335,1.5234152209635603,49.29754093464404,1,v,0.8667963000007148,correct,v
299,2F4K,299,1,56.00416049928016,40.509658166874615,1.6022783705371595,44.13962604444599,2,c,0.6726015999993251,incorrect,n
300,2F4K,300,1,46.62048881536073,65.20869547561715,1.3182414727592793,65.01547726413975,1,n,0.6665442000012263,incorrect,c
301,2F4K,301,2,69.53219861629472,55.61445943784668,2.122796328278839,57.40292962769085,1,v,0.5644394999999349,correct,v
302,2F4K,302,2,44.224849458217165,59.1243228739624,1.2541809258861638,60.300712204865,2,b,0.4069921999998769,correct,b
303,2F4K,303,2,32.562782227559865,51.72934508349105,0.9841045281338744,54.08098570751142,2,v,0.5935344000008627,incorrect,b
304,2F4K,304,1,73.60152694786693,50.78819214368607,2.310244922812277,53.262020514374335,2,n,1.8745474000006652,correct,n
305,2F4K,305,2,36.35903641873782,52.91336081719766,1.0649392197609369,55.10409636954293,2,b,0.8182787999994616,correct,b
306,2F4K,306,1,53.93778345942705,63.84993676502568,1.534888124554526,64.00139797348687,1,n,1.7296473999995214,incorrect,c
307,2F4K,307,1,49.89734851411678,68.52749702628151,1.4111980333092686,67.38594665544203,1,n,0.8121912000005977,incorrect,c
308,2F4K,308,2,40.23390670069305,51.100292499755085,1.1542991799581492,53.53412532079307,2,v,1.315896399999474,incorrect,b
309,2F4K,309,1,41.4392645476379,54.44916173163332,1.1835969930281611,56.41767472344088,1,c,1.0003637999998318,correct,c
310,2F4K,310,1,64.04130545227198,45.44972270935353,1.893741172443439,48.54715503681448,2,n,0.5633910000015021,correct,n
311,2F4K,311,1,58.0412856737117,45.05808691139376,1.6716103196087515,48.19820581101536,2,n,0.544329899999866,correct,n
312,2F4K,312,2,43.006129259089,56.239228811239485,1.2227961184568792,57.92673288183704,2,b,0.6352339999994001,correct,b
313,2F4K,313,2,47.28042355744152,59.620745215153576,1.3364563391009894,60.70109658698897,2,v,1.0610245000007126,incorrect,b
314,2F4K,314,2,38.76928612097974,54.98297016113975,1.1196738756529323,56.87030260458632,2,b,0.4728976000005787,correct,b
315,2F4K,315,1,50.184151642368114,57.40996816031755,1.4196394288598708,58.8993143942147,1,n,0.8789809000008972,incorrect,c
316,2F4K,316,2,47.85327262433636,59.5493697509466,1.352471486496998,60.64368534683978,2,b,0.5998247999996238,correct,b
317,2F4K,317,1,47.61236384224436,62.94261214800709,1.3457131453813456,63.31110662667999,1,n,0.5387011000002531,incorrect,c
318,2F4K,318,1,59.70872677624014,68.64485527227508,1.7305873992752276,67.46684834253013,1,n,1.0064456000000064,incorrect,c
319,2F4K,319,2,57.305742786163016,78.31990402891142,1.646237268986182,73.36101520635941,2,v,0.9237589000003936,incorrect,b
320,2F4K,320,1,50.78606243104598,38.82000934335269,1.4375198452921218,42.63668556336836,2,n,0.7575567000003502,correct,n
321,2F4K,321,2,48.55699481481633,38.69778978641708,1.3724083840288903,42.52822214736816,1,v,1.673785000000862,correct,v
322,2F4K,322,2,65.41859690733637,43.457874482463055,1.9487620006838984,46.77056082606693,1,v,1.0115810000006604,correct,v
323,2F4K,323,2,38.14430374912722,59.55266584429526,1.1052165817901407,60.64633773967165,2,b,0.8306860000011511,correct,b
324,2F4K,324,1,37.36418832180073,51.52970238183386,1.087432347787993,53.90766370416389,1,n,0.9458878000004916,incorrect,c
325,2F4K,325,1,50.35215765833142,65.1773624076546,1.4246077361081666,64.99236612821761,1,c,0.47838749999937136,correct,c
326,2F4K,326,1,37.55697397950328,52.70122587924613,1.0918004670745554,54.92141986381526,1,n,0.9275254999993194,incorrect,c
327,2F4K,327,1,50.657233426395706,42.21619361436583,1.4336739927804896,45.66196318661293,2,c,0.6666034000008949,incorrect,n
328,2F4K,328,2,50.66329772045606,60.18602047276162,1.4338547954166905,61.15389312071522,2,v,1.3583985999994184,incorrect,b
329,2F4K,329,1,38.26076554971186,30.48082737776555,1.1078963892501024,35.3864778655538,2,n,2.962063000000853,correct,n
330,2F4K,330,2,66.25568894236147,44.73973617637492,1.9829807441641267,47.9143916852097,1,v,1.0784331999984715,correct,v
331,2F4K,331,2,43.84521268759003,59.53947934556678,1.2443189922743971,60.63572578351846,2,b,1.522276800000327,correct,b
332,2F4K,332,1,68.06335329546927,54.06192927827844,2.058938301920177,56.088017803786286,2,n,2.458326500000112,correct,n
333,2F4K,333,2,40.82343716080868,48.91705117134313,1.1685367563376683,51.62097174111461,2,b,1.2978597000001173,correct,b
334,2F4K,334,1,69.02031815099049,51.78339514513101,2.100320573804097,54.12787124733428,2,n,1.637577899999087,correct,n
335,2F4K,335,1,39.19855704450667,50.22781049793472,1.1297133165435898,52.77222406279646,1,c,2.525068699998883,correct,c
336,2F4K,336,1,52.19215839221595,32.5907701869512,1.4801719190456557,37.1836440191932,2,c,0.8607773999992787,incorrect,n
337,2F4K,337,2,63.05042154884537,46.07297290726768,1.8551201731512643,49.10192927745619,1,v,2.658623200000875,correct,v
338,2F4K,338,2,51.12301226018106,35.50448192947798,1.4476274482456366,39.71196749865708,1,v,2.0941530000000057,correct,v
339,2F4K,339,2,30.063556876406203,43.27181012863292,0.9342669293717072,46.604446742451486,2,b,0.4780615999989095,correct,b
340,2F4K,340,1,69.77615786059926,55.06342619019937,2.133592614120678,56.93833594691142,2,n,1.0974631999997655,correct,n
341,2F4K,341,2,50.151331397269466,36.5682238176823,1.4186708869922926,40.64579147127126,1,v,0.7944926999989548,correct,v
342,2F4K,342,2,41.66462721344321,27.670924999563105,1.189156682705088,33.04807330739308,1,b,0.5642296999994869,incorrect,v
343,2F4K,343,1,57.39343149026601,42.201365723160094,1.649241814666163,45.64872594221352,2,c,1.8080676999998104,incorrect,n
344,2F4K,344,1,60.080396311967206,45.84158255705017,1.7440143240020405,48.89604724654405,2,n,0.781844799999817,correct,n
345,2F4K,345,2,49.62254397298698,65.45586399934163,1.4031568806308934,65.19732548451316,2,v,0.9092892000007851,incorrect,b
346,2F4K,346,1,38.7103729359792,53.00776042070414,1.1183030419568163,55.18529482291113,1,c,3.3989727000007406,correct,c
347,2F4K,347,1,42.1588340239029,54.8399030547217,1.2014403487198215,56.74920322847218,1,c,0.4919736000010744,correct,c
348,2F4K,348,1,46.49384586007962,31.16458566372345,1.314774495456164,35.965341795667726,2,c,1.0667635000008886,incorrect,n
349,2F4K,349,1,52.17882885108314,43.68099446776519,1.479761701824632,46.96973928349954,2,c,1.0549579999988055,incorrect,n
350,2F4K,350,2,57.09686694073114,75.50392773259554,1.6391024240505576,71.81215147580296,2,v,2.4704871000012645,incorrect,b
351,2F4K,351,1,49.28886740340999,31.52908420828523,1.393454622400995,36.275349217583845,2,n,1.8257166000003053,correct,n
352,2F4K,352,2,39.7457700863172,59.19838423456951,1.1426417129366284,60.36060535712986,2,b,0.8049833000004583,correct,b
353,2F4K,353,2,54.921100262536335,39.95949833567411,1.5665958132606208,43.64963446156248,1,v,0.7090394000006199,correct,v
354,2F4K,354,1,51.3414559997513,42.00328135889695,1.4542181228889646,45.47190063132443,2,n,1.4550519999993412,correct,n
355,2F4K,355,1,40.64081247226749,26.50648268131218,1.1641075673643564,32.10021039409383,2,c,1.5708204999991722,incorrect,n
356,2F4K,356,2,56.84350764463097,67.77190074802398,1.6304895891329494,66.86015866310952,2,v,1.1460055999996257,incorrect,b
357,2F4K,357,2,71.30373147988897,52.78554042223149,2.2024540866625166,54.99406003860566,1,v,1.0186832999988837,correct,v
358,2F4K,358,1,53.59208024378931,63.61859131005512,1.523893844623928,63.826367681696034,1,n,1.2734264000009716,incorrect,c
359,2F4K,359,2,31.89761934202057,48.8026098953167,0.970586420290587,51.5201189463255,2,b,0.8050287999994907,correct,b
360,2F4K,360,2,38.72009685273673,55.21797186707294,1.1185291892338856,57.06887893686552,2,b,0.9755335999998351,correct,b
361,2F4K,361,2,54.31951625477677,42.90221059915676,1.5471204140240773,46.27445313994462,1,v,1.605857799999285,correct,v
362,2F4K,362,1,44.26009934123772,60.59638297764206,1.2551005784082638,61.48046433699575,1,c,1.8306697999996686,correct,c
363,2F4K,363,2,60.052659538042064,36.199293048988544,1.743008718890876,40.32136318018751,1,v,0.9396202000007179,correct,v
364,2F4K,364,2,60.56059769055952,44.60925897757512,1.7615164294250478,47.79803269624198,1,v,0.5876501999991888,correct,v
365,2F4K,365,2,63.69459482186032,45.6324599190659,1.8801370703984384,48.70988931414314,1,v,0.4798088999996253,correct,v
366,2F4K,366,2,47.26400383141036,60.18276104629224,1.3360000992074854,61.15129196384501,2,b,0.7089890000006562,correct,b
367,2F4K,367,1,53.835795145600606,43.505948870045664,1.5316364025369889,46.81347854640115,2,n,1.213082399999621,correct,n
368,2F4K,368,2,60.900724488536575,48.041330161519134,1.7740193362641528,50.848004706266046,1,v,4.157615800000713,correct,v
369,2F4K,369,1,33.876055798397275,44.55722022024808,1.011349518979401,47.75161931414457,1,c,0.9457213999994565,correct,c
370,2F4K,370,2,27.091016559961385,37.59385053940036,0.8782663880234055,41.55048853813185,2,b,0.7333362999997917,correct,b
371,2F4K,371,1,59.09153600270725,50.16369665160176,1.7085187493934528,52.71608935019687,2,n,1.454841700000543,correct,n
372,2F4K,372,2,46.847074888746505,57.07848519027468,1.3244673197014696,58.625163895244064,2,v,5.0,correct,b
373,2F4K,373,2,48.98863785101372,68.08376149437731,1.3847822479987466,67.07819428371953,2,v,1.9289188000002468,incorrect,b
374,2F4K,374,2,43.13695986466853,59.28133457803754,1.226127320788775,60.42762091756676,2,b,0.8850588000004791,correct,b
375,2F4K,375,1,49.21698737841079,30.822946504319944,1.391373377266438,35.67566841948758,2,n,1.0185660000006465,correct,n
376,2F4K,376,2,21.59357080207621,42.21587821790501,0.783392447105352,45.66168162302942,2,b,0.8367123000007268,correct,b
377,2F4K,377,2,50.36768179173161,34.8737548324285,1.4250676954887982,39.16074071652135,1,v,0.64836170000126,correct,v
378,2F4K,378,1,57.62742511771869,69.35304364840361,1.6572861857841985,67.95061740270748,1,n,1.1884867000007944,incorrect,c
379,2F4K,379,1,44.819036247004185,60.49434604160823,1.2697734233470983,61.399432678102215,1,n,0.7565749999994296,incorrect,c
380,2F4K,380,1,44.920738462283246,33.1374817571008,1.2724616301372376,37.65428338724781,2,c,0.37669779999851016,incorrect,n
381,2F4K,381,2,63.54602247764076,45.93253671857728,1.874337397423532,48.9769874098622,1,v,0.5936827000004996,correct,v
382,2F4K,382,1,62.30796571459746,45.21657380210897,1.8266990537413723,48.339446741249496,2,n,0.9517915999986144,correct,n
383,2F4K,383,1,29.573266565433958,42.242940272841,0.9247901885690258,45.685840853338526,1,c,0.8850018000011914,correct,c
384,2F4K,384,2,38.18737843036261,55.35760914119411,1.1062069819372498,57.18666872378228,2,b,0.5876498999987234,correct,b
385,2F4K,385,2,33.929857723025336,48.78834115346719,1.0124816293331969,51.50754091480558,2,b,0.6970210999988922,correct,b
386,2F4K,386,1,59.9831898536796,54.27311621463378,1.7404926185774237,56.267938777842,2,n,2.0805944000003365,correct,n
387,2F4K,387,1,47.50781462375392,32.53196893429346,1.3427906892543355,37.133139078749416,2,n,3.0895039000006363,correct,n
388,2F4K,388,1,50.198893854561696,68.05853201726516,1.4200746941098603,67.06060852700888,1,n,1.1884735000003275,incorrect,c
389,2F4K,389,2,49.280165658668665,56.73956836458148,1.393202502809899,58.3438527140259,2,v,0.5876330000010057,incorrect,b
390,2F4K,390,2,39.953118946635406,61.09937483947801,1.1475790758715123,61.87823526273717,2,b,0.9751437999984773,correct,b
391,2F4K,391,2,43.61295364421901,27.465248249917074,1.2383238051007188,32.87969045696927,1,v,1.4555039000006218,correct,v
392,2F4K,392,1,55.28581403408824,46.34524864421379,1.5785220582786073,49.3440467999588,2,c,0.6656193999988318,incorrect,n
393,2F4K,393,2,67.96338318307325,49.328220418601845,2.0546625854661182,51.98289250440402,1,v,0.7337673000001814,correct,v
394,2F4K,394,1,48.56887307282784,54.88883486765505,1.3727474127329384,56.7906391761049,1,n,1.1774465999988024,incorrect,c
395,2F4K,395,1,26.61184562939465,43.044570958554345,0.8695587259725389,46.401560553534,1,n,0.751772699999492,incorrect,c
396,2F4K,396,2,72.28397948361935,56.44822536997032,2.2478088938872607,58.10122831775395,1,v,0.7575561000012385,correct,v
397,2F4K,397,1,63.65201567519468,51.27166514157544,1.878473117870624,53.683319553017874,2,n,0.8548417000001791,correct,n
398,2F4K,398,2,57.28970618923036,44.14702845991732,1.6456883870371994,47.38567248002373,1,v,1.5043212000000494,correct,v
399,2F4K,399,2,57.60344230847805,49.03082606250573,1.6564598891370843,51.72118676237453,1,v,0.7757822000003216,correct,v
400,2F4K,400,1,39.41676427026887,56.72961782097657,1.1348510286883116,58.33557822467749,1,n,3.0713080000004993,incorrect,c
