,condition,trial,sub_task,x,y,xt,yt,cat,resp,rt,acc,correct_resp
0,2F4K,1,2,38.87595289299137,58.4212935970653,1.1221601505843688,59.54326717666068,2,b,1.6741640999998708,correct,b
1,2F4K,2,1,61.03838934907317,40.81844364371224,1.779105026815669,44.27715060868234,2,c,1.3837019000000055,incorrect,n
2,2F4K,3,2,39.81369083498058,57.932833290861645,1.144256688603628,59.14478766801391,2,v,1.2673348000000715,incorrect,b
3,2F4K,4,1,51.80362805331839,39.25829383080094,1.4682614022646585,42.89264970009812,2,c,2.0562877999998364,incorrect,n
4,2F4K,5,1,50.53380298629297,65.19231209808288,1.4299989518902645,64.80051784640933,1,n,1.0185143999999582,incorrect,c
5,2F4K,6,2,42.55153805974983,35.743401310000024,1.211291539629086,39.797797411950384,1,b,1.1037552999998752,incorrect,v
6,2F4K,7,2,71.14125588186803,51.47160198664684,2.1950254643278533,53.689590930312725,1,b,1.7406806999999844,incorrect,v
7,2F4K,8,2,51.35228219516063,67.4129380325291,1.454545539731598,66.39947464164784,2,v,0.6489731000001484,incorrect,b
8,2F4K,9,2,55.36028998950063,38.49816178642201,1.5809685840221208,42.21998437479095,1,v,2.02577610000003,correct,v
9,2F4K,10,1,52.07972012937461,40.41161953989198,1.476715189566827,43.915722385272176,2,n,0.9699564999998529,correct,n
10,2F4K,11,2,40.42758367901494,61.99309338095684,1.1589573778647857,62.38275401711204,2,b,1.631425100000115,correct,b
11,2F4K,12,2,60.71907825460578,46.6924168166353,1.767331101533292,49.49823847343967,1,v,0.7700810999999703,correct,v
12,2F4K,13,2,42.39806378889248,60.12267745121347,1.2074319764250538,60.91279215533349,2,b,1.0609698999999182,correct,b
13,2F4K,14,1,31.27578901601985,46.52054559262472,0.958116949947446,49.34604369011324,1,c,0.9578137000000879,correct,c
14,2F4K,15,1,44.41954079237705,29.512745874008157,1.2592687600137389,34.46666006418865,2,c,1.1268606000001,incorrect,n
15,2F4K,16,1,48.48410489901454,57.53961545570432,1.3703297959240228,58.82237561224065,1,n,1.8982789000001503,incorrect,c
16,2F4K,17,2,63.0660894435578,78.14856046077497,1.8557246785138104,73.0418787158132,2,v,0.9760030999998435,incorrect,b
17,2F4K,18,1,40.85858238692091,32.71569773901952,1.16939106368485,37.17587447460434,2,n,1.1580973000000085,correct,n
18,2F4K,19,1,32.34767144620152,45.79554743473346,0.9797123579059892,48.70331945348222,1,c,0.7565511000000242,correct,c
19,2F4K,20,2,61.24659347497906,44.2679323522208,1.7868243301755793,47.34610701786433,1,v,2.75061699999992,correct,v
20,2F4K,21,1,63.63452148456546,50.55523129246688,1.877789888444112,52.89352793194464,2,n,0.6907644999998865,correct,n
21,2F4K,22,1,62.53447586754862,42.41684977902566,1.835323368325014,45.69888881081543,2,c,0.6232331000001068,incorrect,n
22,2F4K,23,1,66.38220301449367,47.533250958602814,1.9882044106472023,50.24170177700966,2,n,0.7592326999999841,correct,n
23,2F4K,24,2,48.72252174362429,44.94822839729951,1.377140401924946,47.9509151160848,1,v,1.1581390999999712,correct,v
24,2F4K,25,2,26.01236934785281,40.1631266958739,0.85878629933968,43.69508311498291,2,b,1.4858260999999402,correct,b
25,2F4K,26,1,44.34482137014611,60.62734875700931,1.2573136945580066,61.31323101388393,1,c,0.8486198999999033,correct,c
26,2F4K,27,1,53.44664979749007,38.26055891437237,1.5192923359068669,42.01004029870957,2,c,0.8121363000000201,incorrect,n
27,2F4K,28,1,60.24361839042592,42.536988551301256,1.7499437533248183,45.80581089998792,2,n,0.5694270999999844,correct,n
28,2F4K,29,1,67.20250071283304,58.57269783045736,2.022409325995502,59.66631559264737,2,n,0.7158165999999255,correct,n
29,2F4K,30,1,45.96353770365229,28.02257894109214,1.3003555362192096,33.234262224021435,2,c,0.7149457000000439,incorrect,n
30,2F4K,31,2,48.04672223052194,56.894427937606935,1.357922992421481,58.2903146746215,2,b,0.6183658999998443,correct,b
31,2F4K,32,2,58.88071965546053,47.088087405168906,1.701045333244093,49.84832941364717,1,b,0.593683700000156,incorrect,v
32,2F4K,33,2,50.06058274056517,34.816620294289194,1.415996286803777,38.98999860158882,1,v,0.9578292999999576,correct,v
33,2F4K,34,1,55.032171905845466,38.76120004078204,1.5702183142237651,42.452586772507566,2,c,1.2669336999999814,incorrect,n
34,2F4K,35,2,43.95026086261917,61.30455967962428,1.2470400727346138,61.84619207936228,2,b,0.7569126999999298,correct,b
35,2F4K,36,2,50.1959531110906,70.8236903120036,1.4199878577185845,68.71512081825453,2,b,1.1277511000000686,correct,b
36,2F4K,37,2,37.03494192964657,54.07933800891996,1.080012685458581,55.928161335153774,2,v,0.8303530000000592,incorrect,b
37,2F4K,38,2,47.73888586591709,34.17094111864286,1.3492583129632412,38.42978539939597,1,b,0.7090121000001091,incorrect,v
38,2F4K,39,1,40.13756268173714,50.50870607340192,1.1519889516681645,52.85299679873351,1,c,1.3945771999999579,correct,c
39,2F4K,40,2,55.36427793155956,40.1839085672858,1.5810996943196791,43.7135315845948,1,b,1.6132869999999002,incorrect,v
40,2F4K,41,2,64.5513136876347,52.29418013445186,1.913931784207727,54.40026696209169,1,b,4.661140200000091,incorrect,v
41,2F4K,42,2,38.90255157803478,49.537330240208,1.122780993651218,52.004450488336026,2,v,0.6180220999999619,incorrect,b
42,2F4K,43,2,62.1771714237356,76.95556015402619,1.8217375645919296,72.40159868771212,2,b,1.0003485999998247,correct,b
43,2F4K,44,1,54.21534470378791,39.78349027896652,1.543772689866764,43.35820996071417,2,n,1.0488818999999694,correct,n
44,2F4K,45,2,59.441008295242746,48.461391233774805,1.7209799014107503,51.05988359871007,1,b,0.9032606999999189,incorrect,v
45,2F4K,46,2,34.79668207132889,54.18617777273339,1.0308971902212676,56.01892203701183,2,b,1.2976349999999002,correct,b
46,2F4K,47,2,54.80542540405552,49.44122692948572,1.5628320661524884,51.92027084500573,1,v,0.6417694000001575,correct,v
47,2F4K,48,2,61.97898865360847,73.29393656687128,1.814245459736404,70.27740211673493,2,v,0.739372400000093,incorrect,b
48,2F4K,49,1,55.30828971376373,44.63425263519581,1.5792599823823932,47.67184424625517,2,n,1.7894951000000674,correct,n
49,2F4K,50,2,64.57638707918062,47.39495253182019,1.914929942630225,50.11955426969312,1,b,0.6543913999998949,incorrect,v
50,2F4K,51,2,41.92791144072047,24.42475726090332,1.195684981568716,30.34709501896088,1,v,0.4411724999999933,correct,v
51,2F4K,52,2,63.75365113764664,42.50514776678924,1.882447375150649,45.77747264224243,1,v,0.7878260999998474,correct,v
52,2F4K,53,2,67.38847635725843,49.73365996727452,2.0302456409312377,52.17629811397064,1,v,0.5202888999999686,correct,v
53,2F4K,54,1,59.87868546259098,49.74221643812245,1.7367144473027627,52.18378378471472,2,n,0.7818366999999853,correct,n
54,2F4K,55,1,58.38876766681247,46.66303256806083,1.683732592196508,49.47222330547915,2,n,0.5646937999999864,correct,n
55,2F4K,56,2,31.62955364643223,49.68664601486088,0.9651911613596243,52.135161995494926,2,v,0.7392867000000933,incorrect,b
56,2F4K,57,1,71.16715378919066,52.12171383537864,2.1962078737912294,54.25158723797431,2,n,0.927463699999862,correct,n
57,2F4K,58,2,46.27551600942571,39.51547164607195,1.3088188941045955,43.12055100675857,1,v,0.9884058000000095,correct,v
58,2F4K,59,2,57.21718085856406,45.08106616358237,1.6432083589779565,48.068946467598174,1,b,0.5274206000001413,incorrect,v
59,2F4K,60,1,63.04879867878278,46.74329591854493,1.8550575701456191,49.54327894317897,2,n,0.8789460000000417,correct,n
60,2F4K,61,2,73.65911857036404,55.22991454075444,2.3130132927985625,56.901169017001685,1,b,1.024596900000006,incorrect,v
61,2F4K,62,2,34.52190834994657,40.06638208667621,1.0250236880843056,43.6092109888091,2,b,2.2579905000000053,correct,b
62,2F4K,63,2,41.76296011002039,53.268569811924536,1.191590728370453,55.23682680072962,2,b,0.8416694999998526,correct,b
63,2F4K,64,1,52.673525002340966,35.68938213896221,1.4950624518843718,39.75060137863765,2,c,1.0612742999999227,incorrect,n
64,2F4K,65,1,60.8673528177857,69.97248851082975,1.7727886925558525,68.15392497700999,1,n,0.8485960999998952,incorrect,c
65,2F4K,66,1,61.67920251236382,36.98134585771356,1.8029708544481269,40.88281259780474,2,c,1.217871900000091,incorrect,n
66,2F4K,67,2,42.75164561864078,58.5433907183736,1.2163423699933034,59.64251466933711,2,b,1.2977038999999877,correct,b
67,2F4K,68,2,64.64965620706803,52.80672879668647,1.9178497319327847,54.84106011511517,1,v,0.9760192999999617,correct,v
68,2F4K,69,2,51.47385435302929,42.1077917062622,1.4582273146319653,45.42385224970671,1,v,0.969925000000103,correct,v
69,2F4K,70,2,33.453635741887155,54.02976671172962,1.0025047499169264,55.886022833335794,2,b,0.6482429000000138,correct,b
70,2F4K,71,1,55.88672493316187,73.3853770701422,1.598370374046303,70.33328529338633,1,n,1.4798590000000331,incorrect,c
71,2F4K,72,2,49.26977199114202,38.04884516904733,1.3929014221557343,41.823111641301935,1,b,1.267323000000033,incorrect,v
72,2F4K,73,2,44.540180263269605,62.28626791709275,1.2624317617070235,62.60955095835384,2,b,2.0805790999997953,correct,b
73,2F4K,74,1,73.90590853492256,53.85100748199866,2.324913846935221,55.733923470421885,2,n,1.2369624000000385,correct,n
74,2F4K,75,1,51.47798080125646,63.61735663517548,1.4583524462263262,63.62628405283228,1,n,0.6846875999999611,incorrect,c
75,2F4K,76,2,41.942927195173375,25.64278337170749,1.1960583851273237,31.309478816593597,1,b,1.7224776999998994,incorrect,v
76,2F4K,77,2,66.76479059571793,52.1137346652939,2.004085025672699,54.24470429273223,1,b,0.9632564999999431,incorrect,v
77,2F4K,78,2,46.60561200120056,56.85559986466955,1.3178337316964972,58.25817653289084,2,v,0.5442975999999362,incorrect,b
78,2F4K,79,1,70.96270542976607,61.59568426115146,2.186890769845796,62.07372379011066,2,n,1.5698926999998548,correct,n
79,2F4K,80,2,37.38445399336536,45.40540235356072,1.0878907022625433,48.35702232087854,2,b,0.6908214000000044,correct,b
80,2F4K,81,2,45.65269963323523,60.75274489832236,1.2919775389709225,61.41229991190577,2,b,5.0,correct,b
81,2F4K,82,1,53.458771799065225,69.51202293971163,1.519675352100814,67.8456159973184,1,n,1.552612100000033,incorrect,c
82,2F4K,83,2,57.90484497700064,47.05865274181301,1.6668743408893758,49.82229965209604,1,b,0.6476652999999715,incorrect,v
83,2F4K,84,2,31.95339371768221,49.50579993495175,0.9717127551220304,51.97683651099436,2,b,0.6543865999999525,correct,b
84,2F4K,85,1,68.3210294440191,54.90956347741972,2.0700001658588025,56.63125405723515,2,n,0.7645826000000397,correct,n
85,2F4K,86,1,38.86610145915567,54.42267800592376,1.1219302942269838,56.21953809767222,1,c,0.5269093000001703,correct,c
86,2F4K,87,1,62.789778921934655,77.65620664256107,1.8450927851306351,72.78079457969285,1,n,0.52083000000016,incorrect,c
87,2F4K,88,1,57.0060639071901,36.33615603016579,1.6360103975037037,40.31653091806361,2,n,0.6968268000000535,correct,n
88,2F4K,89,2,46.38889496360815,37.42087590733616,1.3119082701580005,41.26949429282354,1,v,1.114716499999986,correct,v
89,2F4K,90,2,64.39644472039292,79.07291868066255,1.907778053924113,73.51992346102176,2,b,0.75754720000009,correct,b
90,2F4K,91,2,52.8891414183618,36.257568063273176,1.5017807897694997,40.247669642025215,1,v,0.3939202999999907,correct,v
91,2F4K,92,2,57.475709991648536,47.14746707698971,1.6520659727528546,49.90083307003247,1,b,0.9942372999998952,incorrect,v
92,2F4K,93,2,41.22364495354074,54.526701239435205,1.1783019982352128,56.30764907837736,2,b,0.4479731000001266,correct,b
93,2F4K,94,1,67.59460036433278,47.04319396518269,2.038966413371398,49.80862815746956,2,n,1.078465000000051,correct,n
94,2F4K,95,1,38.140948926276735,21.73749870811355,1.1051394828244545,28.284442514216053,2,c,0.5573068999999577,incorrect,n
95,2F4K,96,1,48.59790000019551,63.23189034752902,1.3735762504237077,63.33408028361464,1,n,0.7210950000001048,incorrect,c
96,2F4K,97,1,43.55958091764161,35.5586708813427,1.2369502080569603,39.63645566954325,2,n,0.5876319000001331,correct,n
97,2F4K,98,1,56.60058325399507,36.041928982891335,1.622273986664552,40.05885460865083,2,n,0.6240230000000793,correct,n
98,2F4K,99,2,56.752088415726206,70.73333233563278,1.6273929573556745,68.65609178389458,2,v,1.3825804000000517,incorrect,b
99,2F4K,100,1,58.720089635439095,50.01914545516384,1.6953729678065232,52.425880339077686,2,n,0.5322545999999875,correct,n
100,2F4K,101,1,64.47890511465161,51.822960264205946,1.9110521571690589,53.993625175246905,2,n,0.9760102999998708,correct,n
101,2F4K,102,1,56.77415953699948,39.507917193792224,1.628140030646525,43.113854457951454,2,n,0.5031512000000475,correct,n
102,2F4K,103,1,59.10925558880987,43.0862977952687,1.7091484006184157,46.29471059395341,2,n,0.46770089999995434,correct,n
103,2F4K,104,2,45.56040280654803,62.39708660040587,1.2895002780379168,62.69501521336709,2,v,2.1244901999998547,incorrect,b
104,2F4K,105,2,44.27937692098831,54.27190015570124,1.255603806415452,56.09168443349508,2,b,0.4715879999998833,correct,b
105,2F4K,106,2,55.14254913916392,72.13026666273002,1.573826465656134,69.5539673845688,2,v,0.5269608999999491,incorrect,b
106,2F4K,107,1,46.85221365535489,63.12846050293078,1.3246088567255778,63.25536200568229,1,n,0.09144420000006903,incorrect,c
107,2F4K,108,2,48.90772794312552,61.33044957631971,1.3824543464104304,61.86646559098319,2,b,0.4410629000001336,correct,b
108,2F4K,109,1,45.98397313959413,60.55492700931912,1.3009082305527366,61.2559361225283,1,c,1.12168029999998,correct,c
109,2F4K,110,1,54.67304964987933,44.75476817820765,1.5585360107081263,47.77897640519717,2,n,0.45409670000003644,correct,n
110,2F4K,111,2,38.895065767374334,45.68556949954401,1.1226062317321883,48.60572925417167,2,b,1.3091335000001436,correct,b
111,2F4K,112,2,58.58166321729048,72.71785557265298,1.6904998597249623,69.92209053995917,2,b,1.1823890000000574,correct,b
112,2F4K,113,2,57.490339183840106,72.3726207733125,1.652568616757199,69.70649593411376,2,b,0.7271963000000596,correct,b
113,2F4K,114,1,40.33704807066451,57.84329471523839,1.1567775366502755,59.07149841386752,1,n,0.5694072000001142,incorrect,c
114,2F4K,115,1,54.18352827866099,37.47725904751442,1.5427516615354453,41.31914784834308,2,c,0.8060631999999259,incorrect,n
115,2F4K,116,1,67.33214300684989,56.96744444396877,2.027868764860427,58.35071484046867,2,n,0.3934068999999454,correct,n
116,2F4K,117,1,47.979041030826885,39.07504647979751,1.3560132080690708,42.73035542245349,2,n,0.7090056000001823,correct,n
117,2F4K,118,2,64.28584302304841,49.90178789402599,1.903395401437419,52.32332621071,1,b,1.2604518000000553,incorrect,v
118,2F4K,119,1,44.636305619063066,53.24605016129694,1.2649577231092648,55.21756111001208,1,c,0.7939768999999615,correct,c
119,2F4K,120,2,35.15621400991344,55.02439353259473,1.0386333246553747,56.72809590087239,2,v,1.7108757999999398,incorrect,b
120,2F4K,121,2,62.26782199983665,51.583112229630274,1.825174825432408,53.78615661272666,1,b,1.6010941999998067,incorrect,v
121,2F4K,122,1,36.73886966341715,47.12809625365088,1.0733838523256964,49.88370639931658,1,c,0.7575598999999329,correct,c
122,2F4K,123,1,38.50466430193893,56.83644529798276,1.1135296158233583,58.24231736207647,1,c,0.5756145000000288,correct,c
123,2F4K,124,1,60.24826998504179,42.63167596875261,1.7501130286547553,45.8900837343796,2,n,0.5876091000000088,correct,n
124,2F4K,125,2,60.56580700054767,46.4093529758894,1.761707255245401,49.247543579907216,1,v,1.837428700000146,correct,v
125,2F4K,126,2,79.33594341380895,67.5402964859866,2.6028249756300528,66.48907182664877,1,v,0.7093078000000332,correct,v
126,2F4K,127,2,46.23121002843234,51.16447418206697,1.3076136123497966,53.42327432824183,2,b,0.4243704999998954,correct,b
127,2F4K,128,1,42.98518242198306,60.23674926622278,1.2222636122899528,61.00354363629411,1,n,0.6786334000000807,incorrect,c
128,2F4K,129,1,28.697818337279628,44.05766412751373,0.908107219230829,47.15907647184276,1,n,0.6058356999999432,incorrect,c
129,2F4K,130,2,62.10925540856704,44.07785274593319,1.8191665881877743,47.17703553262647,1,v,0.8730229999998755,correct,v
130,2F4K,131,1,34.56414936546978,49.96416481368689,1.0259244410889543,52.37784271451542,1,c,1.8075512000000344,correct,c
131,2F4K,132,2,44.23653833356896,57.07411634305299,1.254485808329577,58.438870564260405,2,b,0.7333038000001579,correct,b
132,2F4K,133,2,67.5712504394429,62.23902521716579,2.037976637540913,62.57307281397078,1,v,0.5815517000000909,correct,v
133,2F4K,134,1,43.32545624202896,63.46577339743294,1.230942769009748,63.51159646290648,1,n,1.4068979999999556,incorrect,c
134,2F4K,135,1,37.53020468367623,28.28707811467236,1.0911928834381337,33.45156527653126,2,c,0.5512828999999329,incorrect,n
135,2F4K,136,2,50.12283663192323,39.28986390953919,1.4178305281059174,42.92061790471906,1,b,0.47247919999995247,incorrect,v
136,2F4K,137,1,36.59767016297286,43.93942378082125,1.0702368467650074,47.05388801095044,1,c,0.7575753999999506,correct,c
137,2F4K,138,2,46.12072172237534,55.19469969479128,1.304612766718677,56.87153713757002,2,b,0.6908088000000134,correct,b
138,2F4K,139,1,57.57949353107335,52.857201055084346,1.655635176114857,54.88437805902384,2,n,0.5754567999999836,correct,n
139,2F4K,140,2,39.07990293287804,51.588989668697415,1.1269293623235697,53.79124445137988,2,v,1.8612419999999474,incorrect,b
140,2F4K,141,2,69.62665093814327,46.35112875350649,2.126969768972662,49.1959542760175,1,v,0.9266376000000491,correct,v
141,2F4K,142,2,31.0905498584709,45.72316463602068,0.954433439833913,48.63909225182131,2,b,0.4473849999999402,correct,b
142,2F4K,143,1,69.53538941584928,51.70091003351831,2.1229371822105967,53.88809217514788,2,n,1.3162697000000207,correct,n
143,2F4K,144,1,59.5210385528763,43.28393957290393,1.7238463103654205,46.47061166519745,2,n,0.5026453000000402,correct,n
144,2F4K,145,2,61.82879646153325,43.31828386825112,1.8085881219818325,46.50117711437235,1,v,0.6361698999999135,correct,v
145,2F4K,146,1,44.40805454513144,55.971443650338266,1.2589680198435802,57.522852682970615,1,n,1.5770445999999083,incorrect,c
146,2F4K,147,2,44.43324210878397,55.71552048049391,1.259627590480498,57.30879077715408,2,v,2.2215869999999995,incorrect,b
147,2F4K,148,1,36.72830187424661,48.55458350616496,1.0731480010680814,51.141872794064014,1,n,0.6968558999999459,incorrect,c
148,2F4K,149,1,32.171380561592315,44.74335829968156,0.976127438723501,47.76883434828218,1,c,0.6474300999998377,correct,c
149,2F4K,150,1,41.32657881502361,34.2434078358599,1.180826795266348,38.49254825589013,2,c,0.6422708000000057,incorrect,n
150,2F4K,151,2,69.39397972273015,60.95421071805268,2.116703786939286,61.57110522773656,1,b,0.8720470999999179,incorrect,v
151,2F4K,152,2,57.34823483324498,74.28205581317175,1.6476925225919168,70.8737234101722,2,v,0.5754845999999816,incorrect,b
152,2F4K,153,1,48.13340648436144,59.542023572705936,1.360372921712343,60.44871696171375,1,n,0.6429116999997859,incorrect,c
153,2F4K,154,1,66.85826210387862,75.59477724184136,2.0079841245011294,71.63977016214655,1,c,0.7939526000000114,correct,c
154,2F4K,155,1,49.18095719875927,38.06062435457473,1.3903313138480158,41.83350827583628,2,c,0.7089415999998891,incorrect,n
155,2F4K,156,2,61.70289084470074,42.54142616687513,1.803859189660544,45.80976038926262,1,b,0.6240359000003082,incorrect,v
156,2F4K,157,1,46.7696845826642,59.1962865838603,1.3223375868904956,60.17073612993574,1,c,0.7878518999996231,correct,c
157,2F4K,158,2,38.74742125852295,43.74534217474024,1.1191649125671448,46.88120937105856,2,b,2.3369151000001693,correct,b
158,2F4K,159,2,78.54586727515593,59.5131311223512,2.5604120762745053,60.42553359892754,1,v,0.5259722000000693,correct,v
159,2F4K,160,2,44.95171317249889,61.93943083583376,1.2732814879423002,62.341132217849854,2,b,0.502642499999638,correct,b
160,2F4K,161,2,66.29768351645015,55.63072588370365,1.9847131435931795,57.23774881394385,1,v,1.6252121000002262,correct,v
161,2F4K,162,1,38.46468924776741,51.334609435116406,1.1126043701646793,53.57086481030807,1,c,1.2067330999998376,correct,c
162,2F4K,163,2,45.09313101592847,61.15858349573293,1.2770313394701145,61.731741643298456,2,b,1.2187409000002845,correct,b
163,2F4K,164,1,49.46142985487194,44.028716929625816,1.3984637867186351,47.1333255493812,2,c,0.6365195000003041,incorrect,n
164,2F4K,165,2,62.92260908545754,47.683713767244576,1.8501962080500471,50.37452785850481,1,b,2.415801800000281,incorrect,v
165,2F4K,166,1,47.95148066814163,40.08192132002257,1.3552362973339245,43.62300275457027,2,n,2.9195411000000604,correct,n
166,2F4K,167,2,36.57823869816064,45.553954455247485,1.0698044878518695,48.48891028766389,2,b,1.1544046000003618,correct,b
167,2F4K,168,1,49.64916336658535,56.193424686340165,1.4039337916978267,57.708088115327534,1,n,2.1789824000002227,incorrect,c
168,2F4K,169,2,74.98760433025917,62.73214511627259,2.377801247279274,62.95252420273853,1,v,0.7332851000001028,correct,v
169,2F4K,170,1,60.519394466113056,45.83254500960604,1.7600078138742743,48.73614458999884,2,c,0.7154104999999618,incorrect,n
170,2F4K,171,1,60.6064766744725,45.097195050404224,1.7631977649357324,48.08327590237455,2,n,0.4904897000001256,correct,n
171,2F4K,172,1,24.302702264362377,46.19039569320826,0.8287914746364836,49.053498382928346,1,c,0.7142250000001695,correct,c
172,2F4K,173,2,71.57283366118675,59.80250739461995,2.2148131762863934,60.657339556890754,1,v,0.8064878999998655,correct,v
173,2F4K,174,2,40.85931683396952,50.88134842689962,1.1694089232258371,53.177327726364055,2,b,0.9395864000002803,correct,b
174,2F4K,175,2,51.99588397189996,67.62784905398837,1.4741430394016544,66.55052916473477,2,b,1.4372843000001012,correct,b
175,2F4K,176,2,43.82253208765289,51.81346438059662,1.2437322727038844,53.98541741600542,2,b,0.8658116000001428,correct,b
176,2F4K,177,2,63.42814987547333,45.93277092236153,1.8697488500666235,48.82505418436896,1,v,2.245869700000185,correct,v
177,2F4K,178,1,36.978426952721634,54.16009313381701,1.0787442044734594,55.9967705660981,1,c,1.0123539999999593,correct,c
178,2F4K,179,1,40.70079276667313,56.84510871658036,1.1655604123789018,58.24949070375081,1,c,1.1641676000003827,correct,c
179,2F4K,180,2,52.26093257625252,64.67153159459978,1.482290255335893,64.41580617034568,2,b,2.17754530000002,correct,b
180,2F4K,181,2,46.529577215369386,38.80319080407569,1.3157517525442344,42.48973597125628,1,b,0.5692122000000381,incorrect,v
181,2F4K,182,2,56.34764620123093,36.00483893045073,1.613763747802201,40.02639854874578,1,b,0.6778845000003457,incorrect,v
182,2F4K,183,2,58.42051744580122,47.04137120471048,1.6848445899589304,49.80701609492116,1,v,0.5997100999998111,correct,v
183,2F4K,184,1,42.38390497608926,26.454394601504397,1.207076531517157,31.95954556601652,2,n,1.6799995000001218,correct,n
184,2F4K,185,2,66.11857589480717,73.68682958683817,1.9773349503106052,70.516509407021,2,b,0.8546889999997802,correct,b
185,2F4K,186,2,31.042750075217327,51.39585333649621,0.9534852343331236,53.62395513767576,2,b,0.8910470999999234,correct,b
186,2F4K,187,1,64.53917275595406,76.82854613412852,1.9134486471333387,72.3319005155114,1,n,1.2482021000000714,incorrect,c
187,2F4K,188,1,40.837052847101766,53.77150718502003,1.16886765126736,55.66620814702763,1,c,1.0548696000000746,correct,c
188,2F4K,189,2,44.8969560987587,37.11154332460769,1.2718325020988994,40.99728200928471,1,b,0.6846795000001293,incorrect,v
189,2F4K,190,1,53.36017334881809,44.57056316698584,1.5165627580436654,47.61522078810348,2,n,0.6361464999999953,correct,n
190,2F4K,191,1,36.71134061360932,42.38843059284073,1.072769569045333,45.673596627058174,1,n,0.8052867000001243,incorrect,c
191,2F4K,192,2,29.79776079145508,43.82469482307416,0.9291174107193142,46.95181402176984,2,b,0.611888199999612,correct,b
192,2F4K,193,1,51.96088538976712,41.918653755335725,1.4730705851688506,45.25555635106582,2,c,1.4251015999998344,incorrect,n
193,2F4K,194,2,34.15793824370029,19.98383045628544,1.0172950338010684,26.98726648432478,1,b,1.291884399999617,incorrect,v
194,2F4K,195,2,51.769440537609896,62.66937091135755,1.4672179723626928,62.90438163522661,2,v,0.4904878999996072,incorrect,b
195,2F4K,196,2,50.18691784886524,34.58350947144122,1.419721091206661,38.78748843964576,1,b,0.4060570999999982,incorrect,v
196,2F4K,197,1,51.95690020465912,36.35767280756144,1.4729485174644892,40.335389107003856,2,n,0.5156400000000758,correct,n
197,2F4K,198,2,50.454510243754434,65.83170482034191,1.4276430463093266,65.26789507330147,2,b,1.0004232999999658,correct,b
198,2F4K,199,2,45.10223297630085,33.31198464581724,1.2772730659966764,37.68812681110924,1,b,0.7881099999999606,incorrect,v
199,2F4K,200,2,57.400359824266005,43.22873548031627,1.6494794391321643,46.42148092018509,1,v,0.40611930000022767,correct,v
200,2F4K,201,1,46.19056013879227,58.637665190201055,1.306508765758832,59.71904705908014,1,n,5.0,correct,c
201,2F4K,202,1,52.038565791261945,65.63997152153144,1.4754519862363245,65.12832405668608,1,n,1.9834577999999965,incorrect,c
202,2F4K,203,2,28.98610956618714,41.33507381288615,0.9135675341167172,44.73643918394611,2,b,1.2127058000000943,correct,b
203,2F4K,204,1,57.71301505045965,34.709280099253604,1.660238437920733,38.89671396859073,2,n,0.5330104999998184,correct,n
204,2F4K,205,1,63.34273433106012,43.90507475956954,1.8664308127096725,47.0233287129188,2,c,0.5943916999999601,incorrect,n
205,2F4K,206,1,55.34209365267392,47.15326637452538,1.5803704868334558,49.90596030541945,2,n,0.49052449999999226,correct,n
206,2F4K,207,2,57.163851363326415,43.75339526301036,1.6413871237594413,46.888374839900514,1,v,0.806054000000131,correct,v
207,2F4K,208,1,48.37307721094963,62.60136762265503,1.3671696883282416,62.852175301963264,1,c,1.1268254000001434,correct,c
208,2F4K,209,1,41.77968937541655,35.6974665490157,1.1920053254555896,39.757663802773074,2,c,0.6476118999999017,incorrect,n
209,2F4K,210,2,48.86099666057648,58.14957303346675,1.381111599323588,59.32188148531381,2,b,0.6847587000002022,correct,b
210,2F4K,211,1,42.65952022767898,53.04280787202448,1.2140144611308084,55.04353601324496,1,c,0.9580861999997978,correct,c
211,2F4K,212,1,59.82944811921173,51.08157536750909,1.7349372017530047,53.35130480832122,2,c,0.666558299999906,incorrect,n
212,2F4K,213,1,53.83579821965533,37.07254981258716,1.5316365004440473,40.96299236747704,2,n,0.35699479999993855,correct,n
213,2F4K,214,1,43.5253630896496,62.01374192890438,1.2360703818927432,62.39876051855544,1,c,1.0670874000002186,correct,c
214,2F4K,215,1,70.51364396903148,54.06234304817168,2.1665646980429902,55.91371658373402,2,n,2.025995299999977,correct,n
215,2F4K,216,2,50.02362292001333,41.20610294830677,1.4149084298186545,44.62175506727746,1,b,1.4372801999998046,incorrect,v
216,2F4K,217,2,50.62349751340423,61.01234188362952,1.4326685965170038,61.6168435398134,2,v,0.6969550999997409,incorrect,b
217,2F4K,218,1,51.52026909141927,60.09603571224877,1.459635427450126,60.8915769677704,1,n,1.68649460000006,incorrect,c
218,2F4K,219,2,66.17828269469659,51.48090389621637,1.9797914707634408,53.69764882039013,1,b,1.2612788999999793,incorrect,v
219,2F4K,220,1,39.52603274014643,51.490849663042255,1.137432539348035,53.70626393400221,1,c,2.294390900000053,correct,c
220,2F4K,221,1,50.46922109401538,37.504144951798175,1.428079834162925,41.34282866326218,2,n,0.7020829999996749,correct,n
221,2F4K,222,2,54.504449658678205,39.83582950530164,1.5530814469533354,43.40463743070411,1,b,0.7821269000000939,incorrect,v
222,2F4K,223,1,47.31267203195482,34.29851650837105,1.337352851480884,38.5402967350207,2,n,0.6483088999998472,correct,n
223,2F4K,224,2,43.25509898990148,55.10610629061439,1.2291431698130322,56.79694681148163,2,v,0.6847290999999132,incorrect,b
224,2F4K,225,2,37.11807365521045,27.59228468443783,1.0818812917158922,32.88213468052093,1,b,0.39927209999996194,incorrect,v
225,2F4K,226,2,40.65591540222787,53.67214446349554,1.1644732204434156,55.58151345905878,2,v,0.37524189999976443,incorrect,b
226,2F4K,227,2,48.34395452809952,59.58832369302564,1.3663419958240512,60.48585032524695,2,b,0.34020639999971536,correct,b
227,2F4K,228,1,38.3965870889118,25.51580963159381,1.1110298766323092,31.208402522099792,2,n,0.7384298000001763,correct,n
228,2F4K,229,2,75.70087770228758,62.36192946011049,2.4133318854982497,62.667917518777415,1,v,0.7275890999999319,correct,v
229,2F4K,230,2,54.39043462140192,39.7305571161836,1.5494036448779729,43.31126114293491,1,v,2.24593700000014,correct,v
230,2F4K,231,2,52.57137373820787,35.52904136231593,1.4918900469378944,39.61059223519897,1,v,1.4797076999998353,correct,v
231,2F4K,232,1,51.01496945175352,70.46719170936099,1.4443787332066274,68.48147367195395,1,n,0.5700899999997091,incorrect,c
232,2F4K,233,1,49.98901309274127,35.34449908584704,1.4138904991196786,39.44959946590247,2,c,0.48448310000003403,incorrect,n
233,2F4K,234,1,69.80501344029584,58.08175541665726,2.134873228343847,59.26651678448262,2,n,0.3341899000001831,correct,n
234,2F4K,235,1,38.013507771398025,23.591508607696174,1.1022146693007835,29.69831282812206,2,c,1.3523090000003322,incorrect,n
235,2F4K,236,1,48.37409781002957,63.830627394632415,1.367198703752007,63.787156275545385,1,n,0.5879590999998072,incorrect,c
236,2F4K,237,1,64.57742532068765,52.130618612107455,1.9149712856962608,54.25926818198106,2,c,0.7939922999998998,incorrect,n
237,2F4K,238,1,37.226692244390506,49.079717698815,1.08432765549706,51.60327092932347,1,n,0.4191971999998714,incorrect,c
238,2F4K,239,2,47.41122524004476,59.22734174189689,1.34009637430659,60.19575498243104,2,b,3.0342227000001003,correct,b
239,2F4K,240,2,47.52541500981219,67.11187228836866,1.3432822268118494,66.18674495579839,2,b,0.8621985999998287,correct,b
240,2F4K,241,2,48.22702649389963,34.98318874132095,1.3630238390195193,39.1348725475521,1,b,2.1120703999999932,incorrect,v
241,2F4K,242,1,47.66526935758091,68.34189367663348,1.3471944319116569,67.0475650157861,1,n,1.668005600000015,incorrect,c
242,2F4K,243,1,59.04867426354511,47.92500936247053,1.7069966509975116,50.58739241706089,2,c,0.47227079999993293,incorrect,n
243,2F4K,244,1,68.49796754018772,55.43398061107031,2.0776303961558336,57.072691476178605,2,n,1.054748500000187,correct,n
244,2F4K,245,1,36.78878706114577,58.41985053806402,1.0744986065562392,59.5420933122662,1,n,1.1886144000000058,incorrect,c
245,2F4K,246,1,53.68348697202045,68.5306298287826,1.5267931395985472,67.17768225716061,1,c,0.3813380999999936,correct,c
246,2F4K,247,2,47.80684674804037,56.85383332639297,1.3511664419791627,58.2567140483396,2,b,0.5936639999999898,correct,b
247,2F4K,248,2,60.79588103992182,43.473751774373525,1.7701559063927357,46.63953438219959,1,b,0.30274359999975786,incorrect,v
248,2F4K,249,2,63.26639279879889,78.31540193555216,1.8634702462612316,73.12933667932026,2,v,0.35175040000012814,incorrect,b
249,2F4K,250,2,79.32308894879334,67.74470023368974,2.6021293306661817,66.63237902779036,1,b,0.3401885000002949,incorrect,v
250,2F4K,251,1,43.74080011164706,57.14264650557524,1.2416202595734522,58.49545193067664,1,n,0.5330075000001671,incorrect,c
251,2F4K,252,2,30.768434723169293,46.13122110596105,0.9480618206457004,49.00103854236334,2,v,0.7564744999999675,incorrect,b
252,2F4K,253,2,62.13653791877055,49.06252327701896,1.8201989375923349,51.58818029903711,1,b,0.3826664000002893,incorrect,v
253,2F4K,254,1,60.88953179661805,45.88625196126361,1.773606489318645,48.78379002082173,2,c,0.9335774999999558,incorrect,n
254,2F4K,255,1,34.57297192759386,56.960034339062375,1.0261126744754543,58.34458724950118,1,c,1.3704680999999255,correct,c
255,2F4K,256,1,46.226222756771385,52.52352750929134,1.307478010175132,54.597705943424266,1,c,0.5700987999998688,correct,c
256,2F4K,257,2,53.76745237717537,69.15229503915839,1.5294612666143872,67.6024844460625,2,b,0.9884294000003138,correct,b
257,2F4K,258,1,25.03655157093067,37.0938210947832,0.8415357971290609,40.98169695390959,1,n,2.3187377999997807,incorrect,c
258,2F4K,259,1,30.50290946232204,41.09557779348568,0.9428415766437996,44.52348733892816,1,c,0.5939514000001509,correct,c
259,2F4K,260,1,48.48183879124136,35.97668348556999,1.3702652242352618,40.00176483666054,2,n,0.7393637999998646,correct,n
260,2F4K,261,2,62.80396969588432,48.8756765564628,1.8456373317770205,51.42411985218903,1,b,1.62539790000028,incorrect,v
261,2F4K,262,2,38.90276414790207,56.99288645483514,1.1227859566529794,58.371749752942975,2,v,0.976024900000084,incorrect,b
262,2F4K,263,1,51.51130091201504,60.09782637566566,1.4593632482682466,60.89300313440972,1,n,0.7082006000000547,incorrect,c
263,2F4K,264,1,51.74637836612477,70.35789445446525,1.466514515583738,68.40943772086881,1,c,0.45406880000018646,correct,c
264,2F4K,265,2,31.700351580862844,38.22546751205572,0.966613163869217,41.979047706773386,2,b,0.7818695000000844,correct,b
265,2F4K,266,2,31.82087327796044,44.57321536626735,0.969038706895332,47.61757883023179,2,b,0.5754680000000008,correct,b
266,2F4K,267,1,49.96120433585959,71.1666878203523,1.4130731294763144,68.93800581304144,1,c,1.0660474000001159,correct,c
267,2F4K,268,2,40.68945899676803,57.56610903034191,1.1652857464947974,58.84414343134688,2,b,1.3696844000000965,correct,b
268,2F4K,269,2,52.04521676390495,42.09045588914488,1.475656059913996,45.40842596870259,1,v,1.9111708999998882,correct,v
269,2F4K,270,1,54.050162862295856,41.82030175521808,1.5384791435650182,45.16805050804313,2,n,0.6118949000001521,correct,n
270,2F4K,271,1,45.523250321512336,62.28658593420178,1.2885044410009727,62.60979642383177,1,n,0.508681599999818,incorrect,c
271,2F4K,272,1,38.72742756671765,49.07882659330027,1.1186997084842722,51.60248888226224,1,c,0.44199010000011185,correct,c
272,2F4K,273,2,54.461308230276174,37.31391608246141,1.5516888011350929,41.17533113068387,1,v,1.0609804000000622,correct,v
273,2F4K,274,2,32.78757281507011,52.26023456317836,0.988715383445544,54.37101716301444,2,b,2.0684251999996377,correct,b
274,2F4K,275,2,49.13717885009783,42.10552998662981,1.3890662083827732,45.421839649661386,1,v,2.71911050000017,correct,v
275,2F4K,276,1,51.997750618585805,67.79279815904349,1.4742002605928244,66.66601200719634,1,n,1.2794051999999283,incorrect,c
276,2F4K,277,2,35.733219204897544,48.502725442880376,1.051170414411269,51.09625270791556,2,b,1.0426291999997375,correct,b
277,2F4K,278,2,69.48961276675604,53.34305305724057,2.1209173226599245,55.30052378083505,1,v,0.7872015000002648,correct,v
278,2F4K,279,2,38.923692713856525,55.70690221429645,1.1232746964050515,57.30157293264773,2,b,1.5586711999999352,correct,b
279,2F4K,280,1,70.30818056633395,57.83849039466175,2.15732781541586,59.06756385497667,2,c,2.48339470000019,incorrect,n
280,2F4K,281,1,54.36129664386135,67.26288836832899,1.5484651343931428,66.29361388968707,1,n,3.228687499999978,incorrect,c
281,2F4K,282,2,52.74418677144328,38.7512011653088,1.4972608668167364,42.44374145599706,1,v,0.7468860000003588,correct,v
282,2F4K,283,2,33.06240668831771,49.9107807600692,0.9943820786687372,52.331186926344,2,b,0.5572496999998293,correct,b
283,2F4K,284,1,58.63945107176226,37.939529864531,1.692532494678683,41.72664748030458,2,c,0.799337899999955,incorrect,n
284,2F4K,285,2,43.26430956949476,56.60564249785935,1.2293786084519287,58.0509713894506,2,b,0.9882043999996313,correct,b
285,2F4K,286,1,68.11818352436372,48.605467998691175,2.061287165067712,51.18662688201271,2,c,0.6846772000003511,incorrect,n
286,2F4K,287,2,56.12194369130048,39.68820365556667,1.6062075327469545,43.273699990971416,1,v,0.8611101999999846,correct,v
287,2F4K,288,2,28.355842238166403,48.89924773545817,0.9016724002059155,51.44482398484163,2,b,0.4116351000002396,correct,b
288,2F4K,289,1,42.66798265683036,53.94454779190776,1.2142281115915634,55.81354125620948,1,c,1.4736096999999972,correct,c
289,2F4K,290,2,65.04537600483306,48.306378178229664,1.933696370355673,50.9234365779367,1,v,0.6907702999997127,correct,v
290,2F4K,291,1,48.22245674566103,37.127893095917386,1.362894323501416,41.01166113978733,2,n,0.8424956999997448,correct,n
291,2F4K,292,2,65.9170873387688,48.342768885428136,1.9690675712749277,50.95547636477711,1,v,1.1521676000002117,correct,v
292,2F4K,293,1,28.921866327955588,45.03550963992848,0.9123479135421168,48.02847054981649,1,n,1.0730195999999523,incorrect,c
293,2F4K,294,1,69.26997826712386,57.1682153365137,2.1112528170413816,58.51655190063531,2,n,0.7089907999998104,correct,n
294,2F4K,295,1,40.501680875398094,54.78221876437954,1.1607444849692363,56.52374092285648,1,c,0.7150925000000825,correct,c
295,2F4K,296,1,59.41083049649417,73.8282905067141,1.7199002742223184,70.6019555694947,1,n,3.0582298999997874,incorrect,c
296,2F4K,297,2,49.52453185647144,59.92638312301255,1.4003000123315903,60.756303846927246,2,b,2.2944478999997955,correct,b
297,2F4K,298,1,23.839003304501205,42.44247144169668,0.820838383017266,45.721691482983054,1,n,3.58106429999998,incorrect,c
298,2F4K,299,2,40.14485313509713,50.50226172973525,1.1521636072563883,52.84738187866575,2,b,1.4483553999998549,correct,b
299,2F4K,300,2,57.90595907933375,43.28519302071592,1.6669129579924604,46.47172720406727,1,b,0.8000190000002476,incorrect,v
300,2F4K,301,2,71.15514845658724,54.7884764444549,2.1956596723812933,56.52902694349192,1,b,0.6725933000002442,incorrect,v
301,2F4K,302,2,41.03223955037331,21.74589161028176,1.1736214844532724,28.29074697013497,1,v,0.763628300000164,correct,v
302,2F4K,303,2,61.1324498531832,43.02932405434588,1.782588242756546,46.24400270824371,1,v,2.6950189999997747,correct,v
303,2F4K,304,2,53.25089964957627,64.47188722002485,1.5131206109775837,64.26738017083758,2,b,0.4237398000000212,correct,b
304,2F4K,305,2,31.357388912481525,46.30923744814546,0.9597440840938308,49.15883196462529,2,b,0.8364496999997755,correct,b
305,2F4K,306,2,42.92948727072858,62.1826476173287,1.2208488693941917,62.52950675222476,2,b,0.8295779000000039,correct,b
306,2F4K,307,2,36.3028087592251,28.95184960393681,1.0636947977756477,34.00050147273667,1,b,0.44799650000004476,incorrect,v
307,2F4K,308,1,44.2879287951024,56.4482179517723,1.2558271118306,57.92019583535252,1,n,1.5283315000001494,incorrect,c
308,2F4K,309,1,61.216306753693104,48.60072148347538,1.7856993520366695,51.182452613903294,2,c,1.4311772000000929,incorrect,n
309,2F4K,310,1,49.586975963857846,63.82895109679912,1.4021194671023631,63.78589406343128,1,n,0.4358790000001136,incorrect,c
310,2F4K,311,1,30.30194342889429,43.770999976054455,0.93890969020635,46.9040390132115,1,n,0.46017140000003565,incorrect,c
311,2F4K,312,2,37.07998642218755,50.84123721983772,1.0810247790688978,53.142450301080494,2,b,4.339628299999731,correct,b
312,2F4K,313,2,44.14267129434635,58.82051418698223,1.252039552887245,59.867236062625686,2,b,0.4495167999998557,correct,b
313,2F4K,314,1,59.90994023065063,51.37689208284861,1.737843547674037,53.60752042222081,2,n,2.026245700000345,correct,n
314,2F4K,315,2,62.73138417677594,46.43570817190113,1.842853677128695,49.270892944632685,1,b,1.2369955000003756,incorrect,v
315,2F4K,316,2,37.176820361237525,50.451651721521735,1.0832037291731171,52.80327863624519,2,b,0.6547015000001011,correct,b
316,2F4K,317,2,68.37900869678924,47.37234396011039,2.0724973555800688,50.099580657187104,1,v,1.4372420999998212,correct,v
317,2F4K,318,2,59.30037180303797,70.2005207780507,1.7159543275814146,68.30538494797415,2,v,0.6786315999997896,incorrect,b
318,2F4K,319,1,35.20856841734546,51.40386789287335,1.039764678982419,53.63090118758087,1,n,1.7034247000001415,incorrect,c
319,2F4K,320,1,55.97099067152435,45.38956496123812,1.6011735846085475,48.342959351002655,2,n,0.41066799999998693,correct,n
320,2F4K,321,2,65.74805247249533,53.2347263860874,1.962158485489797,55.20787229354587,1,b,1.909975100000338,incorrect,v
321,2F4K,322,1,50.184061567427655,73.6271952593019,1.4196367697985934,70.48038622457807,1,n,0.7382959999999912,incorrect,c
322,2F4K,323,2,65.02002963762432,47.64770923067798,1.932677459298868,50.34274994461378,1,v,0.5572320999999647,correct,v
323,2F4K,324,1,50.85561203535352,62.07865732545865,1.4396003529266033,62.449049682129655,1,n,1.2673207000002549,incorrect,c
324,2F4K,325,2,57.56861864492934,42.85753675893575,1.6552608182381123,46.09110653439585,1,v,0.8789316000002145,correct,v
325,2F4K,326,1,26.77311123770013,40.02651440913896,0.8724796198791562,43.57382862567276,1,n,0.7515121999999792,incorrect,c
326,2F4K,327,1,27.531425989778413,38.97020856989718,0.886346544137562,42.63754142694016,1,c,0.5814922999998089,correct,c
327,2F4K,328,2,31.39930828485624,46.44045199961237,0.960581047036868,49.275095565786856,2,b,0.8000481000003674,correct,b
328,2F4K,329,1,49.41408245081931,31.820666159075056,1.397087590577035,36.41131126984965,2,n,0.7385487999999896,correct,n
329,2F4K,330,2,37.97688676907868,47.09431824159128,1.1013756387406706,49.85383918693104,2,b,0.47224640000013096,correct,b
330,2F4K,331,1,38.94074868103841,53.488221864792266,1.123673157625578,55.42456390531229,1,c,1.0722457000001668,correct,c
331,2F4K,332,1,35.06232604538082,52.62566260576972,1.036607531893991,54.68552785903309,1,n,2.446204899999884,incorrect,c
332,2F4K,333,1,40.18905468048454,53.03360828180287,1.1532230998564297,55.03565256610571,1,n,0.6967496000002029,incorrect,c
333,2F4K,334,2,47.8681160364148,35.012290116642646,1.3528890048824225,39.16019802901327,1,v,1.7409397000001263,correct,v
334,2F4K,335,1,42.59587107531452,57.53966185969329,1.2124087189077697,58.82241374460276,1,c,1.0612848999999187,correct,c
335,2F4K,336,1,48.14948181860863,67.15602880776814,1.3608277393473915,66.21802679537566,1,c,0.6725623000002088,correct,c
336,2F4K,337,2,54.53401043414234,39.36650834449983,1.554036418115514,42.98852733104691,1,v,1.3449939000001905,correct,v
337,2F4K,338,1,80.22051468695425,62.54482592704646,2.6511447471811347,62.80872582690952,2,n,1.5517108999997618,correct,n
338,2F4K,339,1,54.67295353458201,60.66361353533821,1.5585328957254418,61.341899601923096,1,n,1.7649974999999358,incorrect,c
339,2F4K,340,1,67.0087072180599,51.064334099271335,2.014275774910435,53.33633207515146,2,n,0.9699663999999757,correct,n
340,2F4K,341,2,47.89524541601419,31.70301491609166,1.3536524384514297,36.31121623662516,1,b,2.573622599999908,incorrect,v
341,2F4K,342,1,43.91131863803178,58.2040319669961,1.2460306523924776,59.36630881358632,1,c,1.4546455999998216,correct,c
342,2F4K,343,1,58.24118460141276,48.31831256927328,1.6785732999671352,50.93394458864323,2,n,2.3186976000001778,correct,n
343,2F4K,344,2,64.96196439009799,72.97984467640497,1.93034528924402,70.08437062763444,2,v,5.0,correct,b
344,2F4K,345,1,48.42789823721224,30.774384936727245,1.3687291110694328,35.52466328318489,2,c,1.6973141000003125,incorrect,n
345,2F4K,346,1,46.17390132388984,59.4730159893187,1.3060562560241025,60.39333088914172,1,c,1.758861799999977,correct,c
346,2F4K,347,2,45.68848800094206,58.310052216711455,1.292939384168058,59.4527183438955,2,b,1.2673519999998462,correct,b
347,2F4K,348,1,57.01195581876768,46.94135992461936,1.6362108519070242,49.71855182638132,2,n,0.660477599999922,correct,n
348,2F4K,349,2,56.256270229915415,37.00192626475812,1.6107003306543326,40.90090265228772,1,v,1.4979554000001372,correct,v
349,2F4K,350,1,71.81151917844119,58.898256342563656,2.225833341377659,59.93014172891631,2,n,1.7891072000002168,correct,n
350,2F4K,351,1,53.96702674188497,38.336256225034255,1.5358217692069722,42.076908201218686,2,c,0.8052393000002667,incorrect,n
351,2F4K,352,2,34.47972640745499,47.1301443195256,1.0241249839564517,49.88551724094255,2,b,1.21186680000028,correct,b
352,2F4K,353,2,33.56245325248266,50.12397243296191,1.004775782649728,52.51743124466005,2,b,0.8243474000000788,correct,b
353,2F4K,354,1,49.79294384894565,42.08922469683124,1.4081375977846702,45.40733039752651,2,n,0.10968510000020615,correct,n
354,2F4K,355,2,47.820241886793376,62.89784772492028,1.351542853813605,63.0793755176586,2,b,0.8728315000003022,correct,b
355,2F4K,356,2,56.90864202702347,45.00649313830213,1.6326994716679477,48.00268853988487,1,b,0.769703799999661,incorrect,v
356,2F4K,357,1,46.13575939542146,37.32985799621439,1.3050207824252216,41.189363198081686,2,c,1.4554176999999981,incorrect,n
357,2F4K,358,2,55.58129293010566,67.0626208805797,1.5882508463261176,66.15182088353943,2,b,0.9629064999999173,correct,b
358,2F4K,359,1,66.3114912525086,61.37280030211764,1.985283083789797,61.89961268486614,2,n,1.48029729999962,correct,n
359,2F4K,360,2,61.01700374624206,38.28967063442826,1.7783140327278553,42.03575441499435,1,v,1.5222317000002477,correct,v
360,2F4K,361,1,77.63032790827151,64.20742219187643,2.5121277593008333,64.06996749441866,2,n,2.403453399999762,correct,n
361,2F4K,362,2,36.593880336870086,52.45556877493185,1.0701525076994578,54.5392354157806,2,b,0.8295193999997537,correct,b
362,2F4K,363,2,52.95644519523478,57.53921022573534,1.503884067574171,58.82204261468748,2,v,1.2554410000002463,incorrect,b
363,2F4K,364,2,51.29357684741825,70.5188323409903,1.452770996232711,68.5154434952818,2,b,0.5511854999999741,correct,b
364,2F4K,365,1,60.37343118309588,73.71905004297945,1.7546738998455944,70.53600151330103,1,n,1.1814742999999908,incorrect,c
365,2F4K,366,1,53.260411532999576,38.80712879605667,1.5134199268398607,42.49322014605941,2,n,0.33271300000023984,correct,n
366,2F4K,367,2,42.85519626485334,29.735784651769364,1.2189643116652495,34.652764099503905,1,v,5.0,correct,v
367,2F4K,368,2,71.18593806481256,54.31699036377796,2.1970658977881894,56.1299364193834,1,b,0.32206230000019787,incorrect,v
368,2F4K,369,2,61.28454339155782,74.5582496532568,1.788234952559289,71.03739980863733,2,v,1.187554299999647,incorrect,b
369,2F4K,370,1,46.6843738562599,28.85701579299262,1.3199938571064866,33.9219531345376,2,n,0.5208204999998998,correct,n
370,2F4K,371,2,48.96758731896478,40.65269212376073,1.384176215057418,44.12986599977381,1,b,0.17028510000000097,incorrect,v
371,2F4K,372,1,57.03110311547432,48.80882853085152,1.6368624501629256,51.36539117447601,2,n,1.115496500000063,correct,n
372,2F4K,373,2,56.123031423814005,43.657604562605776,1.606243863583334,46.803139956672304,1,b,0.532951299999695,incorrect,v
373,2F4K,374,2,50.96461582012084,33.52217938672177,1.4428671528132555,37.86921939646767,1,v,0.5087200999996639,correct,v
374,2F4K,375,2,42.213224442523504,24.54335603052104,1.2027999668606928,30.44008241576887,1,b,0.36455590000014126,incorrect,v
375,2F4K,376,1,38.74130152978996,52.02033532279611,1.1190225009754593,54.16410892622743,1,c,1.692145999999866,correct,c
376,2F4K,377,1,56.01576582359023,35.53395595175944,1.6026650885233225,39.614881867935104,2,c,1.0720623000001979,incorrect,n
377,2F4K,378,1,48.6355723770232,31.430210231832028,1.3746526973681523,36.07949727571538,2,n,0.7335293999999521,correct,n
378,2F4K,379,2,47.64302423642447,62.97955732314364,1.346571398514112,63.14180446450127,2,b,1.279387599999609,correct,b
379,2F4K,380,1,41.94735104125204,64.62943531981674,1.1961684171457103,64.38455284341323,1,c,1.285598299999947,correct,c
380,2F4K,381,1,53.42943942874879,59.5453075737311,1.5187487095208012,60.45135150663757,1,n,0.8788131999999678,incorrect,c
381,2F4K,382,2,61.571687919015496,41.174734223797046,1.798944449488341,44.5938638312272,1,v,1.0670604999995703,correct,v
382,2F4K,383,2,48.56909653692149,66.7929946571015,1.3727537916375672,65.96001793390441,2,b,2.385461000000305,correct,b
383,2F4K,384,1,68.05174098859663,48.79577515476619,2.058441187777292,51.353921265978535,2,n,1.5951892999996744,correct,n
384,2F4K,385,2,60.02377875782783,50.79449340746429,1.7419622536833903,53.10179537390138,1,v,1.0246167000000241,correct,v
385,2F4K,386,2,43.78410411572972,65.58092751819025,1.2427388191307558,65.0852427532359,2,b,0.44950180000023465,correct,b
386,2F4K,387,1,56.39579936857808,71.21995229344073,1.6153804460997427,68.97244844057138,1,c,1.2301047000000835,correct,c
387,2F4K,388,1,37.83881632439879,47.992212673379385,1.0982180206290473,50.64664409633904,1,n,1.152429100000063,incorrect,c
388,2F4K,389,1,26.00160024978656,46.19565339699365,0.8585940067587952,49.05815911598964,1,c,0.8788801000000603,correct,c
389,2F4K,390,1,44.48533008185072,36.526823057419584,1.2609926813445385,40.483705873733385,2,c,0.8060536000002685,incorrect,n
390,2F4K,391,2,24.63647245281384,37.66948465449399,0.8345637564901455,41.488512136189954,2,b,0.7818614000002526,correct,b
391,2F4K,392,2,63.507450857433625,47.37681630343549,1.872834642320171,50.10353188042396,1,v,2.245860300000004,correct,v
392,2F4K,393,2,55.21666168189444,67.84919701569714,1.576253802053862,66.70540645320267,2,v,0.9214007999999012,incorrect,b
393,2F4K,394,1,55.264586639828494,65.17848690725873,1.577825434636749,64.79035132059221,1,n,0.9205824999999095,incorrect,c
394,2F4K,395,2,52.90612979031431,39.393590555466986,1.5023114074709107,43.01252620210269,1,v,1.1275885000000017,correct,v
395,2F4K,396,1,36.98403921717329,59.64257657856632,1.0788701053229215,60.52933372705733,1,n,1.4725993000001836,incorrect,c
396,2F4K,397,2,49.38255469908377,58.3537549081426,1.3961719585001304,59.48830590377063,2,v,1.315929199999573,incorrect,b
397,2F4K,398,1,50.416585292352856,57.644877359194304,1.426517612011905,58.90882350002561,1,n,0.6049162999997861,incorrect,c
398,2F4K,399,1,61.59195523971484,45.182554634753615,1.7997027691690537,48.15910586847655,2,n,0.8789114000001064,correct,n
399,2F4K,400,2,19.986082623678563,35.71358214448909,0.7576389879943183,39.77174304618389,2,b,1.649544600000354,correct,b
