,condition,trial,sub_task,x,y,xt,yt,cat,resp,rt,acc,correct_resp
0,2F4K,1,2,69.14495344689946,57.3084600558277,2.1057710727178374,59.09396140649411,1,b,5.0,NA,v
1,2F4K,2,1,65.49749862541891,48.96980586495317,1.9519619883465875,51.854187208524166,2,n,2.4872993000008137,correct,n
2,2F4K,3,1,45.05589532676823,57.38015034365313,1.2760429239813973,59.15394785619697,1,n,3.0235195999994176,incorrect,c
3,2F4K,4,2,56.768578656604674,42.73435166404494,1.6279510940945894,46.240172656401406,1,b,2.1899195999994845,incorrect,v
4,2F4K,5,2,52.257787576075785,65.8886096412865,1.4821933190351044,65.87818603616813,2,v,2.1037209000005532,incorrect,b
5,2F4K,6,2,38.25124146874773,48.59053195957276,1.1076769946487846,51.51554124892504,2,v,1.9788148999996338,incorrect,b
6,2F4K,7,2,57.240037706024616,41.873870643045855,1.6439895529694315,45.4621237815616,1,b,1.0914868999989267,incorrect,v
7,2F4K,8,1,30.450231645805964,46.11109468572791,0.9418093492887576,49.29008446815032,1,c,3.1450540000005276,correct,c
8,2F4K,9,1,37.20010135889829,58.78316690214912,1.0837282510153643,60.31811585567952,1,c,1.3882501000007323,correct,c
9,2F4K,10,2,47.23723148468335,33.651342114427,1.3352565345082177,38.11090096293804,1,b,2.695814999999129,incorrect,v
10,2F4K,11,2,61.1120116371474,37.06949016885108,1.7818308023759537,41.13840474918661,1,v,1.073228699999163,correct,v
11,2F4K,12,1,62.06303985943613,47.60724777614348,1.8174191628163776,50.63517472079702,2,c,1.7583248999999341,incorrect,n
12,2F4K,13,2,59.68623315785739,39.10776361448763,1.729778120759872,42.96630723643898,1,b,2.9802266000006057,incorrect,v
13,2F4K,14,1,47.561879614877846,35.278585846510914,1.3443011704522838,39.54506652763423,2,c,2.2263614000003145,incorrect,n
14,2F4K,15,1,67.78551823015215,52.32997676890099,2.047077251310775,54.825447108066015,2,c,2.469333099999858,incorrect,n
15,2F4K,16,2,33.25399472875484,50.14784444283207,0.9983515602695576,52.90223096201829,2,b,1.4387812000004487,correct,b
16,2F4K,17,2,56.16743221649759,62.437358737706376,1.6077275749570308,63.25353458221099,2,v,0.7697262000001501,incorrect,b
17,2F4K,18,2,53.19681106565642,62.2266621631589,1.5114196996914488,63.08841093694149,2,b,1.4697323999989749,correct,b
18,2F4K,19,2,40.139920829313255,34.55024265419046,1.152045442329389,38.90137181202408,1,b,2.792130300000281,incorrect,v
19,2F4K,20,2,55.39603552820369,40.80892890867147,1.5821441668117606,44.49990562340668,1,v,0.5926496000010957,correct,v
20,2F4K,21,2,44.10452488503842,49.5195046985728,1.2510467884942318,52.34397790827174,2,b,0.9094413999991957,correct,b
21,2F4K,22,2,59.3059054956801,42.38666992148561,1.7161517936414354,45.92576741810101,1,v,0.6556693000002269,correct,v
22,2F4K,23,2,54.95820711172761,35.99673894507499,1.5678050889479571,40.182308805971424,1,v,1.7338110999990022,correct,v
23,2F4K,24,2,36.71767930491056,46.484152487070176,1.0729109794566416,49.62600536894282,2,b,1.061088499998732,correct,b
24,2F4K,25,1,40.946357540968606,48.80603951962466,1.1715274239480773,51.70803165473976,1,c,2.1184755000012956,correct,c
25,2F4K,26,1,62.12265309324213,47.69715886976238,1.819673473184551,50.71580867723587,2,c,0.8244074000012915,incorrect,n
26,2F4K,27,1,51.8255077481284,70.37968059712331,1.4689295771661308,69.04277276019569,1,n,1.3244197999993048,incorrect,c
27,2F4K,28,1,33.574498530462776,48.427965310957696,1.0050274848968792,51.370222436099134,1,c,0.8851063000001886,correct,c
28,2F4K,29,1,47.68500485391283,63.38797678687551,1.3477474179489564,63.991785304101946,1,n,1.394902700001694,incorrect,c
29,2F4K,30,2,63.41753710518192,41.0646617114185,1.869336267537044,44.730861880802536,1,v,3.0360269999982847,correct,v
30,2F4K,31,1,49.448121096220014,59.09581586294304,1.3980768184126358,60.57490547059676,1,n,1.5162753999993583,incorrect,c
31,2F4K,32,2,48.04991367066207,33.53955720041547,1.358013112792613,38.012926591922565,1,b,1.8380517999994481,incorrect,v
32,2F4K,33,2,54.19496745133768,67.45855033180254,1.5431186809249042,67.01857126209698,2,v,0.8621576000005007,incorrect,b
33,2F4K,34,2,57.00443486922705,69.5204789368361,1.635954978766616,68.46107889329438,2,v,0.7152146000007633,incorrect,b
34,2F4K,35,1,28.434437194196622,45.200356007826,0.9031472408833238,48.46883388609042,1,n,1.7107367999997223,incorrect,c
35,2F4K,36,1,48.81516015678734,36.315704297861664,1.379795829213043,40.46608881737402,2,n,1.0611042000000452,correct,n
36,2F4K,37,2,39.90397498207221,49.31799157167505,1.1464069408619435,52.16457259416697,2,b,1.5176093000009132,correct,b
37,2F4K,38,1,20.93724485931671,39.232209358310975,0.7727734028546156,43.078293767080616,1,n,2.2653697000005195,incorrect,c
38,2F4K,39,2,36.92930255546106,53.66001752573701,1.0776428157487277,55.98381584956268,2,v,3.2715208000008715,incorrect,b
39,2F4K,40,2,47.90337019993695,56.669639085102425,1.3538811575301868,58.55737689956215,2,v,0.9956369999999879,incorrect,b
40,2F4K,41,1,75.11583784221654,59.04943878089664,2.3841502127260883,60.53687698969463,2,n,3.7501413999998476,correct,n
41,2F4K,42,1,39.05593389915083,50.716505917234095,1.126367815842033,53.40585688407971,1,c,0.9450966000003973,correct,c
42,2F4K,43,2,45.6659410634205,29.994991614184134,1.2923333311249536,34.949891992768,1,v,1.0797836000001553,correct,v
43,2F4K,44,2,75.96871439934107,55.48397001151457,2.426810455293471,57.55207933531044,1,v,0.7819472999999562,correct,v
44,2F4K,45,1,60.055644800570704,40.06100285046004,1.7431169226340388,43.82498445270193,2,c,0.740815900000598,incorrect,n
45,2F4K,46,1,55.54860840419632,74.22962609835474,1.5871717494778343,71.50028543397471,1,n,2.482503400000496,incorrect,c
46,2F4K,47,1,32.83104197386828,47.68436542746272,0.9896095028922662,50.70433682278272,1,n,1.4009236000001692,incorrect,c
47,2F4K,48,2,74.69841261899208,52.0392262702028,2.3635450751250664,54.57073288423127,1,v,1.1642544999995152,correct,v
48,2F4K,49,2,48.77688378611893,39.89000836044716,1.3786980387042214,43.67081430114561,1,b,1.2976970999989135,incorrect,v
49,2F4K,50,2,48.59965895838915,63.43960947724376,1.3736264919643917,64.03156113624381,2,v,1.4677597000008973,incorrect,b
50,2F4K,51,1,43.11688695019078,56.83757832605171,1.225615636497289,58.698792957275074,1,n,1.614781000000221,incorrect,c
51,2F4K,52,2,36.96955993349458,27.457573664412813,1.0785453191190946,32.81891818355427,1,b,0.9688861000013276,incorrect,v
52,2F4K,53,2,63.89195481568397,46.995102611257074,1.887868981019177,50.08555053957546,1,v,0.9156160000002274,correct,v
53,2F4K,54,1,43.13616785413517,61.13678461636112,1.2261071273786142,62.22589169194224,1,n,1.2370630999994319,incorrect,c
54,2F4K,55,1,31.07512232858728,39.4912402534698,0.9541273005241192,43.31150713206995,1,n,1.5115475000002334,incorrect,c
55,2F4K,56,2,35.03125581317362,45.1010038046725,1.0359380092247077,48.37915825967536,2,b,1.255318299999999,correct,b
56,2F4K,57,2,56.2714484741773,69.19853574953018,1.6112087845036993,68.24012902782151,2,v,0.7565627999993012,incorrect,b
57,2F4K,58,1,58.205847091870446,47.48796045094901,1.6773402990196369,50.52815706514803,2,c,1.3780356000006577,incorrect,n
58,2F4K,59,2,67.11202023853593,55.06365401923057,2.018607763385261,57.192929489715766,1,v,0.8729863000007754,correct,v
59,2F4K,60,2,44.070350469932215,65.12735111401491,1.2501580641947614,65.31275663483088,2,b,1.158229399999982,correct,b
60,2F4K,61,1,68.085479979964,55.96781565653724,2.0598858610219133,57.96374633983047,2,n,1.7786192999992636,correct,n
61,2F4K,62,2,29.176856373074244,46.453095512546895,0.9171983668501842,49.59805213651316,2,b,1.0671499999989464,correct,b
62,2F4K,63,1,51.61875532491686,42.606936276638194,1.4626277708103408,46.12494957420847,2,n,0.9022265000003244,correct,n
63,2F4K,64,2,59.048541820738826,42.18942511025466,1.706991949814468,45.74741560955293,1,v,1.2433704999984911,correct,v
64,2F4K,65,2,34.23303902359129,53.27254914118058,1.0188849610226611,55.64756212918217,2,b,0.6870345000006637,correct,b
65,2F4K,66,1,71.99525684817114,51.39236246646557,2.2343538885623846,54.00226705937989,2,n,2.2884200000007695,correct,n
66,2F4K,67,1,51.76384049654498,41.45984422806051,1.4670471253933903,45.087904078160186,2,n,1.7345790999988822,correct,n
67,2F4K,68,1,47.323663597606135,62.770427014371606,1.3376585560394616,63.51346378012489,1,c,1.4738013999995019,correct,c
68,2F4K,69,2,48.89615336595083,35.945646788333775,1.3821216482606735,40.13689424256091,1,v,1.7711595999990095,correct,v
69,2F4K,70,2,57.45952439340171,67.58339590237784,1.651510030381691,67.10772909850144,2,v,1.2386545999997907,incorrect,b
70,2F4K,71,2,43.88296431646692,59.3507430723086,1.2452961948823769,60.783547878609205,2,b,1.1643390999997791,correct,b
71,2F4K,72,1,64.86014181956496,42.937013036870944,1.926262414290459,46.42344361539198,2,n,1.843995500001256,correct,n
72,2F4K,73,2,45.96108554230956,40.03908168234525,1.3002892311403549,43.805217080836,1,b,1.564798499999597,incorrect,v
73,2F4K,74,2,32.96389591285376,39.24290778082491,0.9923471977583012,43.08792281664057,2,v,0.9467527000015252,incorrect,b
74,2F4K,75,1,58.15861734387951,45.1076791181865,1.6756937666267049,48.3851838802406,2,n,1.2431401000012556,correct,n
75,2F4K,76,1,70.82206059246732,57.08421921074019,2.180504273288779,58.90602600002927,2,c,0.825940200000332,incorrect,n
76,2F4K,77,1,46.06695204619213,55.406405957505015,1.3031548826528947,57.48590861645894,1,c,0.9097311000004993,correct,c
77,2F4K,78,2,46.18666052544847,59.19151182470639,1.306402825023494,60.65330514526876,2,v,3.738832299999558,incorrect,b
78,2F4K,79,2,43.03920166980167,55.05799376577248,1.2236373508066964,57.188083422079146,2,b,2.203418099999908,correct,b
79,2F4K,80,1,49.54289862834075,41.26503765731152,1.4008349258542123,44.91187857742937,2,n,0.8113220000013825,correct,n
80,2F4K,81,1,53.67204034360881,47.85338642463573,1.5264297664645028,50.85585557212047,2,n,0.8854271000000153,correct,n
81,2F4K,82,2,63.56575419341485,46.13635151467665,1.875106613651521,49.312836756403456,1,v,2.4815010000002076,correct,v
82,2F4K,83,1,72.06309986151302,55.22827207455626,2.2375082407628213,57.33375852587508,2,n,1.4192035000014585,correct,n
83,2F4K,84,1,51.7563764759693,62.560656460471215,1.4668194427601966,63.349914658163534,1,n,1.146099999999933,incorrect,c
84,2F4K,85,2,75.14200689264294,61.39674028046255,2.3854479490618203,62.43287279970383,1,b,0.6679630999988149,incorrect,v
85,2F4K,86,2,58.64563166824645,70.64931472554154,1.6927500361342869,69.22289503827986,2,v,0.8672497999996267,incorrect,b
86,2F4K,87,1,53.65638802095868,68.0890541436009,1.5259330235757518,67.46648277941104,1,c,1.5769662999991851,correct,c
87,2F4K,88,2,54.9846274385241,66.9970430496498,1.568666670270762,66.68700908614487,2,v,2.695015400000557,incorrect,b
88,2F4K,89,2,44.53822721113875,58.59131623718547,1.2623804921405668,60.16005538494996,2,b,0.6800939999993716,correct,b
89,2F4K,90,1,62.264495227112,44.840464564432885,1.8250485673188828,48.143927600890535,2,c,1.0721288999993703,incorrect,n
90,2F4K,91,1,42.37839625160311,31.209055493005945,1.2069382679682668,35.98878742656838,2,c,0.8183393999988766,incorrect,n
91,2F4K,92,2,24.484323418851208,35.32168166409129,0.8319274943360353,39.5832378266933,2,b,1.4727762000002258,correct,b
92,2F4K,93,1,36.28478042982523,51.55198090113608,1.0632961054903896,54.14276155782824,1,c,1.3220871999983501,correct,c
93,2F4K,94,2,41.80932448212812,57.80487078222211,1.192740118826486,59.508352181629625,2,b,1.5782680000011169,correct,b
94,2F4K,95,2,30.209910163274927,44.85189606360311,0.9371145438408662,48.15425058236322,2,b,1.660984299998745,correct,b
95,2F4K,96,1,66.70418204449274,52.27375552496407,2.0015608294325093,54.776233878914304,2,n,0.558727399999043,correct,n
96,2F4K,97,2,62.548175575501176,48.80469013351536,1.835846284987882,51.70682694137548,1,v,1.346528500000204,correct,v
97,2F4K,98,2,49.70533151551695,62.265400254584605,1.4055745216402888,63.118810178767646,2,b,1.3830909999996948,correct,b
98,2F4K,99,2,57.66748455671569,78.16687017758666,1.658667301248498,73.7447142262894,2,b,2.203465900000083,correct,b
99,2F4K,100,1,58.33799318410512,43.580554057020535,1.6819558022326293,47.0053709734993,2,n,0.8486668000005011,correct,n
100,2F4K,101,2,59.42364319767388,63.62574796990567,1.720358572827478,64.174674816651,2,v,1.7347355000001698,incorrect,b
101,2F4K,102,1,40.48790845840098,51.49410028211435,1.160412107695607,54.09183205544242,1,n,4.0547351999994135,incorrect,c
102,2F4K,103,1,53.330404797726864,43.85152175327004,1.5156242664472144,47.25034724884173,2,n,0.7030475999999908,correct,n
103,2F4K,104,1,58.10847331006558,72.27193533044391,1.6739474047811502,70.28178337457358,1,n,0.693412200000239,incorrect,c
104,2F4K,105,2,40.389122633426005,29.75494129907448,1.158030843333972,34.745875188105266,1,b,1.4862729000014951,incorrect,v
105,2F4K,106,2,64.16800462662499,39.232774587347166,1.8987370680096047,43.07880249124064,1,v,1.2240816000012273,correct,v
106,2F4K,107,2,60.50316901301586,50.783334642616055,1.7594140894952943,53.46493679255687,1,b,1.9097098000002006,incorrect,v
107,2F4K,108,2,57.63225357236036,47.54851241734583,1.657452593778047,50.58248620648841,1,b,1.6874384000002465,incorrect,v
108,2F4K,109,1,50.545249916169055,41.81035609236668,1.430339378222969,45.40470754698565,2,n,1.091793499999767,correct,n
109,2F4K,110,2,54.580364389441065,35.689843987898385,1.5555350812740687,39.90969528094838,1,b,4.018031399999018,incorrect,v
110,2F4K,111,2,43.53333487293399,25.78159402639559,1.2362753005004226,31.445132541791285,1,b,2.0031582999999955,incorrect,v
111,2F4K,112,2,53.12209898284321,71.37799412310812,1.5090733900618434,69.7037784761032,2,v,2.62719560000005,incorrect,b
112,2F4K,113,2,45.155218857382,61.81297475080292,1.27868115435384,62.76265985435027,2,b,1.856223200000386,correct,b
113,2F4K,114,1,53.17285522046892,72.04095809535912,1.510666976797668,70.13371326338009,1,n,2.214193300000261,incorrect,c
114,2F4K,115,2,55.550292808935474,45.68041479873409,1.587227343065426,48.901912146989964,1,v,2.3113043000012112,correct,v
115,2F4K,116,1,24.10365901841232,36.265744203451405,0.8253682060371611,40.42161077191032,1,c,1.4496081999986927,correct,c
116,2F4K,117,2,68.02052237522953,48.24878184691402,2.057105337362521,51.209938896236174,1,v,0.9471387000012328,correct,v
117,2F4K,118,1,58.89204660725655,54.008003416866586,1.7014460401277596,56.284918127403806,2,c,1.7286815000006754,incorrect,n
118,2F4K,119,1,59.426418766872224,71.8942390268515,1.7204578684914094,70.0391941961182,1,n,1.066052199999831,incorrect,c
119,2F4K,120,2,26.993740485667395,40.7572523854516,0.8764916271625298,44.45324603118064,2,b,1.2238815000000614,correct,b
120,2F4K,121,2,40.87141612402423,47.10926356641767,1.1697031807944738,50.18813292339207,2,b,4.290957799999887,correct,b
121,2F4K,122,2,55.13216254943913,47.45245783085257,1.5734865825036333,50.496297834920206,1,v,0.8244142999992619,correct,v
122,2F4K,123,2,59.131482973795485,68.84849179698452,1.7099385609643742,67.9980717562091,2,b,1.1170399000002362,correct,b
123,2F4K,124,2,69.74196330459868,58.377886251285645,2.132076049957075,59.9837873347152,1,v,2.2375351000009687,correct,v
124,2F4K,125,2,43.696688091769566,32.247977720660764,1.2404818637854669,36.88659213245575,1,b,1.0876288999988901,incorrect,v
125,2F4K,126,1,37.52231405217989,46.962883662990976,1.0910138540311465,50.05659293533543,1,n,2.136660899999697,incorrect,c
126,2F4K,127,2,23.362194382484795,43.55955489386732,0.8127400148387981,46.98638444892287,2,b,2.3113395999989734,correct,b
127,2F4K,128,1,44.77988952753018,58.52443952368929,1.2687402062849045,60.1048714488264,1,c,1.9242715000000317,correct,c
128,2F4K,129,1,43.83422838825127,55.64324043276367,1.244034807237701,57.68780216163148,1,c,0.5697620999999344,correct,c
129,2F4K,130,2,49.95098624141031,69.55030817317812,1.4127729125819273,68.48146889847915,2,v,1.6094751999989967,incorrect,b
130,2F4K,131,2,70.38278464861949,55.250137619930754,2.1606771795525943,57.35244820288639,1,b,1.7893684999999095,incorrect,v
131,2F4K,132,2,71.0671419570462,52.69616860295508,2.1916451936628785,55.14551502328753,1,v,0.5590295000001788,correct,v
132,2F4K,133,2,51.18197020791577,60.87614607251185,1.4494033221744298,62.01759484622785,2,b,0.8001479000013205,correct,b
133,2F4K,134,1,40.31085422656128,57.235055573218354,1.1561476280628191,59.03249180325816,1,n,3.715356200000315,incorrect,c
134,2F4K,135,2,42.4676263868104,34.16779335767477,1.2091798069755428,38.56449761700679,1,b,3.532532799999899,incorrect,v
135,2F4K,136,1,49.244154766192814,58.06796892296125,1.3921596278225037,59.72703904772774,1,n,1.6123091999997996,incorrect,c
136,2F4K,137,1,55.862604528031,63.810361417045485,1.5975688808776,64.31618002044043,1,c,0.5998859999999695,correct,c
137,2F4K,138,1,48.01907181145484,32.1473788955681,1.3571424460173054,36.79932448790179,2,n,0.5466211999992083,correct,n
138,2F4K,139,1,59.01155573665033,39.157178908681246,1.705679600214069,43.0107707232994,2,n,1.0369104000001244,correct,n
139,2F4K,140,2,36.8673956194496,19.12502824388012,1.0762564387134468,26.3109597420556,1,b,2.5978517000003194,incorrect,v
140,2F4K,141,2,52.54394360634238,41.28315691765423,1.491039325113634,44.92824939012071,1,v,1.3523913000008179,correct,v
141,2F4K,142,2,36.73098402560856,48.72772057506579,1.073207856246632,51.638097966491785,2,b,0.5830667999998695,correct,b
142,2F4K,143,1,53.9684842880777,42.29955221043152,1.535868318859524,45.84699246396264,2,n,2.361167999999452,correct,n
143,2F4K,144,2,49.295039872918096,31.636187302865395,1.3936334878146708,36.356965357258616,1,v,1.000389199998608,correct,v
144,2F4K,145,2,61.19375860535665,42.95030264483584,1.784862277504174,46.43546167279798,1,v,0.5454036000010092,correct,v
145,2F4K,146,2,34.187424305570374,50.78593699030157,1.0179189748551083,53.467236934298654,2,b,0.6414050000003044,correct,b
146,2F4K,147,1,38.19225494157019,47.40992436945116,1.1063191616587564,50.45812432215051,1,n,1.2067761999987852,incorrect,c
147,2F4K,148,2,20.207580544845,34.95677500484577,0.7611366612179988,39.2603207112678,2,b,1.2081183999998757,correct,b
148,2F4K,149,2,54.92509950628392,35.009266604508234,1.566726099818497,39.30673089395727,1,v,0.5877220000002126,correct,v
149,2F4K,150,1,67.65223148518453,53.45923724022615,2.041411386612135,55.80970210683222,2,n,1.6194080999994185,correct,n
150,2F4K,151,2,62.98082124529054,52.5603025910287,1.8524372041257784,55.026859712591175,1,v,2.7011170999994647,correct,v
151,2F4K,152,1,49.012479497741005,31.637613778840358,1.385468956006957,36.35819717603674,2,n,1.6390172000010352,correct,n
152,2F4K,153,2,41.01187505502529,45.07359085844254,1.1731245987883208,48.35441266981556,2,b,2.281337299998995,correct,b
153,2F4K,154,1,59.405988075340986,43.12063818950915,1.7197270970380674,46.58949801375688,2,n,1.8635558000005403,correct,n
154,2F4K,155,1,58.31287126328758,42.681139985351415,1.6810773852859315,46.192052536478265,2,n,0.9158740999992006,correct,n
155,2F4K,156,2,45.99329060860149,59.05563397758069,1.3011603076604776,60.54195822347271,2,b,1.1887466999996832,correct,b
156,2F4K,157,1,44.90986893008471,57.54546278775312,1.2721740537756556,59.292091362823086,1,c,1.2505813999996462,correct,c
157,2F4K,158,1,58.98536925252742,39.86724739210558,1.7047510548514324,43.65029701074974,2,n,0.8243548000009469,correct,n
158,2F4K,159,2,41.14584975769033,21.53616392137284,1.1763973934309817,28.105677133019796,1,b,1.2843253000010009,incorrect,v
159,2F4K,160,2,47.38594830322997,29.473018276913987,1.339392179108904,34.50688654726809,1,v,0.636404599999878,correct,v
160,2F4K,161,2,41.91103048279055,55.03579970281107,1.1952653343445585,57.16907939968186,2,v,1.104766299999028,incorrect,b
161,2F4K,162,1,64.46641805088797,43.863692640478405,1.910555995509164,47.26134967278966,2,n,0.9032996999994793,correct,n
162,2F4K,163,2,43.08646566643535,61.61993885014604,1.2248405660333097,62.60996625522456,2,b,2.0311762999990606,correct,b
163,2F4K,164,2,47.86204708628067,29.80527634755454,1.3527182806973568,34.788614918786145,1,b,3.210874299998977,incorrect,v
164,2F4K,165,1,42.279849112901246,56.54895809412088,1.2044675061365,58.45560229810019,1,c,2.9984554999991815,correct,c
165,2F4K,166,2,57.924890169615466,69.126684397473,1.6675692857172475,68.19059764457722,2,v,3.283655600000202,incorrect,b
166,2F4K,167,1,60.23911140911632,50.60205654255005,1.7497797562084396,53.30462523292241,2,n,0.8367921999997634,correct,n
167,2F4K,168,1,73.46705301987072,55.72606702193947,2.3037937932784125,57.75830142059039,2,n,0.7515831000000617,correct,n
168,2F4K,169,2,35.4965388042016,53.553014989735416,1.046009652062245,55.8910593315185,2,b,1.1281892999995762,correct,b
169,2F4K,170,2,41.02317465580332,52.21667203462069,1.17340027861105,54.72624622661668,2,b,0.6235293999998248,correct,b
170,2F4K,171,2,28.189354415888204,44.74730599769451,0.8985561923782123,48.05979643643362,2,b,0.4849452999987989,correct,b
171,2F4K,172,2,75.48214825007702,59.55540317645955,2.402380129873892,60.95056276748884,1,v,0.9458116000005248,correct,v
172,2F4K,173,1,54.77438170694118,39.31902073577453,1.561823528078922,43.15643555958968,2,n,1.8864525000008143,correct,n
173,2F4K,174,2,70.05282346500778,52.25856647271076,2.1459027615406487,54.76293485081781,1,v,0.7723657999995339,correct,v
174,2F4K,175,1,52.61513588653324,39.49315530517632,1.4932482971668284,43.3132318740122,2,n,0.618054900000061,correct,n
175,2F4K,176,2,45.92330941930324,57.13091479651326,1.29926821290086,58.94519905986975,2,b,0.9532122000000527,correct,b
176,2F4K,177,1,50.16672417554935,64.15688703722302,1.419125053279358,64.58060610196547,1,c,1.3277552999988984,correct,c
177,2F4K,178,1,48.54370049001252,51.56211678437318,1.372029037307478,54.15167824721571,1,c,1.7215753000000404,correct,c
178,2F4K,179,1,58.92405933997665,47.0892628363042,1.702579046114601,50.17016331519418,2,n,0.9350189999986469,correct,n
179,2F4K,180,2,59.3845797587033,41.40604983930868,1.718961690610352,45.03929227349721,1,v,1.0428325000011682,correct,v
180,2F4K,181,1,47.4763373328629,66.7884037282067,1.3419120506957103,66.53610200020789,1,c,1.3841745999998238,correct,c
181,2F4K,182,2,28.23581415161028,45.52331501147404,0.899424709722629,48.76023004995232,2,b,0.6778080999993108,correct,b
182,2F4K,183,2,55.373494022689485,74.73014731472028,1.5814027304045373,71.80113447057934,2,b,2.87703429999965,correct,b
183,2F4K,184,1,58.5187469290521,39.72475372245181,1.688289612347924,43.52187304197771,2,n,0.9946796000003815,correct,n
184,2F4K,185,2,43.26732018822675,57.02745058744531,1.229455574949066,58.85837612010467,2,b,0.8985969999994268,correct,b
185,2F4K,186,1,39.250172025483295,60.65824972461843,1.1309264925742222,61.8428705940257,1,c,2.2883687000012287,correct,c
186,2F4K,187,1,61.42935262660775,48.86683654398671,1.793627842998852,51.76230306793444,2,n,0.5102748999997857,correct,n
187,2F4K,188,1,56.51514329346252,41.50900767714572,1.6193942934943657,45.13233340452147,2,n,0.5587304000000586,correct,n
188,2F4K,189,2,21.586734946763197,35.38944530860896,0.7832810976515195,39.64327651778776,2,b,0.8063576999993529,correct,b
189,2F4K,190,1,68.49628189716618,62.76889427886732,2.077557572412044,63.51227072539155,2,n,0.6618782999994437,correct,n
190,2F4K,191,2,41.17593588220685,62.78102903481928,1.1771336054061536,63.52171541896591,2,b,0.874309800001356,correct,b
191,2F4K,192,2,60.3786334878801,43.57430740106159,1.7548637287823474,46.99972304199832,1,v,1.1527363000004698,correct,v
192,2F4K,193,2,52.58443086714711,37.812609526807535,1.4922951730024985,41.803302609218704,1,v,1.9775291000005382,correct,v
193,2F4K,194,1,51.28751171555276,43.228008754347286,1.4525877830422227,46.68659205459932,2,n,1.5164831999991293,correct,n
194,2F4K,195,1,40.8810845365426,30.603719793219597,1.1699383720749692,35.46934678356105,2,c,1.2809492999986105,incorrect,n
195,2F4K,196,2,37.170240030360986,27.178871169415157,1.0830555200693412,32.58850027334576,1,b,1.2613631000003807,incorrect,v
196,2F4K,197,1,31.591944132104693,40.18289934974252,0.9644366114622488,43.93492020506244,1,n,2.324765400000615,incorrect,c
197,2F4K,198,1,61.82914391889682,46.03048470640989,1.8086011893906684,49.217458997036594,2,n,0.879182500000752,correct,n
198,2F4K,199,2,40.375034301816086,55.713264036649925,1.157691637905164,57.74740761556978,2,b,1.704633900000772,correct,b
199,2F4K,200,2,35.30226560248753,51.2828330645676,1.0417925086550133,53.90577886146468,2,b,0.6302100000011706,correct,b
200,2F4K,201,2,56.85900834838421,68.48831200700063,1.631015226409695,67.74704435775232,2,v,1.7376129999993282,incorrect,b
201,2F4K,202,2,35.64889975691844,41.95044107607094,1.0493289347997323,45.53134577661868,2,b,0.6726877000000968,correct,b
202,2F4K,203,1,36.74103109464945,55.65934898545874,1.0734320973973654,57.701517627901474,1,c,1.6625251999994362,correct,c
203,2F4K,204,2,50.0865759318152,62.35930175678381,1.4167618583939638,63.19242340980762,2,v,4.661899799999446,incorrect,b
204,2F4K,205,2,40.523657777484864,64.78110519277195,1.1612750627480737,65.05297403961389,2,b,0.49063119999846094,correct,b
205,2F4K,206,2,34.99483346171268,52.47168434059859,1.0351537059802742,54.94940474847274,2,b,0.6133475000006001,correct,b
206,2F4K,207,2,37.7574137853969,53.0033941476053,1.0963606194566915,55.41338884829428,2,b,1.103605600001174,correct,b
207,2F4K,208,2,49.19606807298932,65.15047021627782,1.390768254895164,65.33004501450496,2,v,1.1345681000002514,incorrect,b
208,2F4K,209,1,53.48902681986041,43.35126591243336,1.520631734584537,46.79804867476123,2,n,0.897249900001043,correct,n
209,2F4K,210,2,53.50847188824481,40.42942283099518,1.521246724573825,44.15733235424231,1,v,0.9631721999994625,correct,v
210,2F4K,211,2,43.84765091840433,28.124639607664285,1.244382082818229,33.373460593828504,1,v,1.6487973999992391,correct,v
211,2F4K,212,1,38.43786963684054,57.11782833803605,1.1119840457799266,58.93422278245679,1,c,4.303256799999872,correct,c
212,2F4K,213,2,77.60286681018196,61.51691666781733,2.5106936496961563,62.52829663334956,1,v,1.4798859000002267,correct,v
213,2F4K,214,2,58.04700548090391,73.77971434129276,1.671809152842878,71.22610288893766,2,v,2.4751455999994505,incorrect,b
214,2F4K,215,2,62.43320690065254,56.81543569326972,1.831462557743275,58.68016166191848,1,v,1.1764139999995677,correct,v
215,2F4K,216,2,49.03079189449993,61.90169881269095,1.3859966369321342,62.83269490304306,2,b,1.0660212000002502,correct,b
216,2F4K,217,1,54.914299736161546,43.37432706490831,1.5663742919564718,46.818901463509455,2,n,1.3890793999999005,correct,n
217,2F4K,218,1,36.32242604809027,49.42991845100814,1.0641287993670865,52.264241468924965,1,c,0.6908763999999792,correct,c
218,2F4K,219,1,53.93712920029888,46.76201544321279,1.5348672426417171,49.87599565263373,2,n,0.9654083999994327,correct,n
219,2F4K,220,1,32.80074265740845,19.62135250523332,0.9889861893019904,26.67385223798313,2,c,0.6241332999998122,incorrect,n
220,2F4K,221,2,40.730663263895366,20.916495440059883,1.1662846129147444,27.636907066411894,1,b,2.9619177999993553,incorrect,v
221,2F4K,222,1,49.96176986559181,26.411098243703336,1.4130897471164547,31.95775362268634,2,c,1.4739392999999836,incorrect,n
222,2F4K,223,1,63.46373929248063,57.23353189744008,1.8711330906460248,59.03121534129699,2,n,2.664639000000534,correct,n
223,2F4K,224,2,44.191238734200574,55.36945850131484,1.2533046658272533,57.45437136562842,2,b,1.018655599998965,correct,b
224,2F4K,225,1,41.39154907569601,57.994265070112526,1.182423192356766,59.66584314330843,1,c,1.716613900000084,correct,c
225,2F4K,226,2,56.50537720663251,37.19336727509469,1.619065460184364,41.24910514529845,1,b,0.7651661999989301,incorrect,v
226,2F4K,227,1,67.23306855410218,58.69163598320801,2.023695259700105,60.24275187470024,2,n,1.3046536000001652,correct,n
227,2F4K,228,1,57.10836250750898,43.4336604816197,1.6394942878144636,46.872552195047184,2,n,1.0670543000014732,correct,n
228,2F4K,229,1,26.264518601321655,46.67206071193614,0.8633009959887702,49.795085213245954,1,c,1.7651122999996005,correct,c
229,2F4K,230,2,73.24776027657302,58.240440704795205,2.293312261604721,59.87003687353817,1,v,1.864243299998634,correct,v
230,2F4K,231,2,27.92845430844017,46.96498158599916,0.8936944866687624,50.05847858216322,2,b,1.1339231000001746,correct,b
231,2F4K,232,1,53.489071486926406,38.38743264455198,1.5206331469867636,42.3188776422848,2,n,0.7224866999986261,correct,n
232,2F4K,233,2,57.63750773901543,48.95585998180754,1.6576336925062576,51.84174512375228,1,v,0.8911941000005754,correct,v
233,2F4K,234,2,36.67263586385344,51.09139516875054,1.071906505709556,53.73697808732447,2,b,0.9629007000003185,correct,b
234,2F4K,235,2,41.65709978560892,23.396710188213863,1.1889705604062717,29.54270736622589,1,b,1.4664616999998543,incorrect,v
235,2F4K,236,2,41.43269257797642,35.9744484869358,1.183435253398723,40.16249393006909,1,v,0.6965676999989228,correct,v
236,2F4K,237,1,56.01290929944547,69.1364392374072,1.6025698934454984,68.19732691898182,1,n,1.2310168000003614,incorrect,c
237,2F4K,238,2,40.399370654105645,51.665725472646834,1.1582776478549086,54.24279108568231,2,b,2.695001799998863,correct,b
238,2F4K,239,2,56.56855752162792,47.01407891960235,1.6211939826060826,50.1026046728599,1,v,2.280931799999962,correct,v
239,2F4K,240,2,46.13586534189125,33.48399916277275,1.305023657513025,37.96426042119171,1,b,1.9592817000011564,incorrect,v
240,2F4K,241,2,66.34911641086151,54.12607633527781,1.986836963514032,56.38688754462737,1,b,2.925207499998578,incorrect,v
241,2F4K,242,2,41.91117549213307,58.36553626018228,1.1952689385345638,59.97357398061079,2,b,1.0732411999997566,correct,b
242,2F4K,243,1,38.25870503360807,26.613369090280155,1.1078489199780648,32.12334427391546,2,n,1.43873320000057,correct,n
243,2F4K,244,1,56.872591996358736,42.739109778475616,1.6314759945975186,46.24447550324298,2,c,1.018452199999956,incorrect,n
244,2F4K,245,1,50.3033643570686,33.23541673849058,1.4231630220070983,37.74674443507561,2,n,0.6328663999993296,correct,n
245,2F4K,246,2,53.80624070959772,48.43518462609087,1.53069539819639,51.37667785712302,1,v,1.607642400000259,correct,v
246,2F4K,247,2,51.698905763621134,35.71807707456591,1.465067538076772,39.934756599359446,1,v,1.3099402999996528,correct,v
247,2F4K,248,2,53.17031575954568,63.72050906224874,1.5105872057090135,64.24736312043399,2,v,0.9032996000005369,incorrect,b
248,2F4K,249,1,40.51208306841322,54.44730897066472,1.160995589890349,56.66379515655588,1,n,2.8285308000013174,incorrect,c
249,2F4K,250,1,52.13822633909066,37.83593293579814,1.47851285815609,41.82420172787179,2,n,0.6548237999995763,correct,n
250,2F4K,251,2,41.445061493604726,60.02168522173967,1.1837396772652045,61.32942936186884,2,b,2.281348500000604,correct,b
251,2F4K,252,2,72.57421364538766,54.84008621880992,2.2614160017472424,57.00133116009669,1,v,0.6968756999995094,correct,v
252,2F4K,253,2,65.27331356367999,47.37495874469002,1.9428835146551924,50.42673887191775,1,v,0.6376670999998169,correct,v
253,2F4K,254,2,47.45479277343596,62.38273811199442,1.3413109999968509,63.21077956917133,2,b,1.504310100001021,correct,b
254,2F4K,255,1,49.03687983616068,36.019262261517554,1.3861721085435492,40.202332927170765,2,n,1.2909175000004325,correct,n
255,2F4K,256,2,60.35395379643754,68.04219432568637,1.7539633641977497,67.43339685012234,2,v,1.0065288999994664,incorrect,b
256,2F4K,257,1,67.92130572773961,55.262311333025146,2.0528655911174503,57.36285209950209,2,n,2.0881053999983124,correct,n
257,2F4K,258,2,41.30360676617926,59.55424551474027,1.180262860432638,60.94961927630486,2,b,1.8077946000012162,correct,b
258,2F4K,259,1,37.017150228431504,46.92662713505171,1.0796131892022236,50.02400313020739,1,n,4.249438200000441,incorrect,c
259,2F4K,260,1,53.65270000058806,37.930244169539485,1.5258160039119812,41.908728087561954,2,n,0.7590292999993835,correct,n
260,2F4K,261,2,45.47620156779152,40.34417013932585,1.2872444474264748,44.0804064406862,1,b,1.6558590999993612,incorrect,v
261,2F4K,262,1,38.13761396931383,51.09161694783074,1.1050628457379612,53.73717375540391,1,n,2.8284836000002542,incorrect,c
262,2F4K,263,2,45.61584286238069,59.2718300914318,1.290987727351821,60.719033935264704,2,v,1.3514269999996031,incorrect,b
263,2F4K,264,2,61.40242282821127,47.44265316396843,1.7926237115701444,50.48749868711429,1,v,1.449502699999357,correct,v
264,2F4K,265,1,67.98870449208229,51.75552941585421,2.055744736113915,54.321714683574,2,n,1.9168480999996973,correct,n
265,2F4K,266,1,34.316468648617544,48.35238828342689,1.0206541284554258,51.302631107897824,1,c,0.6717697000003682,correct,c
266,2F4K,267,1,54.13921211382309,46.07496585089447,1.5413306264015465,49.25753592102231,2,n,0.7701405000007071,correct,n
267,2F4K,268,2,68.78063263575416,49.3555044897875,2.0898783678831987,52.197983078558366,1,v,0.9644242999984272,correct,v
268,2F4K,269,2,57.959561715082,40.907592513052165,1.6687719941908572,44.58900048178432,1,v,0.6376296999987972,correct,v
269,2F4K,270,1,64.09625714022168,50.19086996836548,1.895906365020764,52.94039078975751,2,c,0.6791307999992569,incorrect,n
270,2F4K,271,1,55.995885562935975,36.16661039511413,1.602002686269622,40.33338649877585,2,n,0.6447937999982969,correct,n
271,2F4K,272,1,45.02640962944836,62.837699897226535,1.275260773588118,63.56579937861443,1,c,1.2128740000007383,correct,c
272,2F4K,273,2,56.18119853201455,41.5459984507365,1.6081878729254964,45.16576361368508,1,v,1.013202199999796,correct,v
273,2F4K,274,1,62.80832719362705,81.45906002305436,1.845804575539337,75.3990097681553,1,n,1.0860940000002302,incorrect,c
274,2F4K,275,1,70.34051583819688,63.77730783415255,2.158778875487734,64.29087668522241,2,c,2.4097598000007565,incorrect,n
275,2F4K,276,2,54.487649890853554,46.00506908526135,1.5525389861398773,49.19455801415515,1,b,0.7746583999996801,incorrect,v
276,2F4K,277,1,53.79017082581078,32.55560758072815,1.5301839805989288,37.15388124457767,2,n,1.492169199998898,correct,n
277,2F4K,278,2,31.69916388734758,47.1077822824989,0.9665892913394596,50.186802105360286,2,b,0.848673399999825,correct,b
278,2F4K,279,1,36.66468691205472,48.00639392847316,1.0717293408462631,50.99293893862404,1,n,1.4751566000013554,incorrect,c
279,2F4K,280,2,57.776736994131866,47.24892512177873,1.6624398125633817,50.31358031232885,1,v,1.5162223999996058,correct,v
280,2F4K,281,2,68.92450394703141,56.351902526009766,2.096140060348021,58.28914603218706,1,v,3.599118300000555,correct,v
281,2F4K,282,2,47.01384692966855,60.38897961933672,1.3290684493908616,61.62622324200523,2,b,0.9038873999998032,correct,b
282,2F4K,283,2,57.829323233109,42.92439915454609,1.664258684949491,46.4120366215981,1,v,1.626438400000552,correct,v
283,2F4K,284,1,31.09082140206509,43.18276058154605,0.9544388291437332,46.64567491519094,1,n,1.3159653000002436,incorrect,c
284,2F4K,285,2,57.6645635289957,39.81802475421704,1.6585665550917867,43.60592999652819,1,v,2.219322099999772,correct,v
285,2F4K,286,2,50.60474515528385,58.33351030261262,1.4321100444376575,59.947081788893776,2,v,1.0182688999993843,incorrect,b
286,2F4K,287,1,49.14280027072046,35.9108967667777,1.3892285915949962,40.1060124899631,2,c,1.844010500000877,incorrect,n
287,2F4K,288,1,36.63851523445615,46.492905433393865,1.0711462379124406,49.63388316021948,1,n,1.3285020000002987,incorrect,c
288,2F4K,289,1,35.57756374127275,56.06392096651364,1.0477735238972314,58.045284125527786,1,c,5.0,incorrect,c
289,2F4K,290,2,48.78717467748064,61.89248605654792,1.3789931020997404,62.825427057107134,2,v,1.6677878999998939,incorrect,b
290,2F4K,291,1,60.134240880783125,37.055597189876536,1.7459681317252174,41.12599313659214,2,n,0.6776843999996345,correct,n
291,2F4K,292,1,36.72648214870704,51.74455382093935,1.0731073937777815,54.312071333993295,1,c,0.6740435000010621,correct,c
292,2F4K,293,2,58.747165516911295,48.70893749038992,1.696327777544634,51.621322407612006,1,v,1.0185987000004388,correct,v
293,2F4K,294,2,50.528670095914734,42.0349389387715,1.429846328447062,45.60773843012024,1,v,0.630496800000401,correct,v
294,2F4K,295,1,48.07850749873442,54.07947612565813,1.358820816546208,56.34665494441062,1,n,0.8925221000008605,incorrect,c
295,2F4K,296,2,51.46862756598778,60.9211456989429,1.4580688314620098,62.053612382266365,2,v,0.9882815000000846,incorrect,b
296,2F4K,297,2,61.20988343496708,50.37951745671767,1.7854608536062493,53.10759974780782,1,b,0.5030291000002762,incorrect,v
297,2F4K,298,2,66.8016829226961,49.82239064032396,2.0056230581424965,52.61330226292449,1,v,0.44265390000146,correct,v
298,2F4K,299,1,43.791190621376295,59.80761669802348,1.2429219622964836,61.155779652221554,1,n,1.7165903000004619,incorrect,c
299,2F4K,300,2,65.01663907633291,80.04602454391002,1.932541201180594,74.71442081685272,2,b,0.8549980999996478,correct,b
300,2F4K,301,1,61.01112067399953,55.03702417885441,1.778096495901517,57.1701279770515,2,n,0.6011227999988478,correct,n
301,2F4K,302,2,49.55115002734329,34.37971310261515,1.401075305961373,38.75106437622176,1,v,2.579595100000006,correct,v
302,2F4K,303,2,56.80257237671206,44.97239975579109,1.6291022662330952,48.26305842723665,1,v,0.7204057999988436,correct,v
303,2F4K,304,2,55.61587743111121,42.31450626483964,1.5893934707397417,45.86051427080615,1,v,0.6856866999987687,correct,v
304,2F4K,305,2,62.74736565983041,71.58137453550839,1.8434662063521896,69.83644552249854,2,b,0.9093662000013865,correct,b
305,2F4K,306,1,52.57553184612835,65.2918983618394,1.4920190494195849,65.43564673725447,1,n,0.7337201999998797,incorrect,c
306,2F4K,307,1,33.22451583129944,51.17212594416256,0.9977397618518103,53.80818670208155,1,c,0.7454807999984041,correct,c
307,2F4K,308,2,52.45101083302367,66.7670694887751,1.488160699764129,66.5206358281024,2,b,2.798166200000196,correct,b
308,2F4K,309,1,49.33615629181877,33.36131294665037,1.394825542677459,37.85685950858512,2,n,0.8174166000007972,correct,n
309,2F4K,310,2,64.89591685041316,49.28727414618283,1.9276959342153832,52.13721004207717,1,v,0.95184750000044,correct,v
310,2F4K,311,2,47.092810746447846,65.24211600179322,1.331252580991075,65.39850615601416,2,b,0.7930978000003961,correct,b
311,2F4K,312,2,40.55680853211092,30.961399854837317,1.1620758643512694,35.7759347823356,1,b,1.9737604999991163,incorrect,v
312,2F4K,313,2,40.344459057389,25.795745573984,1.156955818060995,31.456610456895465,1,v,0.5391381999997975,correct,v
313,2F4K,314,2,50.590386482729926,47.69854849006995,1.4316825085614675,50.71705471596921,1,v,1.463032600000588,correct,v
314,2F4K,315,2,47.24609023037644,32.780893629266984,1.3355025280266504,37.35002381129152,1,v,0.7091316000005463,correct,v
315,2F4K,316,2,80.71174045605528,62.605093390202725,2.678364319083174,63.38460508907061,1,v,1.3705864000003203,correct,v
316,2F4K,317,2,41.94171338374052,58.85411403937776,1.1960281963976342,60.376473916764205,2,b,1.2069263000012143,correct,b
317,2F4K,318,1,41.77183081853029,60.71081819345397,1.1918105508972312,61.88507210395981,1,c,1.3099055999991833,correct,c
318,2F4K,319,2,32.460983678225425,47.49935555160083,0.9820235383415648,50.53838195988036,2,b,0.8415111000012985,correct,b
319,2F4K,320,1,48.64844014922663,65.28392285239846,1.375020573129121,65.42969880298456,1,c,0.8257849000001443,correct,c
320,2F4K,321,1,51.88519067601463,39.327890743481134,1.4707537556744432,43.1644207338934,2,n,2.543054600000687,correct,n
321,2F4K,322,2,35.2070808204953,46.96185666203722,1.0397325157040878,50.0556698461191,2,b,1.3827502000003733,correct,b
322,2F4K,323,1,31.308494501407505,47.743063765656885,0.958768778719246,50.756967248374224,1,c,4.368780299999344,correct,c
323,2F4K,324,1,48.722487496175646,36.54014397491646,1.377139421186944,40.66603078611493,2,c,3.3989770999996836,incorrect,n
324,2F4K,325,1,51.04553958016665,63.12368968012567,1.4452971992599104,63.78766380887533,1,n,0.45558969999910914,incorrect,c
325,2F4K,326,1,44.72069568239013,66.73990644680852,1.2671794729326875,66.5009346402222,1,c,0.5816926999996213,correct,c
326,2F4K,327,1,49.285219882056815,67.7168598091828,1.3933489355594404,67.2027875478817,1,c,0.49914910000006785,correct,c
327,2F4K,328,1,58.611634836668735,40.95319969098221,1.6915537791420283,44.63018874270014,2,n,0.9761465000010503,correct,n
328,2F4K,329,1,54.32371292283333,41.98950344004366,1.5472554328731276,45.566660696035946,2,n,0.7963171000010334,correct,n
329,2F4K,330,1,50.57493086792409,68.22028056179978,1.431222453372924,67.55896153208221,1,c,0.9154731999988144,correct,c
330,2F4K,331,1,47.62441357102045,31.52882511557604,1.3460503790236895,36.26429603435178,2,n,0.5587562000000617,correct,n
331,2F4K,332,2,57.44423885920988,63.92217920585872,1.6509851751469382,64.40167521966158,2,v,1.205844200001593,incorrect,b
332,2F4K,333,2,59.82530501276422,48.93463066266575,1.7347877373199485,51.8228035029086,1,v,0.76978919999965,correct,v
333,2F4K,334,2,52.93646321129863,69.56238653086656,1.5032593129847762,68.48972119236844,2,b,1.0199665000000095,correct,b
334,2F4K,335,1,61.2194329164464,43.6141135292461,1.7858154382800189,47.03571354457557,2,n,0.7265038999994431,correct,n
335,2F4K,336,1,51.54747161845937,67.64825392418724,1.4604613193366107,67.15395650004432,1,c,0.6061947999987751,correct,c
336,2F4K,337,2,41.09357543726423,44.78160629928472,1.1751193278351315,48.0907741893597,2,b,1.2189268000001903,correct,b
337,2F4K,338,1,44.494710172104405,33.59724637240184,1.2612386663615027,38.06347918428382,2,n,0.6610648000005312,correct,n
338,2F4K,339,2,54.98560735496834,40.31326547990138,1.5686986349871463,44.05252321780343,1,b,5.0,correct,v
339,2F4K,340,2,33.03476086544542,46.15320877211907,0.9938105938498168,49.32802163996385,2,b,0.44794199999887496,correct,b
340,2F4K,341,1,38.46232068455527,62.95237364162468,1.1125495725364254,63.65488237019482,1,c,2.061706200000117,correct,c
341,2F4K,342,1,58.69140614578141,43.8652754665639,1.6943620532634531,47.26278053288011,2,n,0.8244412999993074,correct,n
342,2F4K,343,2,59.5089800309173,65.5221156609028,1.7234141102390848,65.60696287837906,2,v,1.3041812000010395,incorrect,b
343,2F4K,344,1,66.42305192877149,49.147987741768254,1.9898939671915372,52.01308691683322,2,n,0.6268122999990737,correct,n
344,2F4K,345,1,26.09374728652808,41.52294603419465,0.8602407735255241,45.1449299786379,1,n,1.88663489999999,incorrect,c
345,2F4K,346,1,46.62438801755656,39.42212048749117,1.3183483622602885,43.24926162609695,2,n,0.5405814000005194,correct,n
346,2F4K,347,2,35.268391584901764,26.035543899861647,1.0410589384101292,31.651428196450816,1,b,0.7518923000006907,incorrect,v
347,2F4K,348,1,46.864637097146286,32.47788027619793,1.3249510980110313,37.08628665664472,2,n,0.6313979999995354,correct,n
348,2F4K,349,2,38.593138628971104,50.32442136561379,1.1155801420033902,53.05878271664368,2,v,0.6776980000013282,incorrect,b
349,2F4K,350,1,37.30463751992678,52.25805523991916,1.086086587506612,54.76248720805031,1,n,1.9896635000004608,incorrect,c
350,2F4K,351,2,42.93400637116416,56.93535688952443,1.2209636004580189,58.78101379846272,2,v,1.0485508999990998,incorrect,b
351,2F4K,352,1,40.81861876618334,56.10683786219322,1.168419679845376,58.08167064691336,1,n,0.6185553999985132,incorrect,c
352,2F4K,353,2,57.15018896747864,43.41179085504631,1.640920869393229,46.8527772891244,1,b,0.8013602999999421,incorrect,v
353,2F4K,354,1,60.25092743755849,47.90583441553698,1.750209742873205,50.90285377866106,2,n,0.9943684999998368,correct,n
354,2F4K,355,1,36.23825400560245,51.0720721185688,1.0622678748427683,53.71992901664651,1,c,0.8000226999993174,correct,c
355,2F4K,356,2,29.990041390401945,39.09479750022473,0.93283979583651,42.95464141655519,2,b,0.7468374999989464,correct,b
356,2F4K,357,2,28.01809637635,49.22984138087235,0.8953619354327221,52.08603936277475,2,b,0.6058332000011433,correct,b
357,2F4K,358,2,66.34082026703184,52.41172961915759,1.9864942369560343,54.89697490129033,1,v,0.6072956000007252,correct,v
358,2F4K,359,2,35.79795314610497,49.87563881522699,1.0525863523860282,52.66060784756516,2,b,0.6119975000001432,correct,b
359,2F4K,360,1,73.90944417657545,60.30195416627534,2.3250847846078497,61.55603452192337,2,c,1.0791850999994494,incorrect,n
360,2F4K,361,1,41.35087880783274,59.438624204492605,1.181423622717633,60.8553176091684,1,n,5.0,incorrect,c
361,2F4K,362,2,47.66728860321022,64.15304261884826,1.347251000489989,64.57768104614593,2,b,1.5708746999989671,correct,b
362,2F4K,363,2,53.71646827081753,67.01096560222669,1.5278406144468724,66.69705680172007,2,v,0.8547977999987779,incorrect,b
363,2F4K,364,2,36.91964144790501,52.08059313133048,1.0774263421947314,54.6070035938542,2,b,0.5709260000003269,correct,b
364,2F4K,365,2,47.240077025207206,54.4903761773581,1.3353355457798608,56.70086191699587,2,v,0.8179084000003058,incorrect,b
365,2F4K,366,1,47.22587595277136,62.69690436895333,1.3349412754052032,63.45620256733258,1,n,2.0929283000004943,incorrect,c
366,2F4K,367,2,52.35970466674421,64.07616801534257,1.485337871663881,64.5191500545369,2,b,1.9303036000001157,correct,b
367,2F4K,368,2,56.151425855861554,67.00885814996118,1.6071925432743648,66.69553606233038,2,v,1.7164683000009973,incorrect,b
368,2F4K,369,2,45.04595035939425,53.11123540340086,1.275779065865612,55.5072716534266,2,b,1.3524275999989186,correct,b
369,2F4K,370,2,60.31039729224871,76.00793899263692,1.7523754625931744,72.54893323824756,2,v,0.9822005999994872,incorrect,b
370,2F4K,371,2,70.44782999976594,51.09947779160114,2.163601645747385,53.7441089389603,1,v,0.7571893000003911,correct,v
371,2F4K,372,2,67.91585212944642,48.63395157915538,2.052632800350567,51.55433760788943,1,v,0.5405580999995436,correct,v
372,2F4K,373,1,50.2939703805125,64.48445284817018,1.4228850452901314,64.82912734636383,1,n,1.524831799999447,incorrect,c
373,2F4K,374,2,69.00119435531418,59.46056224029702,2.099485509253956,60.87322117633197,1,v,3.344402299999274,correct,v
374,2F4K,375,2,36.348559101665366,46.48166049262074,1.064707227063018,49.62376250101848,2,b,0.6983724999990955,correct,b
375,2F4K,376,1,54.28773855416013,66.13883039633428,1.5460984165584588,66.0622897196148,1,c,1.6875715000005584,correct,c
376,2F4K,377,1,51.72664555995834,35.72316404088298,1.4659128809454995,39.9392724775604,2,n,0.5816494999999122,correct,n
377,2F4K,378,2,57.02407228853883,45.75778308313982,1.6366231551968329,48.97167098390992,1,v,0.8790553999988333,correct,v
378,2F4K,379,1,42.86929762228945,56.25603850066918,1.2193218003524935,58.20804708733281,1,n,1.3221591000001354,incorrect,c
379,2F4K,380,1,48.93116635787528,66.1103679530801,1.3831283024790637,66.04139219423097,1,c,1.0455600999994203,correct,c
380,2F4K,381,1,38.6069274861712,55.573545376008575,1.1159000595267845,57.628436623274936,1,n,2.1292842000002565,incorrect,c
381,2F4K,382,1,33.01489769495999,44.37410406472917,0.993400192084874,47.72265694569426,1,c,0.5054894999993849,correct,c
382,2F4K,383,2,48.35740204873811,58.9318164554766,1.3667241240123238,60.44033038070672,2,v,1.053908699999738,incorrect,b
383,2F4K,384,2,33.75022942870029,46.985662174089015,1.0087067961533156,50.07706599427161,2,b,0.4494109999995999,correct,b
384,2F4K,385,1,75.60442335929113,55.18848567281509,2.408496288582659,57.29974121494742,2,n,0.7576544000003196,correct,n
385,2F4K,386,1,48.07311818710117,29.06745995540033,1.3586685453114633,34.164283271007704,2,n,1.3524507999991329,correct,n
386,2F4K,387,1,48.86484789847552,38.483118530605566,1.3812222090263868,42.40479779669088,2,n,0.5223523999993631,correct,n
387,2F4K,388,2,47.16839260802118,64.090582217152,1.333346529961449,64.5301306269815,2,v,2.8164251999987755,incorrect,b
388,2F4K,389,2,68.72804178893884,52.52940440467469,2.0875941346772704,54.99985934499981,1,v,1.4010369000006904,correct,v
389,2F4K,390,2,46.03732640699376,61.612368525165465,1.3023523241238109,62.60396917051256,2,b,0.747882199999367,correct,b
390,2F4K,391,1,41.619648977551485,25.058586035944856,1.1880449890339153,30.861608423450477,2,n,1.5243723999992653,correct,n
391,2F4K,392,2,55.19377165892328,43.71517268583528,1.5755037079757932,47.12708203527289,1,v,0.8364197999999305,correct,v
392,2F4K,393,1,44.5036634252739,62.2814650211474,1.2614735026923063,63.13141152470543,1,c,0.7711474000007001,correct,c
393,2F4K,394,2,53.7836885348389,69.28737651485146,1.5299777326596131,68.30126159870451,2,b,2.136665300000459,correct,b
394,2F4K,395,2,63.043578966325605,44.32072156647409,1.85485623151149,47.6744207089067,1,v,0.7323947999993834,correct,v
395,2F4K,396,2,49.61646436853582,30.783600489590867,1.4029795021960474,35.62340919158969,1,b,0.7772476999998617,incorrect,v
396,2F4K,397,1,62.03153050491935,74.35235292137403,1.8162287459977824,71.57446162947713,1,c,1.0538438000003225,correct,c
397,2F4K,398,1,63.33757331368329,51.03464190767738,1.866230517469628,53.68689803082925,2,n,2.0685780999992858,correct,n
398,2F4K,399,1,69.15864159532407,49.57485418943648,2.1063705384836737,52.39322451554721,2,n,0.5950706000003265,correct,n
399,2F4K,400,2,54.739831026963024,71.11380484000975,1.560701821484202,69.53043017471418,2,b,1.9339970000000903,correct,b
