,condition,trial,sub_task,x,y,xt,yt,cat,resp,rt,acc,correct_resp
0,4F4K,1,1,45.86523675008328,63.894064717074514,1.2977001801857162,64.10385287493784,1,c,2.11080579999998,correct,c
1,4F4K,2,2,48.82710444992169,27.536408738617844,1.380138578004239,32.969550926725994,1,v,1.970633399999997,correct,v
2,4F4K,3,1,47.6674880307821,60.30340466615543,1.347256587524225,61.31327943564659,1,c,1.4132182999999259,correct,c
3,4F4K,4,1,54.88097241750594,39.66977547043371,1.565289136003373,43.43607213644282,2,c,1.1277995000000374,incorrect,n
4,4F4K,5,2,29.912537710432524,41.17860919422819,0.9313376012663792,44.78189951337484,2,b,2.0248147000002064,correct,b
5,4F4K,6,2,40.75703500288101,47.33252290655902,1.1669243611787,50.27296307593764,2,b,1.0489302999999381,correct,b
6,4F4K,7,2,64.64750068607283,58.11333220695333,1.917763770466243,59.541335422865615,1,b,1.4008919000000333,incorrect,v
7,4F4K,8,2,48.925361770296206,29.72902758000818,1.3829613648111834,34.788073905567835,1,b,1.6199309000000994,incorrect,v
8,4F4K,9,2,35.877103217363,51.36525461282367,1.0543202091135937,53.82149268983888,2,v,1.2676170000002003,incorrect,b
9,4F4K,10,2,30.97560027536048,43.6995483215893,0.9521547730712686,47.03488987243682,2,b,2.001773700000058,correct,b
10,4F4K,11,1,55.98094623651856,48.11087955311152,1.6015050941243234,50.96281179317042,2,c,2.0745571999998447,incorrect,n
11,4F4K,12,1,35.90747148219396,56.35932067845223,1.05498621237908,58.08894689187872,1,n,1.5032529000000068,incorrect,c
12,4F4K,13,1,53.813326947309264,41.83324855470686,1.5309209691664136,45.366713013777215,2,c,1.3089853000001312,incorrect,n
13,4F4K,14,2,45.3108163608997,53.26153893594935,1.282825103212586,55.46203536668864,2,b,1.746806099999958,correct,b
14,4F4K,15,1,60.84107785950399,52.26151749523586,1.7718203543082516,54.5995801640704,2,n,2.318747799999983,correct,n
15,4F4K,16,1,38.86326519904955,27.196855104918654,1.1218641265572429,32.69188887274015,2,c,1.6306068999999752,incorrect,n
16,4F4K,17,1,65.20859966783631,43.06016464694407,1.940270758707325,46.46338379803415,2,n,1.061116299999867,correct,n
17,4F4K,18,2,57.33564104301055,43.732410476984334,1.6472610805362835,47.0642587792722,1,b,1.5712839999998778,incorrect,v
18,4F4K,19,1,75.37402125061631,61.15391084545584,2.39698459574748,61.98779082408363,2,n,1.206679799999847,correct,n
19,4F4K,20,1,40.74602582468267,53.912880771562335,1.166657248431998,56.02025491457342,1,c,1.0129288000000543,correct,c
20,4F4K,21,2,49.978355145949386,68.64915491490639,1.4135771792659195,67.5430957191834,2,v,1.7414157000000614,incorrect,b
21,4F4K,22,2,58.3085774304741,35.92643448531231,1.6809272923807923,40.12205375784204,1,v,3.4779505000001336,correct,v
22,4F4K,23,2,38.34319212334982,46.993496822448975,1.109796965754834,49.971924078889,2,b,1.4558547999999973,correct,b
23,4F4K,24,1,47.14520007269169,62.93359878976458,1.3327036450142942,63.37246306120551,1,c,1.771127100000058,correct,c
24,4F4K,25,1,46.67180254795163,31.657097483606385,1.3196488386408118,36.42025791286908,2,c,1.6668170000000373,incorrect,n
25,4F4K,26,2,51.06255754450186,64.63929725237799,1.4458087495461962,64.66327527117234,2,b,1.55824819999998,correct,b
26,4F4K,27,2,43.75605703667892,54.68420297112026,1.2420142370662346,56.67743615764007,2,b,1.90502790000005,correct,b
27,4F4K,28,1,65.91861558955674,76.00314434113662,1.9691301474285383,72.17607333858253,1,n,1.1096178000000236,incorrect,c
28,4F4K,29,1,23.675365145697643,35.1276358329325,0.8180500138881428,39.42180571969644,1,n,1.6195658999999978,incorrect,c
29,4F4K,30,2,36.93815047230656,53.788987708755606,1.0778411065369249,55.91429903038242,2,b,0.945850000000064,correct,b
30,4F4K,31,1,54.88438257475273,42.96201339743104,1.5654001380766631,46.375643413311735,2,c,0.6605317000000923,incorrect,n
31,4F4K,32,2,53.83082003876006,41.08908768452945,1.5314779561492864,44.701958711348446,1,b,1.0549505999999838,incorrect,v
32,4F4K,33,2,35.871039829183616,50.820781138596615,1.0541872839385191,53.346646925597575,2,b,1.589363399999911,correct,b
33,4F4K,34,2,51.927676322493255,43.99530342046424,1.4720536880756183,47.29918227848862,1,v,1.3585660999999618,correct,v
34,4F4K,35,1,60.58306579422877,43.54049866864321,1.7623396217081175,46.89273931168814,2,c,1.3040790999998535,incorrect,n
35,4F4K,36,1,42.69607846855552,58.98886161126736,1.2149377146104954,60.255532906291904,1,n,1.8439416000001074,incorrect,c
36,4F4K,37,2,40.64130031976272,56.81695630721297,1.1641193767175195,58.47053722365861,2,v,2.5190373999998883,incorrect,b
37,4F4K,38,2,49.08115057367024,72.22551873880842,1.3874487841091163,69.90833111558997,2,b,0.727353199999925,correct,b
38,4F4K,39,2,52.87081414833831,36.19814520372589,1.501208562848524,40.36090564921652,1,b,1.224932699999954,incorrect,v
39,4F4K,40,2,32.42168645805379,42.85231437901256,0.9812213931011428,46.27757938276212,2,v,1.485823900000014,incorrect,b
40,4F4K,41,2,56.68833126871476,64.52666904979702,1.625236801437915,64.57919095381644,2,b,1.3824976000000788,correct,b
41,4F4K,42,1,43.769440924694365,59.98352437317693,1.2423599503121596,61.05755455784627,1,n,1.206673099999989,incorrect,c
42,4F4K,43,1,41.581541280501305,47.01619780883907,1.187103922683697,49.99209132422053,1,n,1.983510600000045,incorrect,c
43,4F4K,44,2,51.558683961612665,67.4795739395305,1.4608018716112905,66.72679099216084,2,b,1.0125173999999788,correct,b
44,4F4K,45,1,35.66721622951042,47.75935154947353,1.0497286796838925,50.65149213613096,1,c,0.8304932999999437,correct,c
45,4F4K,46,1,43.5693457441953,57.206762868298405,1.2372014010731172,58.7941232262173,1,c,1.2249071999999614,correct,c
46,4F4K,47,2,53.49624435785962,63.68158184918015,1.5208599749401674,63.943043784652176,2,b,1.607267100000172,correct,b
47,4F4K,48,1,55.4607607585298,39.34265688737173,1.584275045230913,43.14483515600848,2,c,1.2972133999999187,incorrect,n
48,4F4K,49,1,42.77599197215788,28.182897238282848,1.216958321347197,33.501232823120986,2,n,1.4072183999999197,correct,n
49,4F4K,50,2,49.7011779777641,58.45803967394184,1.4054531268639412,59.82341800864895,2,b,1.376654500000086,correct,b
50,4F4K,51,2,59.63316116136252,40.22576315177411,1.7278701886418766,43.93156647740299,1,b,1.0792744000000312,incorrect,v
51,4F4K,52,1,69.21218218154787,48.27690219646857,2.1087169619416795,51.1097009004844,2,n,1.08429719999981,correct,n
52,4F4K,53,2,53.94977274778503,70.09230362970655,1.5352708355902345,68.52185459764775,2,b,1.3512986000000637,correct,b
53,4F4K,54,1,34.95246708201995,52.74418114482067,1.034242153615773,55.01663453609595,1,c,1.0367596000000958,correct,c
54,4F4K,55,1,33.690449720946496,50.09102952091288,1.007453667830432,52.70786351642919,1,c,0.8971932000001743,correct,c
55,4F4K,56,1,45.380821628769866,30.85555784572885,1.2846938954912483,35.738265147769766,2,n,0.963972399999875,correct,n
56,4F4K,57,1,61.50504020988097,42.05550644030548,1.796453018941139,45.56533772673391,2,c,1.4373445999999603,incorrect,n
57,4F4K,58,2,47.18588518903331,57.26992226848596,1.3338316203100395,58.84642523580689,2,v,1.6305580000000646,incorrect,b
58,4F4K,59,1,37.45905958823041,45.915137969422254,1.0895797436822596,49.012475921131085,1,n,1.364473099999941,incorrect,c
59,4F4K,60,2,64.62852287899848,55.12319256936479,1.917007108050766,57.04949164265938,1,b,1.3952162999999018,incorrect,v
60,4F4K,61,1,36.31144097943557,22.859492691812413,1.063885750228204,29.251850494802277,2,c,1.8681905999999344,incorrect,n
61,4F4K,62,1,48.75030258830806,59.754151964525946,1.3779361870754432,60.87351619910508,1,n,1.3332330999999158,incorrect,c
62,4F4K,63,1,53.1702945143328,38.17163101411417,1.5105865383592532,42.104406206265615,2,n,1.9956464000001688,correct,n
63,4F4K,64,2,44.8794191656618,67.76733426947905,1.2713687871511463,66.92950389952718,2,b,1.3392652999998518,correct,b
64,4F4K,65,2,43.2441858078484,50.13440967667899,1.228864268016934,52.74590755744784,2,b,1.043162200000097,correct,b
65,4F4K,66,1,42.12460174123978,56.12185057320716,1.2005854193765968,57.890232141974046,1,c,1.1458717999998953,correct,c
66,4F4K,67,1,62.7505067808124,44.22324695960875,1.8435866213948693,47.50283395778871,2,n,0.8122484000000441,correct,n
67,4F4K,68,1,29.194306438966887,40.67239487301294,0.9175312454354452,44.32998877814177,1,c,0.8789861000000201,correct,c
68,4F4K,69,2,71.74913475216718,50.524779215888586,2.2229477563134767,53.08785711176306,1,v,1.67990779999991,correct,v
69,4F4K,70,2,54.94490859769535,60.98711122843408,1.5673715961824024,61.85613818657656,2,b,1.0306069999999181,correct,b
70,4F4K,71,1,59.16691523941117,73.17917029616046,1.711198896400947,70.50396324983946,1,n,1.3948573000000124,incorrect,c
71,4F4K,72,1,47.70941123283271,60.68596125189588,1.3484315954434292,61.61765964675911,1,c,1.909650099999908,correct,c
72,4F4K,73,2,46.73264879816077,37.11633198247046,1.3213195971890388,41.17031441639066,1,v,1.4616077999999106,correct,v
73,4F4K,74,2,43.09922093458273,57.60490072865269,1.225165483805876,59.12321310304461,2,v,1.2067211999999472,incorrect,b
74,4F4K,75,2,61.52025447782384,45.262256297771856,1.7970214559444686,48.43042067213573,1,b,1.784655100000009,incorrect,v
75,4F4K,76,1,62.601949883578015,79.34470501406334,1.8379002862189024,73.96939317911426,1,n,1.3887306999999964,incorrect,c
76,4F4K,77,1,33.89501322593845,52.93484627079031,1.011748280273587,55.18098168029444,1,n,1.8500197000000753,incorrect,c
77,4F4K,78,2,46.15425292470351,35.551636730272264,1.305522740508394,39.7931230308958,1,v,1.4919938999998976,correct,v
78,4F4K,79,1,43.198712218748426,54.19594409077779,1.2277028072408829,56.26193024273717,1,c,1.3877268000001095,correct,c
79,4F4K,80,1,58.2896215724075,42.17974126664254,1.6802648417755133,45.67637399259854,2,c,1.078629100000171,incorrect,n
80,4F4K,81,1,54.05450907597055,41.42122840669922,1.538618192935822,44.99859566542188,2,n,1.1217518000000837,correct,n
81,4F4K,82,1,32.88399659263702,45.64412903019175,0.9906998218276568,48.77095864820987,1,c,1.045216999999866,correct,c
82,4F4K,83,2,28.98037653119145,51.98107237769701,0.9134586295531216,54.35660980903645,2,v,1.4522405999998682,incorrect,b
83,4F4K,84,1,50.28270233393404,70.37434481414489,1.4225516846780069,68.70935712332503,1,n,1.5101486999999452,incorrect,c
84,4F4K,85,1,55.93125017283045,62.98308129262351,1.5998509526531024,63.41042331283092,1,n,1.2057809000000361,incorrect,c
85,4F4K,86,2,33.04941785260569,53.70788582987615,0.9941135370645404,55.84488124368844,2,v,1.2309534000000895,incorrect,b
86,4F4K,87,1,54.60717610094235,43.08134677778663,1.5564025865724949,46.48231900364693,2,n,0.9457218000000012,correct,n
87,4F4K,88,1,41.51866537444024,56.04891114030857,1.185552836854249,57.82910151712767,1,c,1.5307551000000785,correct,c
88,4F4K,89,2,56.268808366434456,38.57267408049533,1.6111203323796377,42.46030934598828,1,b,1.1791931000000204,incorrect,v
89,4F4K,90,2,38.81364741759538,57.06431038319582,1.1207072146491976,58.67602738583361,2,v,0.8425764999999501,incorrect,b
90,4F4K,91,2,63.53465708498338,58.408653108908425,1.8738944750567528,59.78307418243459,1,v,1.328088699999853,correct,v
91,4F4K,92,1,54.71022886436304,67.55391042082002,1.559741412016705,66.77927302211467,1,n,1.2431389000000763,incorrect,c
92,4F4K,93,2,37.89770026201856,25.72733912013221,1.0995635650506614,31.50349573207122,1,b,0.8733005999999932,incorrect,v
93,4F4K,94,1,66.92389833561089,50.03074438056819,2.0107266270577755,52.65497945480476,2,n,0.8064853000000767,correct,n
94,4F4K,95,2,24.831756652617035,42.75793043161862,0.8379596607432583,46.19320606180734,2,v,0.8853317000000516,incorrect,b
95,4F4K,96,2,67.7320955358059,47.75055916795928,2.044804428756955,50.64370032476314,1,b,0.8304693000000043,incorrect,v
96,4F4K,97,1,60.46847746208892,38.84244957259737,1.758145322541116,42.69997232248914,2,n,0.9873030999999628,correct,n
97,4F4K,98,1,46.42033143964981,31.46036975170602,1.3127661490848102,36.25243646133825,2,c,1.2431710999999268,incorrect,n
98,4F4K,99,2,75.91406466167227,58.81090792788714,2.424054171637339,60.11098083404411,1,b,1.2058558999999605,incorrect,v
99,4F4K,100,1,47.62582847683186,59.44597236501191,1.3460899832879545,60.625380042331614,1,n,0.9206244000001789,incorrect,c
100,4F4K,101,2,68.27827892318116,52.23948917479699,2.068160811174532,54.58051230185645,1,b,1.2309655999999904,incorrect,v
101,4F4K,102,1,61.51747660576328,40.78107381487786,1.7969176553896835,44.42698168345508,2,c,0.8138344999999845,incorrect,n
102,4F4K,103,1,38.87209309253,23.079079647174296,1.122070087050602,29.42087596854996,2,c,1.455521600000111,incorrect,n
103,4F4K,104,1,68.83683185530845,55.0712182719838,2.0923220898930777,57.00551904614733,2,n,1.6679598000000624,correct,n
104,4F4K,105,2,29.085759639887517,43.47488831612286,0.9154625595370176,46.83409668379644,2,b,2.2566412000001037,correct,b
105,4F4K,106,1,67.74499307339065,56.72044761895619,2.045352912215566,58.39021630783207,2,n,1.8979011999999784,correct,n
106,4F4K,107,2,59.86507196505305,45.32153124417728,1.736222879555323,48.48329532056337,1,b,2.3438770000000204,incorrect,v
107,4F4K,108,1,57.80245065953723,51.35488242796619,1.6633289578877686,53.812461659989694,2,n,1.5965436999999838,correct,n
108,4F4K,109,2,61.88021982737802,45.125399659411045,1.8105231136962665,48.30832070797214,1,b,1.230962399999953,incorrect,v
109,4F4K,110,2,39.011011395218965,49.1313518957332,1.1253161250432284,51.86409385548101,2,b,2.079929100000072,correct,b
110,4F4K,111,1,31.12170105757028,39.43222968087877,0.9550518944004528,43.22455954897062,1,c,1.5344389000001684,correct,c
111,4F4K,112,2,59.93961288152277,51.585685360637,1.7389161722184243,54.013281533076174,1,b,1.7225544999998874,incorrect,v
112,4F4K,113,1,68.66871327648087,45.82139175120771,2.0850202542000598,48.9289470779643,2,n,1.2727698999999575,correct,n
113,4F4K,114,1,27.822175593203788,43.77962334419289,0.8917215993449499,47.10645184168983,1,c,1.1581381000000874,correct,c
114,4F4K,115,1,59.525547949943736,47.26941020908885,1.7240079634885626,50.21694637177016,2,n,1.0391366999999718,correct,n
115,4F4K,116,1,53.77592655809778,63.63859859498254,1.529730805355692,63.91044418163463,1,n,0.8486322999999629,incorrect,c
116,4F4K,117,2,48.74101053746337,37.10911510829671,1.3776699641559094,41.163939745061136,1,v,1.1156528000001344,correct,v
117,4F4K,118,1,46.37887124764948,30.784698533753733,1.3116348480190725,35.67820448814313,2,n,2.104924699999856,correct,n
118,4F4K,119,2,42.440189997698056,49.31356987951326,1.2084901380260038,52.02460661526952,2,v,1.7286301000001458,incorrect,b
119,4F4K,120,2,35.53984230244664,48.25212764697145,1.0469519775526863,51.08778756378175,2,v,1.540469499999972,incorrect,b
120,4F4K,121,1,66.06102803530486,52.00324027225811,1.9749701400306048,54.37583235546884,2,n,1.340016099999957,correct,n
121,4F4K,122,1,72.45745080424174,61.795524200947455,2.2559319101419923,62.4912649494334,2,n,0.6969092000001638,correct,n
122,4F4K,123,1,48.2445008039509,60.2725860855376,1.3635192083460563,61.28868959389237,1,n,1.0845074999999724,incorrect,c
123,4F4K,124,2,41.51446799110658,53.30681212673522,1.185449363789956,55.500928636744106,2,b,1.303268800000069,correct,b
124,4F4K,125,1,62.823157881142166,47.37004772662208,1.8463739011062572,50.30626340697988,2,n,0.8902124000001095,correct,n
125,4F4K,126,1,37.91210086322218,51.2980850352549,1.0998928809560604,53.76299799351117,1,c,1.680090600000085,correct,c
126,4F4K,127,1,65.45226898688412,52.91216225750618,1.95012698452636,55.161440942652696,2,n,0.7994292999999288,correct,n
127,4F4K,128,2,64.01600611107135,46.43725869358629,1.89274516561358,49.477358768147695,1,v,2.256436399999984,correct,v
128,4F4K,129,2,52.03588290660549,37.93388681867325,1.4753696745148817,41.89364817919181,1,b,1.9046203000000332,incorrect,v
129,4F4K,130,1,61.30432092233743,51.46782742685333,1.7889705372325255,53.91077089507532,2,n,0.8789338999999927,correct,n
130,4F4K,131,1,30.622878308572748,38.49398592565992,0.945196602877874,42.39044171507809,1,c,0.8975542999999107,correct,c
131,4F4K,132,2,57.18080089398421,42.600818671397214,1.6419657417753908,46.05275954960285,1,v,1.4191258999999263,correct,v
132,4F4K,133,2,59.65683741855936,76.44067555564754,1.7287210872042755,72.42252825180425,2,b,1.3220040000001063,correct,b
133,4F4K,134,1,30.729214761886123,40.842940848372905,0.947288938188018,44.482203401133305,1,c,0.8850365000000693,correct,c
134,4F4K,135,1,66.33207892621219,54.9209071830394,1.986133182584072,56.878231948139735,2,n,1.303832600000078,correct,n
135,4F4K,136,2,39.79932806950118,51.451531663626206,1.14391498985214,53.89659110200071,2,v,1.2184672000000774,incorrect,b
136,4F4K,137,1,63.567908789061455,48.74166973194086,1.8751906269794716,51.52038500842501,2,n,1.4073232999999163,correct,n
137,4F4K,138,2,23.90083509942086,42.04399738077502,0.8218944597004886,45.555051761696845,2,v,0.9413728000001811,incorrect,b
138,4F4K,139,1,39.123373570116144,52.26719985257797,1.1279485067207786,54.60449837858013,1,c,1.4129848000000038,correct,c
139,4F4K,140,1,52.49248902323824,69.82375544260942,1.4894448139746077,68.34216065262703,1,n,1.4130561000001762,incorrect,c
140,4F4K,141,1,57.28088592626098,42.87761508716473,1.645386575368244,46.30019665403288,2,n,1.3523428999997122,correct,n
141,4F4K,142,2,51.65053798754798,32.83991690272387,1.463594743770079,37.43491439127867,1,b,1.8806008999999904,incorrect,v
142,4F4K,143,2,68.16089097221645,56.80259061194474,2.063118558665814,58.45858630352881,1,b,1.030670900000132,incorrect,v
143,4F4K,144,2,52.93233798114993,65.16304454456014,1.5031303663018185,65.05208892907835,2,b,1.2361077000000478,correct,b
144,4F4K,145,2,33.72959862352902,48.72135234563447,1.0082741481673014,51.502448507849664,2,v,0.963927700000113,incorrect,b
145,4F4K,146,2,30.88664969923081,44.14822135764049,0.950395223769908,47.43580849568321,2,b,1.1339952999996967,correct,b
146,4F4K,147,2,39.30094311610373,57.16147899144695,1.132121104540398,58.75660174615717,2,b,0.890057799999795,correct,b
147,4F4K,148,2,59.77287359654437,64.35982973732725,1.7328973625252853,64.45433022673662,2,b,1.2734786999999415,correct,b
148,4F4K,149,2,39.53846808655428,48.98186428903621,1.137726701235996,51.73231259950145,2,b,2.080630700000256,correct,b
149,4F4K,150,1,31.72807016429182,45.30099740769732,0.967170472309842,48.46497928083223,1,c,1.3282884000000195,correct,c
150,4F4K,151,2,53.35999641630437,39.77640946639782,1.5165571783038083,43.531058121171576,1,b,2.5008560999999645,incorrect,v
151,4F4K,152,1,25.866695551328235,42.04462263855542,0.8561887988072444,45.55561057010139,1,c,1.558687000000191,correct,c
152,4F4K,153,2,61.69650459333392,41.64749038116791,1.8036196560166808,45.200731691371054,1,b,1.6794150000000627,incorrect,v
153,4F4K,154,1,46.69239834461472,60.83206250934747,1.320214135657836,61.7334817142406,1,n,1.4493579999998474,incorrect,c
154,4F4K,155,1,45.64769383867835,38.63256236291835,1.2918430607057776,42.51349594620746,2,n,1.601311800000076,correct,n
155,4F4K,156,1,46.29815020907998,38.20652677362128,1.3094350542753828,42.13535553873923,2,n,1.2675257999999303,correct,n
156,4F4K,157,1,68.72190373508673,49.69693798062132,2.087327696924284,52.36185485977491,2,n,1.1778525999998237,correct,n
157,4F4K,158,1,45.776226755579366,59.37322146697559,1.295300474410264,60.56666006310071,1,n,1.5344222999997328,incorrect,c
158,4F4K,159,2,60.0801387833647,52.91602566868886,1.7440049845569812,55.164769242172845,1,v,1.722572499999842,correct,v
159,4F4K,160,1,49.46867100291887,57.72205130373016,1.3986743768739136,59.21976948810487,1,n,1.8733139000000847,incorrect,c
160,4F4K,161,2,37.728481286508654,23.39809140161019,1.0957012095739287,29.66746799808234,1,b,1.9889022999996087,incorrect,v
161,4F4K,162,2,44.98199028002272,33.46370531728647,1.27408339169496,37.97367823046773,1,v,1.1581414000002042,correct,v
162,4F4K,163,2,54.20468744424798,37.92632011988732,1.5434306100187825,41.88694326791208,1,v,1.0296891000002688,correct,v
163,4F4K,164,1,46.8439126607401,37.16560161348043,1.3243802299874354,41.213839450843366,2,n,1.5708307999998397,correct,n
164,4F4K,165,2,36.85058412987309,26.735851735691632,1.075880261257662,32.31672058802387,1,v,1.2734439000000748,correct,v
165,4F4K,166,2,42.56750963587416,58.63699558508536,1.2116939000893294,59.96940753156366,2,b,1.140294900000299,correct,b
166,4F4K,167,2,47.87085418748523,60.31434374151114,1.3529660382089816,61.32200515383993,2,v,1.2006037999999535,incorrect,b
167,4F4K,168,2,50.27803860693035,37.71798146330535,1.4224137330493871,41.70240512783037,1,v,1.589121299999988,correct,v
168,4F4K,169,2,50.05256305942898,31.10445026017143,1.4157601684648662,35.94952828922042,1,v,2.1609106999999312,correct,v
169,4F4K,170,1,57.4055653307851,43.28326385733612,1.6496579974649737,46.66281329599978,2,c,2.4158510000002025,incorrect,n
170,4F4K,171,2,47.55377837593658,37.14205873487317,1.3440747278412617,41.19304044261386,1,v,1.2006572999998752,correct,v
171,4F4K,172,2,52.441442160454734,68.2203698539278,1.4878646225167058,67.24618080617986,2,b,1.2370837999997093,correct,b
172,4F4K,173,1,67.34377278269719,53.91491466611544,2.0283592325701174,56.02199344700794,2,n,0.9336451000003763,correct,n
173,4F4K,174,1,46.213796637642766,69.72562449992057,1.3071402094996054,68.27621718066156,1,n,0.9518252000002576,incorrect,c
174,4F4K,175,1,59.044204018541016,71.78588530657751,1.7068379825668458,69.62864126938636,1,n,0.8924904999998944,incorrect,c
175,4F4K,176,2,48.74391186679541,65.54730667537086,1.377753083486204,65.33502205068801,2,b,2.626836600000388,correct,b
176,4F4K,177,2,43.91346545322577,64.23959450061396,1.246086278644113,64.36412342243396,2,b,1.5829539999999724,correct,b
177,4F4K,178,2,55.45095487263498,71.40850040998644,1.5839520323395178,69.38602047631562,2,b,1.1338839000000007,correct,b
178,4F4K,179,2,57.33429490751362,43.83084634363999,1.6472149708835446,47.15222716287943,1,v,1.5344264000000294,correct,v
179,4F4K,180,1,61.31003470117104,55.44116530127215,1.789183105841404,57.3180515111934,2,n,1.5647820000003776,correct,n
180,4F4K,181,1,30.14477502730608,46.54548256148158,0.9358461309804468,49.57364276716809,1,c,2.1170179000000644,correct,c
181,4F4K,182,1,50.837086430315736,59.18743091600244,1.439045883745108,60.41645569426506,1,c,1.2238775000000714,correct,c
182,4F4K,183,2,63.58729960281861,52.72399191053567,1.875946894998898,54.99921858667416,1,b,1.6850682999997844,incorrect,v
183,4F4K,184,2,52.38695220638456,73.01224234873038,1.4861796976038728,70.40080775140667,2,v,1.6669643999998698,incorrect,b
184,4F4K,185,2,58.89690859108655,41.36250095286082,1.7016180686111129,44.9461376863904,1,v,1.1209453999999823,correct,v
185,4F4K,186,1,61.62413264444303,46.94611265125243,1.8009073718276445,49.929824211319485,2,n,1.8125123999998323,correct,n
186,4F4K,187,2,54.16779252939516,64.56642628357659,1.5422469315418867,64.60889128584041,2,b,1.237062700000024,correct,b
187,4F4K,188,1,73.55033118855377,53.92477730385011,2.307786777358186,56.0304234207104,2,n,0.6241218000000117,correct,n
188,4F4K,189,1,54.56320402916342,39.52130741866244,1.554980103688954,43.30386089948132,2,n,0.8304227999997238,correct,n
189,4F4K,190,2,56.149421654331846,38.71717379287454,1.6071255629935497,42.58865571288339,1,b,1.1582843999999568,incorrect,v
190,4F4K,191,1,48.294574953123785,63.74547569819284,1.3649397294227077,63.991459411715056,1,c,1.8445890000002692,correct,c
191,4F4K,192,2,54.9145146238895,63.748112467214526,1.566381291260314,63.99345631696831,2,v,1.8865346000002319,incorrect,b
192,4F4K,193,1,47.59476174227712,32.68760543180725,1.3452206703520584,37.303734907934434,2,n,2.4279883999997764,correct,n
193,4F4K,194,1,49.60820816965692,67.66299469760565,1.402738655380951,66.85614151911967,1,c,1.1095944000003328,correct,c
194,4F4K,195,2,40.94303871883328,49.718412384998274,1.1714465761553987,52.38072710190743,2,b,1.375935799999752,correct,b
195,4F4K,196,1,44.46195385316809,54.61732952433345,1.2603798680491676,56.6206311382283,1,n,1.4679080000000795,incorrect,c
196,4F4K,197,1,46.69370973383652,38.22680965523578,1.3202501378234752,42.15334626952396,2,n,1.8379076999999597,correct,n
197,4F4K,198,2,72.78494538649855,58.03243634543011,2.271347368684051,59.47497138492961,1,v,0.7518835999999283,correct,v
198,4F4K,199,2,38.730034079810366,49.103520729391285,1.1187603446764989,51.839565967986445,2,b,1.2795055999999931,correct,b
199,4F4K,200,1,51.02349238381472,42.70643209751287,1.4446347422537194,46.14716999173309,2,c,0.5391277000003356,incorrect,n
200,4F4K,201,1,63.40417090917869,51.04450636236584,1.8688167722402351,53.5419507416564,2,n,0.9031489999997575,correct,n
201,4F4K,202,1,50.006070225392506,65.04392938188684,1.414392085276255,64.96398150216912,1,n,1.0732179000001452,incorrect,c
202,4F4K,203,1,64.53602609939412,52.36139496102703,1.9133234487666704,54.68599813868054,2,n,1.126577300000008,correct,n
203,4F4K,204,2,55.82685484816513,45.95915942768936,1.5963816995718092,49.05169354028348,1,b,0.8782424000000901,incorrect,v
204,4F4K,205,1,37.23927457997373,47.42431388470485,1.0846113986109114,50.35441310942013,1,c,1.1828384999998889,correct,c
205,4F4K,206,1,49.16132793061741,39.13087412412532,1.3897639253916207,42.95641078925552,2,c,1.0791642000003776,incorrect,n
206,4F4K,207,1,47.713764984092,40.00516501113973,1.3485536794878343,43.734901147544335,2,c,1.2431315999997423,incorrect,n
207,4F4K,208,2,58.59102668986297,71.68104766233628,1.6908290455140456,69.56147478641333,2,b,1.364493599999605,correct,b
208,4F4K,209,2,41.84744838556784,30.537070375584143,1.1936860554973607,35.46861645554441,1,b,0.8976849999999104,incorrect,v
209,4F4K,210,1,38.69099195727135,55.78660526692493,1.1178524386074458,57.6088987819346,1,n,1.085724300000038,incorrect,c
210,4F4K,211,2,48.80824101934284,58.79879328189965,1.3795973192727882,60.10112861154589,2,b,0.9882502000000386,correct,b
211,4F4K,212,1,69.122191450372,47.92356084403959,2.1047745999206726,50.79696915064998,2,n,1.006423299999824,correct,n
212,4F4K,213,2,49.54864835393568,37.486820570904285,1.4010024227482922,41.4978202722223,1,b,0.8486610999998447,incorrect,v
213,4F4K,214,1,26.887999981644,44.04445786348966,0.8745665041510966,47.3431018439877,1,n,1.3091749000000164,incorrect,c
214,4F4K,215,2,47.41964894750927,40.051413667126894,1.3403311342854616,43.7761250708647,1,b,1.2795293999997739,incorrect,v
215,4F4K,216,2,50.90433636204089,38.06728194783479,1.4410596863773155,42.01188020931085,1,v,1.5092023000001973,correct,v
216,4F4K,217,2,46.22032659687193,28.815899484816597,1.307317713786395,34.025546674361806,1,v,1.1763762999999017,correct,v
217,4F4K,218,2,62.19343331374706,79.63336635666047,1.82235370115348,74.1145757077529,2,b,1.3886074000001827,correct,b
218,4F4K,219,1,44.73057896615545,52.89186097180283,1.267439926756601,55.14394996844364,1,c,1.4910611000000245,correct,c
219,4F4K,220,1,52.287794359715946,31.442878626528028,1.4831184570249187,36.237528877167314,2,n,1.2249151000000893,correct,n
220,4F4K,221,1,57.89708256640156,45.01277049261832,1.6666053044304452,48.20781521659007,2,n,0.6012774000000718,correct,n
221,4F4K,222,2,63.10249362798269,47.41958600513123,1.857130000874453,50.35021846247901,1,b,0.9629970000000867,incorrect,v
222,4F4K,223,1,71.96218993828654,53.66798862525224,2.23281805913662,55.810715241369934,2,n,1.0238507000003665,correct,n
223,4F4K,224,2,38.50752015274199,26.09388886444717,1.1135957455760408,31.797849767825607,1,v,0.4919921999999133,correct,v
224,4F4K,225,2,28.352784668224444,35.76510357412407,0.9016150733549416,39.980387669672425,2,v,0.9457452000001467,incorrect,b
225,4F4K,226,2,58.34013948068012,42.163317857121456,1.6820308712479424,45.66169497225467,1,v,1.0791947000002438,correct,v
226,4F4K,227,1,33.41148939521306,51.93244320130962,1.0016265309869563,54.3144317518495,1,c,1.4252287999997861,correct,c
227,4F4K,228,1,56.13150251693089,64.10215824675794,1.6065268306575151,64.26078292253838,1,n,0.6548276999997142,incorrect,c
228,4F4K,229,2,55.73292558448935,42.173724992036064,1.5932666833668483,45.67099671422174,1,b,0.9823003000001336,incorrect,v
229,4F4K,230,2,63.76662798492931,49.33789168910135,1.8829554145000365,52.046020954864034,1,b,1.467794700000013,incorrect,v
230,4F4K,231,2,51.782328886043786,33.470156260223725,1.4676112477980925,37.97926233182405,1,v,0.6423283000003721,correct,v
231,4F4K,232,1,50.49289040501299,60.3335107178831,1.4287828930466762,61.337290867474486,1,n,0.9578991999997015,incorrect,c
232,4F4K,233,2,56.675184240390806,39.35946062006866,1.624792547180194,43.1597899700983,1,b,1.637065800000073,incorrect,v
233,4F4K,234,1,49.09554864434524,38.28414244804828,1.3878642477214516,42.20420655310301,2,n,2.0624143999998523,correct,n
234,4F4K,235,1,48.37807988195331,57.24664753818034,1.3673119191335854,58.8271557256227,1,c,1.1824563999998645,correct,c
235,4F4K,236,1,53.711218806025954,45.199782037608735,1.5276738451528915,48.37468625686263,2,n,1.710735300000124,correct,n
236,4F4K,237,1,36.92147060176568,44.26287147554648,1.0774673241620596,47.53823123963243,1,n,2.464288099999976,incorrect,c
237,4F4K,238,1,54.94438127106287,69.30874669366489,1.5673544093432437,67.99441325172586,1,n,1.1581616000003123,incorrect,c
238,4F4K,239,2,51.11937125773685,60.28182912538577,1.4475178488764069,61.29606559863925,2,b,1.6566351000001305,correct,b
239,4F4K,240,2,53.39317834344628,66.48445670449699,1.5176039620007766,66.01658290416636,2,b,1.2065116999997372,correct,b
240,4F4K,241,1,45.235280976385184,57.74373171100319,1.2808117332809723,59.23762466952408,1,c,1.8680891999997584,correct,c
241,4F4K,242,1,46.10714529333927,55.155125935405394,1.304244508378333,57.07649832194279,1,c,1.2905261999999311,correct,c
242,4F4K,243,2,55.2492441225974,40.88671451037171,1.57732212758927,44.52127822521436,1,v,1.4616125000002285,correct,v
243,4F4K,244,1,53.0876743878862,69.6350264756479,1.5079935225321974,68.21520283387258,1,c,1.2056321999998545,correct,c
244,4F4K,245,1,32.27219360145095,49.5354815413118,0.9781758881336268,52.2198985100324,1,c,0.9699967999999899,correct,c
245,4F4K,246,1,37.409381109573935,55.21406163690259,1.0884547509346776,57.12632057343768,1,c,0.7941877999996905,correct,c
246,4F4K,247,2,44.68201176640564,62.60899142152684,1.2661605516990473,63.12270284837574,2,v,1.1595511999998962,incorrect,b
247,4F4K,248,2,50.48968094963683,64.74501935336664,1.4286875410465971,64.74205232599196,2,v,0.8486517999999705,incorrect,b
248,4F4K,249,1,47.52190307005917,57.55810390982231,1.343184132193135,59.08460733398833,1,c,1.0069911999999022,correct,c
249,4F4K,250,1,60.066403498409024,44.14348582759168,1.7435069378282169,47.43157776490612,2,n,1.1035667999999532,correct,n
250,4F4K,251,1,47.992468269448594,35.43670371685764,1.356391875518122,39.69238561554479,2,n,1.1581477999998242,correct,n
251,4F4K,252,2,43.379111350330135,56.993328159467296,1.232316931066091,58.617114108957146,2,b,1.0913928999998461,correct,b
252,4F4K,253,1,62.69473857190426,50.29755225471639,1.841449913444262,52.88890320739136,2,n,0.7515609000001859,correct,n
253,4F4K,254,1,46.435954488180826,38.5283456664118,1.313192699544287,42.4209477884036,2,n,1.0059093999998368,correct,n
254,4F4K,255,1,64.39649733085966,80.15792795701424,1.9077801410418875,74.37436826614872,1,n,1.3703952000000754,incorrect,c
255,4F4K,256,1,31.544620120321035,49.68064666598216,0.9634880001782572,52.3475362951282,1,c,1.0610504999999648,correct,c
256,4F4K,257,2,35.5807416484896,52.09759577795379,1.047842765912418,54.45761908311734,2,v,1.205594099999871,incorrect,b
257,4F4K,258,1,57.33279770251657,71.40218134214714,1.647163688110156,69.38193816462659,1,c,0.9153787999998713,correct,c
258,4F4K,259,1,45.3638493181456,31.6503739000056,1.284240569403372,36.414517694988646,2,c,0.9336081999999806,incorrect,n
259,4F4K,260,2,61.02853291710384,46.8589837685542,1.7787404210552935,49.85239658183736,1,v,1.0539002000000437,correct,v
260,4F4K,261,2,45.31679895349597,64.71519854189705,1.2829847023755223,64.71984672905,2,v,0.8304411999997683,incorrect,b
261,4F4K,262,2,69.67334570053067,57.71782155348416,2.129036038960506,59.21628551228103,1,b,0.8910083000000668,incorrect,v
262,4F4K,263,2,38.93164557093335,52.89462860362077,1.123460473334485,55.1463346315767,2,b,1.848973499999829,correct,b
263,4F4K,264,2,58.99965538762961,43.06484169748276,1.7052575635946223,46.46756472893721,1,v,1.1277454999999463,correct,v
264,4F4K,265,1,76.57910950544914,66.22925932752302,2.4578098161692545,65.8321905687883,2,n,1.1581679999999324,correct,n
265,4F4K,266,2,59.07723081799436,43.96532138098567,1.7080105954010074,47.27239240579885,1,b,1.1035498999999618,incorrect,v
266,4F4K,267,2,50.02851306332808,35.74047876915662,1.4150523158779127,39.95877476474482,1,b,0.9167509999997492,incorrect,v
267,4F4K,268,2,31.714525102038596,43.28580666944845,0.966898095838288,46.665086263072034,2,b,1.2431267000001753,correct,b
268,4F4K,269,2,52.8188081140018,33.52787632364711,1.4995859807597316,38.02923737031231,1,v,0.9343244000001505,correct,v
269,4F4K,270,1,66.51851810687768,53.11041432785802,1.9938481553531815,55.3321093932414,2,n,0.9093259999999646,correct,n
270,4F4K,271,1,30.92764276846779,46.75571609132193,0.9512057116264152,49.76060177875196,1,c,1.3838341999999102,correct,c
271,4F4K,272,2,59.41946196884966,45.69176401444566,1.7202090006736976,48.81341984561519,1,v,1.1288501999997607,correct,v
272,4F4K,273,1,60.86376225764921,43.94659996815379,1.7726563347129165,47.25566392116597,2,n,0.9639947999999094,correct,n
273,4F4K,274,1,30.62733432525649,46.62663117682473,0.9452841891005812,49.64582037411907,1,c,1.256700699999783,correct,c
274,4F4K,275,1,44.80233790232973,53.79878060781907,1.269332593520209,55.922678013163576,1,n,1.3706022000001212,incorrect,c
275,4F4K,276,1,50.25000009494855,63.97723871042132,1.4215846443155142,64.16664347885299,1,c,1.1825948000000608,correct,c
276,4F4K,277,2,58.98957096180968,74.66876951396188,1.7049000090182087,71.40334450296803,2,v,1.4737324999996417,incorrect,b
277,4F4K,278,2,54.66618092932607,72.96724955842781,1.558313419303517,70.3729231666347,2,b,1.024640399999953,correct,b
278,4F4K,279,2,46.41065494696662,59.3565358432094,1.3125020247813004,60.55318480838538,2,b,1.6369399999998677,correct,b
279,4F4K,280,2,45.337689231956354,39.72542191722287,1.2835421534479754,43.48563725510321,1,v,1.7165766000002805,correct,v
280,4F4K,281,1,50.11915680665705,60.079581317278965,1.4177220401266493,61.13446108811797,1,n,2.1410366999998587,incorrect,c
281,4F4K,282,1,47.20920866627351,65.55648733027184,1.33447868297725,65.34175737775129,1,c,0.9886569999998756,correct,c
282,4F4K,283,2,66.6994441785645,53.99157330260729,2.001363643066866,56.08749849364365,1,b,1.4493134999997892,incorrect,v
283,4F4K,284,1,43.38506728438956,51.495148943862894,1.2324695631753944,53.934541489285664,1,c,0.7685759000000871,correct,c
284,4F4K,285,1,41.790535174926205,57.995256134366166,1.1922741911905854,59.44444924694888,1,c,1.4737202000001162,correct,c
285,4F4K,286,2,63.57278800375437,41.42483407765081,1.8753808942550096,45.00181651698913,1,b,1.255239800000254,incorrect,v
286,4F4K,287,1,29.401830910226664,44.65590558057071,0.9214992695033078,47.88925188132148,1,c,0.9093808999996327,correct,c
287,4F4K,288,2,61.74092104406274,42.08880985408892,1.805286274149695,45.59510229240045,1,v,0.842591700000412,correct,v
288,4F4K,289,2,48.43458780579781,62.87930736196391,1.3689195222902468,63.330779229687735,2,v,1.0065573000001677,incorrect,b
289,4F4K,290,1,47.70359781562572,55.639826071575605,1.3482685979681168,57.48543378088403,1,c,1.1640577999996822,correct,c
290,4F4K,291,2,22.64564689416441,37.147228212016586,0.8007198113590481,41.19760725434881,2,b,1.5890386000000944,correct,b
291,4F4K,292,2,60.55022770919678,41.13949462797385,1.7611366210251056,44.7469699423407,1,b,1.6923696999997446,incorrect,v
292,4F4K,293,2,45.17150684044474,32.920462103817314,1.279114315843803,37.50434457413805,1,b,1.7047336000000541,incorrect,v
293,4F4K,294,1,66.7909288699097,44.69231989919081,2.00517460235294,47.92176519868431,2,c,2.165828799999872,incorrect,n
294,4F4K,295,2,40.38018199975951,52.967600823000126,1.157815567751715,55.209191674240856,2,b,1.2068044999996346,correct,b
295,4F4K,296,1,48.36059380820508,64.45118802375181,1.366814837558241,64.52274666396153,1,n,1.2370105999998486,incorrect,c
296,4F4K,297,1,41.47825321557225,27.98183611996865,1.184556979316019,33.33545811594769,2,c,0.9761192000000847,incorrect,n
297,4F4K,298,1,69.10166752688627,48.562679025977104,2.1038765095801266,51.36231612996757,2,n,0.8911265000001549,correct,n
298,4F4K,299,2,47.593822439631005,37.2725161449065,1.345194395422998,41.308318739281454,1,b,1.1525566000000254,incorrect,v
299,4F4K,300,2,60.7081866063118,51.97561996938349,1.7669308720619934,54.351881398635314,1,b,1.3220254999996541,incorrect,v
300,4F4K,301,1,61.14393828855953,48.70921740324122,1.7830141455765487,51.49173485149585,2,n,1.5101749000000382,correct,n
301,4F4K,302,2,59.444546016951605,51.34303605248183,1.7211065097042886,53.802146341591424,1,v,1.3341708000002654,correct,v
302,4F4K,303,1,29.03338654588954,38.22256733778629,0.9144661013780292,42.149583271004026,1,c,1.0056071999997584,correct,c
303,4F4K,304,1,72.07878581630247,52.22332990227531,2.238238190823949,54.56652287926815,2,n,1.630557299999964,correct,n
304,4F4K,305,1,50.81432460162587,43.5749600290104,1.4383649172694073,46.92354017552519,2,n,1.4923374000004515,correct,n
305,4F4K,306,1,77.17435915254805,54.79926691940757,2.488421324496399,56.77509763450936,2,n,1.0487717000000885,correct,n
306,4F4K,307,2,60.92513349613659,49.41606363411898,1.7749200056681602,52.11483137091831,1,b,1.7761405000001105,incorrect,v
307,4F4K,308,1,44.93093407738761,31.37954580628249,1.2727314356889945,36.1835692357142,2,c,1.3463229999997566,incorrect,n
308,4F4K,309,2,28.780411110372427,41.64225125503498,0.9096682048026716,45.19605072342043,2,v,1.2916755999999623,incorrect,b
309,4F4K,310,1,71.59544584913462,62.82876469323857,2.2158548423345144,63.29194130321477,2,n,2.037105800000063,correct,n
310,4F4K,311,2,42.09427823756016,61.615922395333136,1.199828617425358,62.35080687382518,2,b,1.3827418999999281,correct,b
311,4F4K,312,2,40.99186079307936,56.952252805006886,1.1726364636555515,58.58300226538295,2,b,0.9275659999998425,correct,b
312,4F4K,313,1,42.46945259522734,60.73045839536272,1.2092257263737685,61.65295978986873,1,c,1.7408681000001707,correct,c
313,4F4K,314,1,29.0958184182985,40.46674042644449,0.9156540635877785,44.14649423415104,1,c,1.9773558000001685,correct,c
314,4F4K,315,2,51.144251729493874,36.05138048007634,1.4482669519956046,40.23184962473997,1,v,1.3089218999998593,correct,v
315,4F4K,316,2,37.55248490024617,51.545784277352205,1.0916985546826614,53.97858493984806,2,b,1.4433956000002581,correct,b
316,4F4K,317,2,75.4029476459624,58.36674067330013,2.398426833629425,59.74881739593584,1,b,2.4937846000002537,incorrect,v
317,4F4K,318,1,49.34635307928272,35.2352638723247,1.3951213275906835,39.515978182129295,2,c,1.7713365999998132,incorrect,n
318,4F4K,319,2,58.10173605155869,48.190412423765046,1.6737129056088211,51.03319058649797,1,v,1.1581160999999156,correct,v
319,4F4K,320,1,44.525161081426,56.91109528249352,1.262037546759793,58.54880720599943,1,n,0.6728828000000249,incorrect,c
320,4F4K,321,2,66.7908194758277,51.27074166917576,2.0051700410150444,53.73917900700409,1,b,1.1943511999998009,incorrect,v
321,4F4K,322,2,52.19168589651544,45.70528071848361,1.4801573760255675,48.82546770433827,1,v,1.9532110999998622,correct,v
322,4F4K,323,1,64.11618507870936,46.86083362625444,1.8966921721435464,49.8540406745398,2,c,1.0185752999996112,incorrect,n
323,4F4K,324,2,66.64958107899062,47.64310241548401,1.9992895565967952,50.54845256284898,1,v,1.3818852000003972,correct,v
324,4F4K,325,1,42.96927345655156,64.08746894259744,1.221859332806203,64.24972343005136,1,c,1.0200219000003017,correct,c
325,4F4K,326,2,67.04107595511303,51.07178945465424,2.0156320180915466,53.56575006512993,1,b,1.2810132999998132,incorrect,v
326,4F4K,327,2,56.68428637579264,41.10875252317786,1.6251001065955526,44.71951822523116,1,v,1.2373269000004257,correct,v
327,4F4K,328,1,59.60627643923476,75.68415074414037,1.7269044891817429,71.99422239048499,1,c,1.0913792000001195,correct,c
328,4F4K,329,2,52.36681847402853,41.43783058315286,1.485557610180499,45.0134260550889,1,v,1.236381700000038,correct,v
329,4F4K,330,2,53.34368627968837,65.24710917093577,1.516042910355229,65.1141558147747,2,v,1.0367975999997725,incorrect,b
330,4F4K,331,2,35.563079540506266,54.9114932253446,1.0474579919985387,56.87025421789201,2,v,1.3345334000000548,incorrect,b
331,4F4K,332,1,23.434520389975823,36.14845762367543,0.8139632768132222,40.31720298226126,1,c,1.4373412999998436,correct,c
332,4F4K,333,2,80.55666863720654,60.64056927777189,2.669741501147347,61.58162718547312,1,b,1.2795630000000529,incorrect,v
333,4F4K,334,1,68.49952983708188,43.73169016843443,2.077697893336073,47.06361504601611,2,c,1.1267726000000948,incorrect,n
334,4F4K,335,1,60.19566873522302,43.63285923555418,1.7481997801603897,46.97528805641263,2,c,1.2613178000001426,incorrect,n
335,4F4K,336,2,56.02394755868277,43.368153255329226,1.602937780180364,46.73869314207099,1,v,1.3877962999999909,correct,v
336,4F4K,337,1,55.95647768009117,41.54303678627271,1.600690440664409,45.10741038947008,2,n,0.9572097000000213,correct,n
337,4F4K,338,2,53.801078995776805,39.84986597423448,1.530531110096198,43.59650391089567,1,v,1.346659400000135,correct,v
338,4F4K,339,2,30.873692800880253,46.16180662802576,0.9501391922068336,49.23217599160304,2,v,1.643683499999952,incorrect,b
339,4F4K,340,1,51.23301946705776,68.93024338076992,1.450942737985046,67.73623618014665,1,n,1.4432937000001402,incorrect,c
340,4F4K,341,1,55.73269867074299,41.53659642743577,1.593259165494071,45.10165671684383,2,n,1.2856105000000753,correct,n
341,4F4K,342,2,32.04729620618029,41.76413176782607,0.9736120211575882,45.30495189748149,2,b,1.1945515999996132,correct,b
342,4F4K,343,2,45.9653041417822,59.80464674597242,1.3004033018188077,60.91407853984621,2,v,1.297152599999663,incorrect,b
343,4F4K,344,2,46.57722444968674,25.90760659628928,1.317056040657982,31.648081343379456,1,b,1.2188062000000173,incorrect,v
344,4F4K,345,1,27.57071445175053,40.92409726008431,0.8870709679482163,44.55465009542706,1,c,1.4737010000003465,correct,c
345,4F4K,346,1,41.33626256312452,25.645013441232567,1.1810645997979987,31.43757991212101,2,c,1.2305223999996997,incorrect,n
346,4F4K,347,1,37.55436274157269,52.00633720333602,1.091741184828951,54.378517582964925,1,n,1.8916137999999592,incorrect,c
347,4F4K,348,1,67.74396209926671,53.80520073079599,2.04530906337856,55.9281708256085,2,n,1.2855816000001141,correct,n
348,4F4K,349,2,47.58556886900966,34.04541693648467,1.3449635419733594,38.47820520240614,1,b,1.3584496000003128,incorrect,v
349,4F4K,350,1,46.10771328302455,62.48313177084541,1.3042599129187589,63.0255209503388,1,n,1.054991599999994,incorrect,c
350,4F4K,351,1,53.54964474452263,40.012021085113645,1.5225497212126933,43.74101208927025,2,n,0.7883159999996678,correct,n
351,4F4K,352,1,49.82832575314057,33.1109267905801,1.4091740106310549,37.66868846829071,2,n,1.0671262999999271,correct,n
352,4F4K,353,1,63.85891517097378,47.661695278380726,1.88657238478852,50.56493551613798,2,n,0.7575375000001259,correct,n
353,4F4K,354,1,43.34816599376053,59.57012933819124,1.2315242017893355,60.72546577909194,1,n,2.062431199999992,incorrect,c
354,4F4K,355,2,47.00102707499786,33.20167834181828,1.3287141917060667,37.74707367607477,1,v,1.5529704000000493,correct,v
355,4F4K,356,2,49.51128596697267,60.09922577810795,1.3999143660694549,61.15017703041647,2,b,0.9943029000000934,correct,b
356,4F4K,357,1,48.841086027045975,31.877590200947346,1.3805398960683626,36.60867918041553,2,c,0.7577787999998691,incorrect,n
357,4F4K,358,1,43.62872013338907,51.54342158929664,1.2387298622198202,53.97653015082901,1,c,1.225139599999693,correct,c
358,4F4K,359,1,50.642030490290274,64.58702798155913,1.433220828211545,64.6242734927146,1,n,1.0615296000000853,incorrect,c
359,4F4K,360,2,51.58617008253222,44.90061036950559,1.4616370429911394,48.10771072909769,1,b,1.1520878999999695,incorrect,v
360,4F4K,361,2,62.52320831381595,52.20864377035858,1.8348933984082767,54.553807431625465,1,v,1.3643637999998646,correct,v
361,4F4K,362,2,44.37584534583437,34.53961034012257,1.2581250813013156,38.90832831861224,1,b,1.054966499999864,incorrect,v
362,4F4K,363,2,44.97248977901847,39.07092255487301,1.2738317119992868,42.90309083759344,1,b,1.1642009000001963,incorrect,v
363,4F4K,364,2,47.45981915342491,67.5711098996528,1.3414512019992089,66.79140451100878,2,b,0.9335979999996198,correct,b
364,4F4K,365,2,53.561161809830345,59.32487019960984,1.5229144012874432,60.5276038958885,2,b,1.012512599999809,correct,b
365,4F4K,366,1,48.623454750608914,57.87087686082064,1.3743063574515295,59.34224837387073,1,n,1.8867664999997942,incorrect,c
366,4F4K,367,2,35.203197088103,49.53184377564887,1.0396485503541464,52.21669880198361,2,b,1.7589360999995733,correct,b
367,4F4K,368,2,59.11291024801403,65.63398631295496,1.7092782948534366,65.39856833167465,2,b,1.2795142999998461,correct,b
368,4F4K,369,2,65.64791180207837,54.20819077134592,1.9580768032525064,56.27237337188742,1,b,0.8964805000000524,incorrect,v
369,4F4K,370,1,51.41455387405363,39.66731772401516,1.4564302553455306,43.4338831311638,2,n,1.2127454999999827,correct,n
370,4F4K,371,1,74.71043433174174,60.12381063409751,2.3641359985905264,61.16983958149641,2,n,2.0130048000000897,correct,n
371,4F4K,372,2,39.0481243165539,61.81805068753006,1.1261849133984565,62.50885548048201,2,v,1.4008715999998458,incorrect,b
372,4F4K,373,1,58.58147683279508,37.96226905429136,1.690493307771629,41.91879951655429,2,n,1.0064088999997693,correct,n
373,4F4K,374,2,54.976681819884185,49.109188846320166,1.5684075095231893,51.84456158916903,1,b,1.5404967999998007,incorrect,v
374,4F4K,375,2,39.30607311612962,60.98400629892152,1.132241880399098,61.85368455526682,2,v,1.3758131999998113,incorrect,b
375,4F4K,376,1,34.04537681968673,52.738396833271466,1.01491668770902,55.01164504609884,1,c,0.9886366000000635,correct,c
376,4F4K,377,1,55.55470636911032,39.89696893850177,1.5873730213550072,43.63847564059566,2,n,1.2207103000000643,correct,n
377,4F4K,378,1,55.98687761608794,39.29984356819005,1.6017026352572723,43.10673549680772,2,n,0.9760815000004186,correct,n
378,4F4K,379,1,52.61323938770842,65.6395162568529,1.4931894097154934,65.40261895554858,1,n,0.9205578999999489,incorrect,c
379,4F4K,380,2,50.30403973099958,53.16270361719664,1.4231830090575843,55.37708090410801,2,b,1.194612700000107,correct,b
380,4F4K,381,1,33.923011073184206,52.87304402287487,1.0123374904775624,55.12773550135266,1,n,1.249209499999779,incorrect,c
381,4F4K,382,1,37.93906061932353,51.82140287644207,1.1005096673813923,54.21807070785563,1,c,1.2493437999996786,correct,c
382,4F4K,383,2,52.33690523004803,60.06008965717631,1.4846338384606717,61.11886332405684,2,b,0.9153503000002274,correct,b
383,4F4K,384,2,46.14167980143305,63.30263779273339,1.3051814552274608,63.654844188072055,2,b,1.0489199999997254,correct,b
384,4F4K,385,2,60.95976672253946,41.41301683395798,1.776198723867178,44.99126052729535,1,b,0.9153710999999021,incorrect,v
385,4F4K,386,1,42.83213800803353,55.96298062648246,1.218379979135373,57.75702632214497,1,n,0.8728961000001618,incorrect,c
386,4F4K,387,2,57.37074694511383,39.63886125504509,1.6484640312089658,43.40853912941977,1,b,0.7636904000000868,incorrect,v
387,4F4K,388,2,52.5489678397174,66.0172679563998,1.4911951110699322,65.67832705321304,2,v,0.593799300000228,incorrect,b
388,4F4K,389,2,36.22026666283661,59.42853402497129,1.0618706224189638,60.61130986265498,2,v,0.25534539999989647,incorrect,b
389,4F4K,390,1,46.86756579199588,30.30798362257841,1.3250317906489262,35.275146673220874,2,n,0.7211741999999504,correct,n
390,4F4K,391,1,44.235363158586445,62.44463399806795,1.254455152738135,62.9957571242347,1,n,0.8112651999999798,incorrect,c
391,4F4K,392,2,32.51609158401206,47.81083263937514,0.9831495201690734,50.69710978241083,2,b,0.9396833000000697,correct,b
392,4F4K,393,2,54.0095197791669,43.48829987894533,1.5371794485132164,46.84608410371513,1,b,0.4069713999997475,incorrect,v
393,4F4K,394,1,61.620435009267496,44.89534544535845,1.8007689050916906,48.103011295166745,2,n,0.5816250000002583,correct,n
394,4F4K,395,1,35.69946053126915,51.04483123973062,1.050432760256243,53.542234158514304,1,n,0.6070583999999144,incorrect,c
395,4F4K,396,2,41.83755514456037,53.53570775948886,1.1934405106904336,55.69735839807936,2,b,0.4081034000000727,correct,b
396,4F4K,397,2,46.67869767004242,62.30510179185561,1.3198380635001927,62.88773207025935,2,b,0.5876538000002256,correct,b
397,4F4K,398,2,49.04149643493879,33.711203107197704,1.3863051867228011,38.188095883298175,1,v,0.9934130999999979,correct,v
398,4F4K,399,1,59.06613079518013,43.80286982529393,1.7076164004775871,47.1272262076204,2,c,0.5161689999999908,incorrect,n
399,4F4K,400,1,43.94422675869522,52.0675999849529,1.2468836093702511,54.4316245974404,1,n,0.5087650999998914,incorrect,c
