,condition,trial,sub_task,x,y,xt,yt,cat,resp,rt,acc,correct_resp
0,2F4K,1,1,54.03758949080179,67.40618782232615,1.5380769516804778,65.84986686301954,1,n,5.0,NA,c
1,2F4K,2,2,48.57702936459875,39.82957930141342,1.372980257741573,43.12933409407493,1,b,2.0321779000005336,incorrect,v
2,2F4K,3,1,62.430792506493134,42.56027237831991,1.831370609797721,45.5277355910783,2,n,2.1170721999997113,correct,n
3,2F4K,4,1,46.92366872941408,43.84161510602321,1.3265785116026545,46.65442876483818,2,c,1.8803802000002179,incorrect,n
4,2F4K,5,1,62.81434820361213,49.84657441477161,1.8460356909842053,51.89911486419077,2,n,2.032143100000212,correct,n
5,2F4K,6,2,50.77150146776268,67.28340499851875,1.437084649263234,65.7642912679434,2,v,2.4144969999997556,incorrect,b
6,2F4K,7,1,67.733481198203,51.2354614548568,2.044863348681417,53.09445993264968,2,c,1.065936199999669,incorrect,n
7,2F4K,8,2,50.94888725892754,65.73304031379621,1.44239531685047,64.66562087940518,2,v,2.128220099999453,incorrect,b
8,2F4K,9,1,65.03173493105561,48.08614799470726,1.9331479393983344,50.37198890753475,2,n,0.6619217999996181,correct,n
9,2F4K,10,2,49.19135289502077,39.50503672572479,1.3906318976297125,42.844985139834485,1,b,1.3331914000000324,incorrect,v
10,2F4K,11,1,26.201895012752423,44.91534107232073,0.8621775190416894,47.59782763077211,1,c,2.7738688999997976,correct,c
11,2F4K,12,1,68.20349500129463,49.70792561062163,2.064947138662119,51.779292160367085,2,n,0.9749173999998675,correct,n
12,2F4K,13,2,45.668498568351794,53.59419274009252,1.2924020615911027,55.1003214173559,2,v,4.533913500000381,incorrect,b
13,2F4K,14,1,52.37625718667645,66.95919412003458,1.4858492129199383,65.53730067560787,1,c,2.609582600000067,correct,c
14,2F4K,15,2,65.3380153830293,56.126802566686905,1.9454993003622487,57.21226609152285,1,b,2.5981261999995695,incorrect,v
15,2F4K,16,2,46.32023351016895,59.36174579437786,1.3100364971615266,59.83193217735652,2,v,1.4009243000000424,incorrect,b
16,2F4K,17,2,61.55235547855074,46.34591749297007,1.7982214069340912,48.85228571052383,1,v,2.4462272999999186,correct,v
17,2F4K,18,1,61.922324846798944,48.41953115093284,1.8121090100415551,50.66208222338624,2,c,1.0395938999999998,incorrect,n
18,2F4K,19,2,40.8096396086943,55.38566467177659,1.1682015371758137,56.59926125470311,2,v,1.982487499999479,incorrect,b
19,2F4K,20,1,34.82150232127896,49.685433584762855,1.0314293968773878,51.75984627766389,1,c,4.25357829999939,correct,c
20,2F4K,21,2,55.880967280746255,39.77055215173122,1.5981790173862165,43.077601582141206,1,b,1.0914359999997032,incorrect,v
21,2F4K,22,1,51.50734495961443,61.66747862778681,1.4592432034784732,61.63585594119118,1,c,1.765084399999978,correct,c
22,2F4K,23,1,40.76708217480439,53.55419764917145,1.1671681863984518,55.06659843061622,1,c,2.840657299999293,correct,c
23,2F4K,24,2,27.486047861168885,45.19480219448373,0.8855105716849501,47.84315274742319,2,v,3.70847700000013,incorrect,b
24,2F4K,25,2,31.62200138987322,43.12273604800934,0.9650395950467792,46.02235446759954,2,b,0.8244328000000678,correct,b
25,2F4K,26,1,63.22501988801909,54.936938785774856,1.8618677447368148,56.22602015177225,2,n,3.022743800000171,correct,n
26,2F4K,27,1,48.12088763135397,41.1215641244391,1.3600188324904074,44.26310432659832,2,n,1.3281090999998924,correct,n
27,2F4K,28,1,42.946234814013145,32.329783800634,1.2212741106136598,36.65419801104984,2,n,1.2445560999994996,correct,n
28,2F4K,29,1,33.10627457544253,55.345302325824285,0.99528957487882,56.56575204553648,1,n,1.0185878000002049,incorrect,c
29,2F4K,30,2,36.86022580412378,51.29161346738405,1.0760959893222817,53.142584348678085,2,b,1.9337163999998666,correct,b
30,2F4K,31,1,61.616681064820405,42.14434434841521,1.8006283406119958,45.16200919610959,2,n,0.7151378999997178,correct,n
31,2F4K,32,2,52.96302279288778,41.57547359380864,1.5040897788414958,44.661935935500935,1,b,0.8561138999994,incorrect,v
32,2F4K,33,1,30.946958363830912,48.73274765047606,0.9515878463349576,50.93427145308749,1,c,0.9761336999999912,correct,c
33,2F4K,34,2,68.07836039129653,56.749716848415055,2.059580922263463,57.724002651529446,1,b,1.6727799000000232,incorrect,v
34,2F4K,35,1,48.50880345301766,60.33880076803937,1.3710337670952977,60.6032854765576,1,n,1.5708856999999625,incorrect,c
35,2F4K,36,2,49.69036256223068,63.32222614273245,1.4051370756548005,62.89366486410019,2,v,1.2069856000007348,incorrect,b
36,2F4K,37,2,56.89776840105998,37.60340036304316,1.6323303425886648,41.18406709182744,1,v,2.129249899999195,correct,v
37,2F4K,38,1,67.20708565068335,51.07254839760304,2.0226021539220507,52.95474352798544,2,n,1.9908738000003723,correct,n
38,2F4K,39,1,67.89485234150838,47.42875773744567,2.0517366557976366,49.79890461716564,2,c,0.964011500000197,incorrect,n
39,2F4K,40,1,46.54557704114271,36.75241165545061,1.3161895852247518,40.44443868823369,2,c,0.8551149999993868,incorrect,n
40,2F4K,41,1,74.21082317214322,52.39629091301591,2.339701845747339,54.08579407660969,2,n,4.679320499999449,correct,n
41,2F4K,42,2,46.56025107593918,55.32413031832887,1.31659126593093,56.5481697815498,2,v,1.2007653000000573,incorrect,b
42,2F4K,43,1,59.38990065437678,40.87438817342517,1.7191518955029468,44.04601273724239,2,c,2.009243200000128,incorrect,n
43,2F4K,44,1,51.62375588928817,37.26878465055109,1.4627798683304407,40.8929303215164,2,n,0.7333429999998771,correct,n
44,2F4K,45,2,26.47445965465939,36.627059916376695,0.8670780626764105,40.335717421079394,2,v,0.855174000000261,incorrect,b
45,2F4K,46,1,45.4751877404397,62.74210206180236,1.2872173100931654,62.45639019558909,1,c,0.8853605000003881,correct,c
46,2F4K,47,2,36.58432242258007,59.2359850753381,1.0699398346964917,59.73193785501426,2,b,1.6390117999999347,correct,b
47,2F4K,48,2,47.74068662867767,62.96207345482848,1.3493088379781684,62.62267391718104,2,v,2.1063145000007353,incorrect,b
48,2F4K,49,1,42.89684933018005,59.052491839535946,1.220020576374441,59.5857556937404,1,c,0.8183239999998477,correct,c
49,2F4K,50,1,37.70687193655259,51.09359826730683,1.0952089626766706,52.97280395584119,1,n,1.132596299999932,incorrect,c
50,2F4K,51,1,62.90221386698144,50.37807023578128,1.849411693913308,52.35764246801269,2,n,0.8365427999997337,correct,n
51,2F4K,52,2,39.65708143773223,62.956121864693095,1.1405363623790237,62.618182555176034,2,v,1.7594573999995191,incorrect,b
52,2F4K,53,1,52.866856895641504,69.57724741295704,1.501085035345192,67.32675288039648,1,n,0.8804442000000563,incorrect,c
53,2F4K,54,2,33.06339386365422,54.47485658224508,0.9944024912890906,55.84008771339746,2,b,1.4796607999996922,correct,b
54,2F4K,55,1,45.2583553853801,28.936168117704824,1.2814264383507,33.83033844033947,2,c,2.0250254000002315,incorrect,n
55,2F4K,56,2,61.05260375259066,44.25878383302033,1.7796309727818147,47.02109116652898,1,b,1.1449475999997958,incorrect,v
56,2F4K,57,1,57.14276613898571,50.82148742198488,1.6406676072583928,52.73916244278048,2,c,0.7640080999999554,incorrect,n
57,2F4K,58,1,32.70304716024844,46.14792943415449,0.9869790827642712,48.67890019626459,1,c,0.9931483000000298,correct,c
58,2F4K,59,1,41.29117049727588,53.49416788513289,1.1799576780868253,55.01596257391363,1,n,1.9106321999997817,incorrect,c
59,2F4K,60,1,45.37766897611033,30.386992372447235,1.2846096768430797,35.02679746495459,2,c,2.317336300000534,incorrect,n
60,2F4K,61,2,60.473522008077765,75.96605554154591,1.7583297588192015,71.24079147839369,2,v,2.937782099999822,incorrect,b
61,2F4K,62,2,63.327727950173134,44.87958846188722,1.8658484858558777,47.56643452098877,1,v,0.9277498999999807,correct,v
62,2F4K,63,1,50.76710357857339,63.35488374668692,1.4369532316757416,62.91815946152785,1,n,1.5943237000001318,incorrect,c
63,2F4K,64,1,50.4448075485078,37.015886598078325,1.4273550314267742,40.67315455253985,2,n,1.5952388999994582,correct,n
64,2F4K,65,1,55.668675316477085,46.486246152902005,1.5911394259449751,48.97512447449548,2,c,2.888275700000122,incorrect,n
65,2F4K,66,1,56.78392590863917,43.268397237466125,1.6284707166525747,46.150441741604816,2,n,3.5335702999991554,correct,n
66,2F4K,67,1,37.80676522999824,47.52159338932736,1.0974863200010805,49.87991476853038,1,c,2.2106439999997747,correct,c
67,2F4K,68,1,39.793773234774505,50.24068836769618,1.1437828643878811,52.23924618581966,1,c,2.954859899999974,correct,c
68,2F4K,69,1,37.067771432676935,44.471529943447024,1.0807502297895926,47.20802346590603,1,c,1.3584383999996135,correct,c
69,2F4K,70,2,44.65965607678846,28.86097267911265,1.265572084007947,33.76880492017533,1,v,2.2688068999996176,correct,v
70,2F4K,71,2,42.95194347304652,57.07182186772075,1.2214190945037358,57.987320110441495,2,b,0.8752451999998812,correct,b
71,2F4K,72,2,43.13781819928965,54.23283736863234,1.2261492055993215,55.63733162745945,2,v,3.0591427999997904,incorrect,b
72,2F4K,73,2,48.91269372775325,34.871046185930524,1.382597106830339,38.81974093993837,1,b,2.202027100000123,incorrect,v
73,2F4K,74,2,40.47644381592685,49.73603726378262,1.1601354977978688,51.803593514345074,2,v,5.0,incorrect,b
74,2F4K,75,2,62.76794152611161,39.86322031408479,1.844255126301121,43.15882071923405,1,v,1.4254578000000038,correct,v
75,2F4K,76,1,46.001139306630925,64.66430319961275,1.301372686177309,63.88932592761645,1,c,2.895198000000164,correct,c
76,2F4K,77,2,59.545484412055565,42.28803737164439,1.724722828596956,45.28835223153845,1,b,1.2604190000001836,incorrect,v
77,2F4K,78,1,33.157378725953244,49.55897419000119,0.9963478123198778,51.65047314065817,1,c,1.3088060000000041,correct,c
78,2F4K,79,1,69.72322406941633,53.56302932055681,2.1312454026606957,55.07404602486537,2,c,1.1702781000003597,incorrect,n
79,2F4K,80,2,69.54366527993245,49.12724365466732,2.1233025536352814,51.27657240869555,1,v,1.4266099000005852,correct,v
80,2F4K,81,1,57.76351333149881,63.38498752320886,1.661982740478483,62.94072701045727,1,c,3.622250200000053,correct,c
81,2F4K,82,1,56.62931065904889,67.84891423524815,1.6232433733304246,66.1566422421499,1,c,1.6198586000000432,correct,c
82,2F4K,83,2,53.67522771933776,60.40848482881272,1.5265309409946115,60.65791728637583,2,b,1.3948606000003565,correct,b
83,2F4K,84,2,53.54596887515682,40.76803325809031,1.5224333456830184,43.9526256503016,1,b,1.4922305000000051,incorrect,v
84,2F4K,85,2,44.849535859759264,59.61769659860484,1.2705789965307028,60.03494887256237,2,v,1.7225585000005594,incorrect,b
85,2F4K,86,1,35.10233994772376,20.42447882275453,1.0374704164122177,27.23212454141873,2,n,0.970021000000088,correct,n
86,2F4K,87,1,55.43161948847389,37.30842384319584,1.583315303909809,40.92739869884653,2,c,0.7590964999999414,incorrect,n
87,2F4K,88,1,76.03319481329174,56.84343435088793,2.430066584130968,57.80070850346217,2,c,1.9046315999994476,incorrect,n
88,2F4K,89,2,67.35490318117192,55.994298322971225,2.028828750910393,57.10299480324824,1,v,2.646465299999363,correct,v
89,2F4K,90,1,35.2020143651439,56.45584988174869,1.0396229815182962,57.48299166679972,1,c,0.9700768000002427,correct,c
90,2F4K,91,2,53.06184975739127,68.94000566830046,1.5071839352010794,66.90050409891778,2,v,1.0698506999997335,incorrect,b
91,2F4K,92,2,51.18788007946972,34.976092689251246,1.4495814536625986,38.910025293118856,1,v,1.5698114999995596,correct,v
92,2F4K,93,2,43.60461782437263,60.63741870948385,1.2381091745113402,60.837034213124205,2,b,1.9302968000001783,correct,b
93,2F4K,94,2,56.47150151062946,73.62416689027674,1.6179253511275666,69.88483911241705,2,v,2.0528360000007524,incorrect,b
94,2F4K,95,2,67.75475407397887,53.50610476651837,2.045768108429112,55.02603339654773,1,v,1.0660164000000805,correct,v
95,2F4K,96,1,63.99463944105097,53.73466677886121,1.891904391701439,55.2186807005951,2,c,1.3394834000000628,incorrect,n
96,2F4K,97,2,51.97885429552616,63.7338297566442,1.4736211050968318,63.20142537273786,2,v,2.022391499999685,incorrect,b
97,2F4K,98,2,44.51012415168287,52.55841919780785,1.261642989294112,54.22362958438784,2,v,1.0070729999997639,incorrect,b
98,2F4K,99,1,41.91173562733395,55.473794866310094,1.1952828607306032,56.67238365190848,1,n,2.840701600000102,incorrect,c
99,2F4K,100,2,57.67420366831035,75.222792666299,1.6588990664308036,70.82072343254814,2,v,0.7637564000006023,incorrect,b
100,2F4K,101,1,49.08459606338055,35.89420236118246,1.3875481941361103,39.70136680632446,2,c,1.4191807999995945,incorrect,n
101,2F4K,102,2,50.78289716801588,40.70080968225485,1.437425231145305,43.893606323737,1,v,0.5333444000007148,correct,v
102,2F4K,103,1,49.71576279069121,35.55367029859519,1.4058794410686355,39.40739581838191,2,n,1.5647946999997657,correct,n
103,2F4K,104,1,55.08433155069372,34.322193861503614,1.5719223430035691,38.34893782256336,2,c,0.7394190999993953,incorrect,n
104,2F4K,105,1,58.44934678747377,68.838207211913,1.6858549390909443,66.83184597652964,1,c,1.7129072000007,correct,c
105,2F4K,106,1,29.020225247908805,44.58093500435682,0.9142158631702128,47.304136035374086,1,n,1.7289599999994607,incorrect,c
106,2F4K,107,1,51.51645479618255,64.07039243563558,1.4595196595398383,63.45151197754627,1,c,1.0124974999998813,correct,c
107,2F4K,108,1,47.34418497172055,35.16141674309052,1.3382294968561148,39.069438986372056,2,n,1.6086594999997033,correct,n
108,2F4K,109,2,50.24817724141454,35.24611773030998,1.4215307599239964,39.142353548421546,1,b,1.279569000000265,incorrect,v
109,2F4K,110,2,64.14676619881101,47.61846376569098,1.8978986936030635,49.96441852714174,1,b,1.7228826000000481,incorrect,v
110,2F4K,111,2,60.60955287175818,76.41710247703712,1.763310556291645,71.4909665731571,2,v,2.105874599999879,incorrect,b
111,2F4K,112,1,47.230967443066994,34.882979200569,1.3350826192133254,38.82999423045676,2,c,2.0021162000002732,incorrect,n
112,2F4K,112,1,47.230967443066994,34.882979200569,1.3350826192133254,38.82999423045676,2,many,2.0021162000002732,incorrect,n
113,2F4K,113,1,52.22959260939025,67.130188656167,1.481324566977603,65.65720448281968,1,n,0.8001169999997728,incorrect,c
114,2F4K,114,1,56.44044793164911,48.40744039105447,1.6168809276084726,50.65156814775342,2,n,0.5587852999997267,correct,n
115,2F4K,115,1,66.0138677184392,47.89944092180125,1.973034293023603,50.20936350889013,2,c,2.244831400000294,incorrect,n
116,2F4K,116,2,53.50252557262741,43.31740733369538,1.5210586338062375,46.19353765627324,1,v,1.1278415000006135,correct,v
117,2F4K,117,2,60.59176936087049,47.35883925668049,1.762658608632482,49.73787590992903,1,v,1.3964751000003162,correct,v
118,2F4K,118,1,75.48832920045038,60.925284590046346,2.4026889258337927,61.06145567934064,2,c,1.030821499999547,incorrect,n
119,2F4K,119,1,50.721113033566766,62.50455843735967,1.435579663392974,62.276175155854936,1,c,1.141378899999836,correct,c
120,2F4K,120,1,40.47601241069163,53.62686970934716,1.1601250904782017,55.12786595405003,1,c,2.7982191000000967,correct,c
121,2F4K,121,1,52.20377452644298,40.35803339389802,1.480529498824481,43.59276425981446,2,c,1.5780962999997428,incorrect,n
122,2F4K,122,1,34.848918673958195,45.736514323559575,1.0320175896747144,48.31835246232479,1,c,1.1702285000001211,correct,c
123,2F4K,123,1,55.1876487759456,63.58365822332174,1.5753031248211802,63.08938283615094,1,n,1.2844826999998986,incorrect,c
124,2F4K,124,2,28.5717696967291,46.11956205513856,0.9057300890386006,48.65405100525651,2,b,1.115159699999822,correct,b
125,2F4K,125,1,46.1609728453424,37.31684258223809,1.3057051828529904,40.93471995008164,2,n,1.2250650999994832,correct,n
126,2F4K,126,1,40.96172647927996,54.00921140432881,1.171901889991513,55.44961505548636,1,n,2.7691046999998434,incorrect,c
127,2F4K,127,1,40.48170586796404,20.92176967069424,1.1602624482729966,27.594378939265717,2,n,1.3889597999996113,correct,n
128,2F4K,128,1,60.830257165975226,39.55758200452068,1.7714217218666464,42.89100820834552,2,c,3.5507001000005403,incorrect,n
129,2F4K,129,1,67.19847268974281,45.33035550643957,2.022239935305039,47.962107391940464,2,c,0.8785036000008404,incorrect,n
130,2F4K,130,2,49.0209209065854,62.29556600831927,1.3857121744853738,62.11706993001579,2,v,1.9592897000002267,incorrect,b
131,2F4K,131,2,43.12533002059602,38.079124404905365,1.225830835148234,41.59861254180263,1,v,0.9032895000000281,correct,v
132,2F4K,132,2,65.1009793018165,55.155152628272845,1.9359334767524072,56.407718457838136,1,b,1.370685500000036,incorrect,v
133,2F4K,133,1,41.16656839532254,57.23870383618854,1.1769043322180115,58.12338750646291,1,n,2.4705708999999842,incorrect,c
134,2F4K,134,2,59.32323781306009,40.6126245289926,1.716770432666698,43.81619307683618,1,v,2.931658299999981,correct,v
135,2F4K,135,2,63.29913963918587,71.92789521409169,1.8647396110779424,68.84474454096606,2,b,0.7945909000000029,correct,b
136,2F4K,136,1,42.99679363478113,34.13881693454197,1.2225587614922409,38.19199335154906,2,c,2.2687512000002243,incorrect,n
137,2F4K,137,2,41.250273891447605,24.86376503215788,1.1789546438467549,30.574349284000466,1,b,0.7578851999996914,incorrect,v
138,2F4K,138,2,43.429208159751965,33.07679530138989,1.2336013462402795,37.286798986894944,1,v,0.9822308999991947,correct,v
139,2F4K,139,1,63.75988156974821,50.2578211070097,1.8826912774310711,52.25401608450431,2,n,1.0974935000003825,correct,n
140,2F4K,140,2,54.67012440844301,45.11672472850571,1.5584412098944351,47.77462347622866,1,b,1.3463824000000386,incorrect,v
141,2F4K,141,1,46.329763152880695,56.56245111166653,1.3102961241049604,57.57050400488312,1,n,3.2472413000004963,incorrect,c
142,2F4K,142,1,62.6949947555486,52.42696940541064,1.841459723222341,54.11188795141364,2,c,2.9681307999999262,incorrect,n
143,2F4K,143,2,50.53762437036356,59.71267957138792,1.4301125890523163,60.11011811816796,2,v,2.8831491000000824,incorrect,b
144,2F4K,144,1,61.15889219949924,49.6827971820361,1.783568674010159,51.757566785623965,2,n,1.8013621999998577,correct,n
145,2F4K,145,2,45.73501478568933,51.40512377478052,1.2941909048422364,53.2398157885278,2,v,3.3807572000005166,incorrect,b
146,2F4K,146,1,49.35394913494018,36.79082775186688,1.3953417121340033,40.477770304079485,2,n,2.445427500000733,correct,n
147,2F4K,147,2,55.33597995105019,43.25562420655641,1.5801695857587317,46.13920996087488,1,v,1.078179199999795,correct,v
148,2F4K,148,2,44.688326088841976,53.63102881692474,1.266326812842007,55.131371292933736,2,v,2.91354180000053,incorrect,b
149,2F4K,149,1,58.976413116954966,72.52075786256891,1.70443359566254,69.21366600213139,1,c,1.5697777999994287,correct,c
150,2F4K,150,1,48.49832609874328,33.588436759913016,1.370735091878989,37.722068706370855,2,n,1.115688500000033,correct,n
151,2F4K,151,1,27.216391706689777,49.9891023896629,0.880559106234051,52.02220158319519,1,n,1.8453868000005968,incorrect,c
152,2F4K,152,1,56.74288028585715,38.8860962558903,1.6270813777627002,42.303337917136325,2,n,4.1646012000001065,correct,n
153,2F4K,153,2,54.45590349232884,64.3199974110885,1.55151441916548,63.6360618669812,2,v,2.0199970000003304,incorrect,b
154,2F4K,154,2,28.55707347771076,46.29245307993855,0.9054533408616818,48.80547328255608,2,v,0.7698037999998633,incorrect,b
155,2F4K,155,1,51.45354986189773,60.36149455070531,1.4576117518216518,60.62108291735784,1,c,1.8925203999997393,correct,c
156,2F4K,156,1,60.53260567472619,47.682215917238224,1.7604913885152187,50.0200165711817,2,n,2.827347099999315,correct,n
157,2F4K,157,2,49.56280988522551,67.62874772508174,1.401415051765592,66.00443548573443,2,v,2.190588700000262,incorrect,b
158,2F4K,158,1,61.45516381732822,41.08973190788454,1.794590792798085,44.23514250099083,2,n,4.946560000000318,correct,n
159,2F4K,159,1,49.818181274850176,32.47395731674114,1.4088767788446537,36.77601184101346,2,n,2.476516400000037,correct,n
160,2F4K,160,2,45.861302250487874,59.00296239615184,1.297594012385292,59.54624011344808,2,v,1.2114996000000247,incorrect,b
161,2F4K,161,2,33.09646446114539,45.42358735094312,0.9950865609004824,48.04390622562921,2,b,2.902311199999531,correct,b
162,2F4K,162,1,47.86495924373732,35.27214234002987,1.352800199213637,39.16476367808224,2,n,1.0491427000006297,correct,n
163,2F4K,163,2,56.0067723905076,46.02736179229481,1.602365397046966,48.57327419709119,1,v,1.2732875000001513,correct,v
164,2F4K,164,2,59.73172800306629,51.82684642552267,1.731415332133416,53.6004438255429,1,v,1.0853375000006054,correct,v
165,2F4K,165,2,51.6537192004766,34.193763763249706,1.463691565906291,38.23900082095065,1,b,0.8061914999998407,incorrect,v
166,2F4K,166,1,67.30584676570771,48.60886854566453,2.0267601989962243,50.82666141191452,2,c,1.3789030999996612,incorrect,n
167,2F4K,167,1,47.81022468363174,64.70517667094954,1.351261354210508,63.91929030545029,1,n,3.2048972000002323,incorrect,c
168,2F4K,168,1,47.55519679701906,60.92827876107536,1.3441143722288649,61.063785202251296,1,c,1.7408976000006078,correct,c
169,2F4K,169,2,46.11385113283759,32.496324362647805,1.3044263901463988,36.79492216159731,1,b,0.8306852000005165,incorrect,v
170,2F4K,170,2,73.93652431507743,53.95750492953893,2.326394444947113,55.40616168175705,1,v,0.6558538999997836,correct,v
171,2F4K,171,1,74.8316089157288,55.08627291683658,2.3701005526869783,56.350404010539215,2,c,0.8510555000002569,incorrect,n
172,2F4K,172,2,42.65495238417618,51.245897473939486,1.2138991526722966,53.10340526010362,2,b,2.465680500000417,correct,b
173,2F4K,173,1,51.10063375185764,66.54458081822104,1.4469539544266967,65.2448679539184,1,c,1.0307672999997521,correct,c
174,2F4K,174,2,48.84157101465679,65.01294201774161,1.3805538189301536,64.14421680234254,2,v,1.0853398999997808,incorrect,b
175,2F4K,175,1,38.097664725492535,19.003362002961705,1.104145227831132,26.215147577332345,2,n,2.8164012999995975,correct,n
176,2F4K,176,1,33.10856109868568,56.533829718819,0.9953368989518672,57.54701722688575,1,c,0.945832800000062,correct,c
177,2F4K,177,2,35.83410684905088,56.08006069630938,1.0533779792002351,57.17373623467587,2,v,3.0773802000003343,incorrect,b
178,2F4K,178,1,65.59220517926721,56.34194125901431,1.955809906436799,57.38937476572016,2,n,1.2007190000003902,correct,n
179,2F4K,179,2,43.43140728338809,56.56162543248447,1.2336577594911171,57.56982654796512,2,v,1.4690876999993634,incorrect,b
180,2F4K,180,1,56.19588223664122,35.22797429152686,1.6086789904639185,39.12673191953396,2,c,1.7590034999993804,incorrect,n
181,2F4K,181,2,40.18480398920487,55.3872047909102,1.1531211702331283,56.600539625470326,2,b,1.1521234000010736,correct,b
182,2F4K,182,1,50.51358589594509,35.42424418990308,1.4293979029984412,39.29580499104104,2,n,1.1157332000002498,correct,n
183,2F4K,183,2,64.88072197804865,39.86833752529832,1.9270869392621048,43.16330618618342,1,v,1.1595224000011513,correct,v
184,2F4K,184,1,50.55419133159112,36.435926991393885,1.4306053481039795,40.17006173028784,2,n,1.4544888000000356,correct,n
185,2F4K,185,2,50.62113841958125,65.19126813135406,1.432598317283161,64.27397770701431,2,v,2.1049223999998503,incorrect,b
186,2F4K,186,2,41.575024093867256,53.03068866666877,1.1869430559713043,54.624214785423575,2,b,0.939693400001488,correct,b
187,2F4K,187,1,56.58447132446853,39.28037896622037,1.6217305540203717,42.64828052169349,2,n,1.1764817999992374,correct,n
188,2F4K,188,2,65.2052273780645,52.39438806830413,1.9401347023897664,54.084175408751584,1,b,1.0685361000014382,incorrect,v
189,2F4K,189,2,32.1012010403471,45.23824862846495,0.9747039737529436,47.88128215975887,2,b,1.1816352000005281,correct,b
190,2F4K,190,1,31.361920869546218,45.8629064767992,0.9598345340603182,48.429152463249714,1,c,1.6194758999990881,correct,c
191,2F4K,191,2,28.699689419674154,40.99211566413714,0.9081425526125426,44.14940232941032,2,b,0.8608162000000448,correct,b
192,2F4K,192,2,54.957276975455365,40.93323196651612,1.5677747653195302,44.09768789321623,1,b,1.0002612000007503,incorrect,v
193,2F4K,193,1,68.63307068544337,58.10045477333055,2.08347547885625,58.82202514669279,2,c,2.364638200000627,incorrect,n
194,2F4K,194,1,67.46133123950986,47.66000069861703,2.0333237427194084,50.000644153484735,2,n,0.9449700999994093,correct,n
195,2F4K,195,1,51.00343081798775,32.8652573547414,1.4440322117836506,37.10730133432535,2,n,1.8548187999986112,correct,n
196,2F4K,196,2,59.14082280780326,51.14142895284161,1.710270691307402,53.01383331400763,1,v,1.2385203999983787,correct,v
197,2F4K,197,2,32.667954778342896,46.10258220280485,0.9862591216121572,48.63917623532016,2,b,1.376690699999017,correct,b
198,2F4K,198,2,57.99940360526993,71.46511104429474,1.670155125999264,68.55280382739659,2,v,1.0963331999992079,incorrect,b
199,2F4K,199,2,35.31811504988181,49.11045230993425,1.0421359192104926,51.26201499367683,2,b,0.6619472999991558,correct,b
200,2F4K,200,2,53.64246693225202,71.1445453495976,1.5254913590380832,68.3485651467198,2,b,1.0625098000000435,correct,b
201,2F4K,201,1,45.20161453667126,53.17047475940282,1.2799153841653357,54.74251348645914,1,c,4.144520099998772,correct,c
202,2F4K,202,1,38.72296408294683,58.58724469561233,1.1185958805899965,59.21362321910105,1,c,2.2146816000004037,correct,c
203,2F4K,203,1,54.97241761792149,61.61057910833648,1.5682684425059426,61.59203868666284,1,c,0.9047074999998586,correct,c
204,2F4K,204,2,57.41538105720687,44.699246908108144,1.6499947473074463,47.40805850328306,1,b,1.0368643999991036,incorrect,v
205,2F4K,205,1,62.13597468800808,49.66892627645469,1.820177619448108,51.74557320101051,2,c,0.8014335999996547,incorrect,n
206,2F4K,206,2,70.29207088161883,63.49203500680167,2.156605250019709,63.02088594025962,1,v,0.6780785999999352,correct,v
207,2F4K,207,2,76.89891285858062,58.05680899803731,2.4742090236093275,58.786804877300085,1,v,2.5978837000002386,correct,v
208,2F4K,208,1,69.19210929625295,47.77430303666933,2.107836958896353,50.10030346895741,2,n,0.8486633999982587,correct,n
209,2F4K,209,1,63.51980828609118,51.99793436010552,1.873315958057917,53.746463139417074,2,c,0.9726809999992838,incorrect,n
210,2F4K,210,2,53.416135828019165,64.7921264633175,1.5183286200759587,63.98296133111982,2,v,0.9822052999988955,incorrect,b
211,2F4K,211,2,53.7623384026756,60.010654149570485,1.5292986291236184,60.34533022049559,2,v,1.1232161999996606,incorrect,b
212,2F4K,212,1,31.87294900027321,49.96587040733145,0.9700886319740716,52.00214470474414,1,n,5.0,incorrect,c
213,2F4K,213,1,51.52398914500814,33.68220542798552,1.4597483438714336,37.80200832766504,2,n,0.9513552000007621,correct,n
214,2F4K,214,1,70.37519084645452,53.05449497135274,2.1603360168151418,54.64437051736317,2,c,1.7407530000000406,incorrect,n
215,2F4K,215,1,52.530722286256754,38.70714639410798,1.4906294505811737,42.14690850922011,2,n,0.5925741999999445,correct,n
216,2F4K,216,2,58.91375210287911,44.84532197528211,1.7022141663952517,47.536344782378144,1,b,0.8304554999995162,incorrect,v
217,2F4K,217,1,53.34366575978369,41.678219425239774,1.516042263460733,44.75223989911805,2,n,0.7941074000009394,correct,n
218,2F4K,218,2,56.06384663890559,44.96622638038695,1.6042682543266105,47.642505340602966,1,b,1.3345100999995338,incorrect,v
219,2F4K,219,1,50.51148820883938,42.12276012292836,1.429335553768632,45.14303188600013,2,n,0.7151996000011422,correct,n
220,2F4K,220,2,49.51893366152304,63.188914504650015,1.40013701122668,62.79354034136115,2,v,1.8139159999991534,incorrect,b
221,2F4K,221,2,46.36902541112792,64.07940561371068,1.311366333468111,63.45818975823806,2,b,2.215541100000337,correct,b
222,2F4K,222,2,33.98870142874407,48.66435964655213,1.013721280848427,50.87487183370761,2,v,1.8381785999990825,incorrect,b
223,2F4K,223,1,51.047399412802456,63.616623278711,1.4453530959560732,63.11400191603901,1,c,1.528388000000632,correct,c
224,2F4K,224,1,34.87852432340419,47.89209816038053,1.032653128515299,50.20296552232607,1,n,0.6908915999993042,incorrect,c
225,2F4K,225,1,34.27915650857511,50.19265452852642,1.019862526240111,52.19782959500723,1,c,1.4249985000005836,correct,c
226,2F4K,226,1,65.6622664599356,53.292471461685686,1.9586613699944264,54.84565426393772,2,n,1.6436972999999853,correct,n
227,2F4K,227,1,48.37724512588556,54.27538638725872,1.3672881851777057,55.67300822205068,1,n,1.836569099999906,incorrect,c
228,2F4K,228,1,49.13487134406496,39.2057293916724,1.3889995580859371,42.58294425635916,2,n,1.3038570999997319,correct,n
229,2F4K,229,2,40.137804819349455,59.28389336900519,1.1519947520739708,59.77004922655332,2,b,0.8622317999997904,correct,b
230,2F4K,230,1,66.13002681970936,51.667061481594935,1.9778058400551848,53.46392226560575,2,c,1.3220493000007991,incorrect,n
231,2F4K,231,1,51.82611178521328,56.5611475949914,1.4689480279160192,57.56943448709848,1,c,1.139173600000504,correct,c
232,2F4K,232,1,66.36064294043665,53.89379884206821,1.9873132404645784,55.35259852896788,2,c,2.5493352000012237,incorrect,n
233,2F4K,233,1,66.82980425470025,47.1323147800245,2.006796222619266,49.540058143834855,2,n,1.1267278000013903,correct,n
234,2F4K,234,2,46.71769593316676,67.34884929848525,1.3209088151114574,65.80993048332755,2,b,0.9218292999994446,correct,b
235,2F4K,235,1,72.474472213556,52.92000784894976,2.2567305391488253,54.53045899968491,2,n,0.8599496000006184,correct,n
236,2F4K,236,1,41.5662694108167,59.26572085117364,1.1867269944165957,59.75559557523128,1,n,1.5769670000008773,incorrect,c
237,2F4K,237,2,51.97704080410335,37.7366652858923,1.4735655351647805,41.30012100882424,1,b,0.7590490000002319,incorrect,v
238,2F4K,238,1,37.90526994250463,58.83314425888405,1.099736657764022,59.410572175806585,1,n,0.7572807999986253,incorrect,c
239,2F4K,239,1,48.16442146360294,34.89542794097296,1.3612505613781734,38.84069141410688,2,n,0.7772893999990629,correct,n
240,2F4K,240,2,55.757867946301374,64.1812277258275,1.5940932643247614,63.53355751913305,2,v,0.7819040999984281,incorrect,b
241,2F4K,241,2,36.30883417348473,51.89410837010644,1.063828081730147,53.6578700820602,2,b,2.1404227999992145,correct,b
242,2F4K,242,2,74.63665447107324,63.79983253468377,2.360511700620048,63.25058118383906,1,v,2.2506264000003284,correct,v
243,2F4K,243,1,42.107038063139406,58.78945009187688,1.2001470139270745,59.37561908664914,1,n,0.7079641000000265,incorrect,c
244,2F4K,244,2,38.18288395698291,54.62047387075576,1.1061036007229357,55.96187740368556,2,b,1.2249468999998498,correct,b
245,2F4K,245,1,43.94513156719852,56.62515005807846,1.2469070696610385,57.6219306040274,1,n,1.924311899998429,incorrect,c
246,2F4K,246,1,34.46944185118278,50.58075857757848,1.0239059866380262,52.53215622956609,1,n,0.8721263000006729,incorrect,c
247,2F4K,247,1,71.4660669474257,56.20197744833629,2.2099014101650987,57.27419589117303,2,n,1.9129746999988129,correct,n
248,2F4K,248,1,54.705577000722826,64.5117904710183,1.5595905411832414,63.777328490636506,1,c,1.0618103999986488,correct,c
249,2F4K,249,1,34.09210373970717,56.27454802398094,1.0159033198861127,57.33393591501658,1,c,1.0974980999999389,correct,c
250,2F4K,250,1,46.99884696387677,31.514600482701,1.3286539569611426,35.96806891540341,2,n,0.7711885999997321,correct,n
251,2F4K,251,1,45.10555080049743,54.44199268958917,1.277361190934111,55.81258008388867,1,c,0.7880142000012711,correct,c
252,2F4K,252,1,35.04679491877259,49.28760620257178,1.036272802456471,51.4155435077336,1,n,0.7576140000001033,incorrect,c
253,2F4K,253,1,65.83267962205223,54.63004072588237,1.9656144772421245,55.96987339689128,2,n,1.539547299998958,correct,n
254,2F4K,254,1,51.16658322681216,44.77677842125412,1.448939640522164,47.47615158865301,2,n,1.9834183000002668,correct,n
255,2F4K,255,2,65.3255258224514,55.85372721818625,1.9449940942936044,56.986914757034064,1,v,0.9896599999992759,correct,v
256,2F4K,256,1,46.8083600291269,63.535752306609005,1.3234014825647684,63.05358162085147,1,c,0.9396725000005972,correct,c
257,2F4K,257,1,63.34634465179911,47.60965662724488,1.86657093934686,49.95673688263153,2,n,0.7576083000003564,correct,n
258,2F4K,258,2,59.45434079646407,67.65851127414581,1.7214570947245886,66.02505257968657,2,b,1.4924835999991046,correct,b
259,2F4K,259,1,32.13944517944317,55.45497656941163,0.9754794295418716,56.65677504389435,1,c,1.4555830999997852,correct,c
260,2F4K,260,1,43.04486404438326,56.19719718045924,1.223781437410533,57.270259248453584,1,c,1.9586018000009062,correct,c
261,2F4K,261,2,45.54902028764469,38.51901135680295,1.2891950986905567,41.98254080425903,1,b,0.6861741000011534,incorrect,v
262,2F4K,262,1,64.32419358612162,49.47327534742166,1.9049139219323448,51.57631473057831,2,n,2.9732538999996905,correct,n
263,2F4K,263,2,39.3063080700663,59.32693397285385,1.132247412240465,59.80426866781335,2,v,1.7650416999986192,incorrect,b
264,2F4K,264,2,53.57372368257847,32.89478574358298,1.5233122640764951,37.13234055254672,1,v,1.541917900000044,correct,v
265,2F4K,265,1,25.783325775909137,39.41965765819516,0.85470577374118,42.77021636177496,1,n,1.3281115000008867,incorrect,c
266,2F4K,266,1,49.50768823811427,65.20120540762966,1.399809638657661,64.28119636820705,1,c,1.0939863000003243,correct,c
267,2F4K,267,1,57.09410104567228,47.37487002414922,1.6390081535056118,49.75186968849935,2,c,1.0550364999999147,incorrect,n
268,2F4K,268,2,56.756813446206166,42.67252652458402,1.6275528634803142,45.62644840129851,1,b,1.0853530000003957,incorrect,v
269,2F4K,269,2,54.30872624980015,44.26976869275336,1.5467733227012728,47.03074420443888,1,b,1.4616733000002569,incorrect,v
270,2F4K,270,1,43.94242857261451,58.895559818321686,1.2468369864852646,59.460468998588205,1,c,1.8064954000001308,correct,c
271,2F4K,271,2,56.91217769351292,48.473931627844735,1.6328195156036536,50.70938227371268,1,v,0.8377431999997498,correct,v
272,2F4K,272,1,71.95443616071991,52.57911358661204,2.232458079131558,54.241211737105935,2,n,1.498067300000912,correct,n
273,2F4K,273,2,28.135700789105503,45.43972323526651,0.897554236047945,48.05806194432933,2,v,1.971409900001163,incorrect,b
274,2F4K,274,1,56.13430293954308,38.704845426001576,1.6066203865012554,42.14489765402837,2,n,0.8694517999992968,correct,n
275,2F4K,275,2,32.83627353401467,51.765749712902334,0.9897171656298376,53.54825915338883,2,b,1.3634368999992148,correct,b
276,2F4K,276,2,49.76587732643921,58.05873273418497,1.4073452751554028,58.78835762523893,2,v,1.648698200000581,incorrect,b
277,2F4K,277,2,40.192445644197065,32.9567349254773,1.1533044200685716,37.18488933691149,1,v,1.0914083999996365,correct,v
278,2F4K,278,2,59.11487119366814,68.5416498520672,1.7093479950344377,66.6309536149243,2,v,1.9849810000014259,incorrect,b
279,2F4K,279,2,51.52761709992748,37.90982708773937,1.459858473194776,41.45100498910293,1,v,1.0734444000008807,correct,v
280,2F4K,280,2,23.495666899914635,35.92861110237658,0.8149988942029416,39.73109959386782,2,v,0.9714358000001084,incorrect,b
281,2F4K,281,2,61.491524446264826,51.755944736726,1.7959481924474057,53.53988245712552,1,b,2.239595200000622,incorrect,v
282,2F4K,282,1,61.69672312950493,41.98077154556248,1.8036278522816849,45.01819822628708,2,n,1.1692340999998123,correct,n
283,2F4K,283,1,32.8725586664631,46.41052192982225,0.9904642168599,48.90884367936642,1,c,0.9472188999989157,correct,c
284,2F4K,284,1,51.0357572122421,59.76581098061587,1.4450032287952506,60.15212573789117,1,c,0.9339194000003772,correct,c
285,2F4K,285,2,55.89441327571397,40.37936441106546,1.5986259332809254,43.611480526137015,1,v,1.062987899998916,correct,v
286,2F4K,286,1,50.62837157702385,65.88397554453947,1.432813809571118,64.77403112587794,1,c,0.7394707000003109,correct,c
287,2F4K,287,1,52.14161685561149,68.12944555611924,1.4786171026190356,66.34956467822813,1,c,0.6484004000012646,correct,c
288,2F4K,288,2,57.9620287376577,42.115604232187074,1.6688576048778188,45.13674032235612,1,v,1.4994901000009122,correct,v
289,2F4K,289,2,46.93715067075056,31.03205092636763,1.3269504688160685,35.56410871852896,1,v,1.071891699999469,correct,v
290,2F4K,290,2,70.55655927996294,57.46921626819884,2.1684990007430254,58.310929105239154,1,b,0.8561367000002065,incorrect,v
291,2F4K,291,2,53.48488031046016,35.672547009079004,1.520500624922922,39.50995902054022,1,b,0.908894500000315,incorrect,v
292,2F4K,292,2,58.410359521902826,39.49914961979648,1.6844887410393663,42.83982913826935,1,v,0.44233710000116844,correct,v
293,2F4K,293,1,58.59702677512273,44.98792008555752,1.6910400204824056,47.66155153824307,2,c,0.9699799999998504,incorrect,n
294,2F4K,294,1,38.19192501632927,55.63583613704609,1.106311571668768,56.80667153907719,1,c,0.7445830000015121,correct,c
295,2F4K,295,2,46.11556425979032,31.98410973071945,1.304472859173052,36.36269519739295,1,b,0.952345100000457,incorrect,v
296,2F4K,296,2,40.49702761100623,49.42667359105137,1.160632174546362,51.53597557952883,2,v,0.9336000000002969,incorrect,b
297,2F4K,297,1,57.3724596810484,74.18539922999643,1.6485227428655855,70.21838168571132,1,c,1.019999000000098,correct,c
298,2F4K,298,2,78.54862705719273,57.8915689094853,2.560559017557639,58.65330234681327,1,b,3.351551499999914,incorrect,v
299,2F4K,299,1,54.07750406701676,34.26466402673637,1.5393540859170631,38.299680880049145,2,c,1.3394406000006711,incorrect,n
300,2F4K,300,1,49.40749660379661,61.67270929305662,1.3968962741542976,61.63988213530584,1,c,0.4798635999995895,correct,c
301,2F4K,301,1,44.45697944438258,55.81295996437943,1.2602495011956798,56.95322031755768,1,c,1.7165225999997347,correct,c
302,2F4K,302,1,66.99847817019122,47.126326175006845,2.0138473697747883,49.534826535715375,2,n,1.3477235999998811,correct,n
303,2F4K,303,1,61.30935850880002,45.56248338936033,1.7891579482697788,48.16574302539345,2,n,1.109939399999348,correct,n
304,2F4K,304,2,60.34711165938429,48.471227354816605,1.7537138311288578,50.70703121383416,1,v,0.9956696999997803,correct,v
305,2F4K,305,1,40.00877754045007,50.33400667930628,1.1489080389472144,52.31967798008721,1,c,3.38685809999879,correct,c
306,2F4K,306,2,50.77829215907208,31.63917907128063,1.4372875920960613,36.07262869081684,1,b,0.830450399998881,incorrect,v
307,2F4K,307,1,26.11330844232766,37.3412303607431,0.8605907586466428,40.95592987847286,1,n,0.8182747999999265,incorrect,c
308,2F4K,308,2,44.88012730423962,62.43066461113848,1.2713875086110806,62.21997868857375,2,v,2.252299400000993,incorrect,b
309,2F4K,309,2,49.70534571096197,39.07243217046226,1.405574936546243,42.46630952877288,1,b,1.0307627999991382,incorrect,v
310,2F4K,310,1,40.815945362200615,55.14031974814109,1.1683547270123722,56.39537915551025,1,n,3.964740100000199,incorrect,c
311,2F4K,311,2,33.61780595429771,46.32767562737616,1.0059329726315918,48.83631418476435,2,v,1.0002934000003734,incorrect,b
312,2F4K,312,1,64.07237679585202,53.90151411669721,1.89496513372352,55.3590869120442,2,n,1.1885677999998734,correct,n
313,2F4K,313,2,59.87423440250976,50.58117838697702,1.7365537093284076,52.5325174778196,1,v,2.13075199999912,correct,v
314,2F4K,314,2,49.04995876861225,32.19358006092863,1.386549155315726,36.53924367456871,1,b,0.6605392000001302,incorrect,v
315,2F4K,315,2,72.97155288983231,64.54242029079501,2.280178213756734,63.799845468086346,1,b,1.6740421000013157,incorrect,v
316,2F4K,316,1,52.43704782441242,46.95893542383564,1.487728671156807,49.388556227454096,2,n,0.8550491000005422,correct,n
317,2F4K,317,1,47.25645087333433,59.00774142713549,1.3357902843802862,59.55005397775557,1,c,1.1824787999994442,correct,c
318,2F4K,318,2,42.88744702897989,49.66318854877352,1.2197820669327564,51.74061178879056,2,v,0.9276002999995399,incorrect,b
319,2F4K,319,2,60.61987647783387,53.22475869226871,1.76368913271542,54.788419176442034,1,v,0.6133510999989085,correct,v
320,2F4K,320,2,65.89031311734531,50.118903257140126,1.9679715895961705,52.13421770424175,1,v,0.3996114999990823,correct,v
321,2F4K,321,1,43.22954342864702,38.09218498722708,1.228490160730777,41.6100034937006,2,n,2.7606474999993225,correct,n
322,2F4K,322,2,70.13903030718636,58.1077526653624,2.1497530016340205,58.82791249230549,1,v,1.2614831999999296,correct,v
323,2F4K,323,1,36.93990039816329,51.06426897893527,1.0778803284712737,52.94763930016184,1,n,0.8547290999995312,incorrect,c
324,2F4K,324,2,52.96995914325088,42.81234487992575,1.5043067404133568,45.74940228626884,1,v,1.3220212000014726,correct,v
325,2F4K,325,2,55.30624194411388,72.56873041000573,1.579192735492733,69.24326633131919,2,v,0.8428433000008226,incorrect,b
326,2F4K,326,2,41.39793138305575,49.94896986052592,1.1825801296615113,51.98755242554903,2,v,2.0320759000005637,incorrect,b
327,2F4K,327,2,27.491541513462447,47.603317240689606,0.8856117357893549,49.951207483062376,2,v,2.3723116000001028,incorrect,b
328,2F4K,328,2,49.1438875181199,39.70102704786237,1.3892600005665092,43.01667723110575,1,v,0.8001342999996268,correct,v
329,2F4K,329,1,44.37452897199496,58.329110889729776,1.258090642832414,59.0062480477273,1,c,2.208097800001269,correct,c
330,2F4K,330,2,32.69422472195411,49.171560432867786,0.9867980307098037,51.31498788351252,2,v,1.6072621000002982,incorrect,b
331,2F4K,331,2,49.19313198401163,64.60457644056466,1.390683345169086,63.84550138894032,2,v,0.7044634999983828,incorrect,b
332,2F4K,332,2,43.656323017369296,66.85011525164282,1.239441079710452,65.4605983811249,2,b,1.0004255999992893,correct,b
333,2F4K,333,2,51.06626277544543,33.5639767248017,1.4459201506714432,37.70122444385436,1,v,0.8365818000002037,correct,v
334,2F4K,334,2,42.25897721601164,51.364366802941895,1.2039448579088818,53.20491182714917,2,b,0.8561310999994021,correct,b
335,2F4K,335,2,45.46793542682523,52.31319991042995,1.287023202548408,54.01509201618106,2,b,1.3342732000000979,correct,b
336,2F4K,336,2,64.24362163453263,51.0745474091641,1.90172501248682,52.95645874426688,1,b,1.534445199999027,incorrect,v
337,2F4K,337,2,34.65128113368286,45.13176289045336,1.027784951558101,47.7878232915285,2,b,0.5526989999998477,correct,b
338,2F4K,338,1,40.8486641191369,28.208312636329246,1.1691499079848446,33.23680470059388,2,n,1.4751563999998325,correct,n
339,2F4K,339,1,49.5775303583136,33.44333117416965,1.4018440956662117,37.59846441204122,2,n,0.684855499999685,correct,n
340,2F4K,340,2,64.75740843539542,51.51413987058906,1.9221517694429653,53.33313232926451,1,b,2.8713912000002892,incorrect,v
341,2F4K,341,2,51.4282642335603,56.42783925844868,1.4568455412213783,57.45998095830464,2,b,0.4908935000003112,correct,b
342,2F4K,342,2,51.34168715365938,61.49133882728369,1.454225112911124,61.500095194546695,2,b,0.8622249999989435,correct,b
343,2F4K,343,1,58.911994057808855,46.57094815105378,1.7021519388051,49.0492477845353,2,c,1.3038243999999395,incorrect,n
344,2F4K,344,2,44.93025945051593,63.97301375741096,1.272713581337657,63.37929973668134,2,v,1.1707138000001578,incorrect,b
345,2F4K,345,1,58.69339888014626,38.19734608303175,1.6944322652628874,41.7017397210904,2,n,1.158191299999089,correct,n
346,2F4K,346,1,58.63525470113815,46.54596827839001,1.6923848089191194,49.02738946393842,2,n,0.746874200000093,correct,n
347,2F4K,347,1,43.44831888886916,56.2764028941804,1.234091672444369,57.33546226957603,1,c,1.2370955000005779,correct,c
348,2F4K,348,1,41.01927035735626,52.81402938401453,1.1733050169211954,54.440614099359536,1,c,0.824602099999538,correct,c
349,2F4K,349,2,27.860143976885706,41.37687973880246,0.892425918609257,44.4874155171006,2,v,2.2216283999987354,incorrect,b
350,2F4K,350,1,51.43633195693506,60.23874951691001,1.4570899673637066,60.52475580636582,1,c,0.9274927000005846,correct,c
351,2F4K,351,2,59.942625145083454,76.67841554075366,1.73902509831287,71.6342522383435,2,v,1.4813002999999298,incorrect,b
352,2F4K,352,2,58.63141753541825,49.03107291041118,1.6922497761842443,51.19318123332161,1,v,1.0428668000004109,correct,v
353,2F4K,353,2,67.73776649375324,55.37880999604981,2.0450455750148064,56.59357132990118,1,v,0.818314800000735,correct,v
354,2F4K,354,1,55.132394042149,41.560197079020185,1.573494156901672,44.64851002730507,2,n,1.6605357999997068,correct,n
355,2F4K,355,1,45.02767565273595,54.595778442585576,1.2752943468182916,55.94123382423247,1,c,0.812243700000181,correct,c
356,2F4K,356,2,42.14756176550132,53.42927541711818,1.2011587640763948,54.96119800242023,2,b,0.8075750999996671,correct,b
357,2F4K,357,2,71.407560550509,58.3110968007575,2.2072144649471266,58.99175245091144,1,v,0.9579115000015008,correct,v
358,2F4K,358,2,50.62147028276568,41.67495136326388,1.4326082035363163,44.74936745324589,1,v,1.0671087999999145,correct,v
359,2F4K,359,2,49.92940470299411,67.0262540242297,1.412139036991338,65.58437310202007,2,v,3.659744700000374,incorrect,b
360,2F4K,360,2,49.54746675651783,34.98750056276123,1.4009679996624491,38.91983333335882,1,b,0.6851609999994253,incorrect,v
361,2F4K,361,1,43.04251740986759,55.22205793304671,1.2237217221357088,56.46335526606823,1,c,2.2503789000002143,correct,c
362,2F4K,362,2,48.97697737608436,66.39188181306035,1.3844465167300648,65.1365657027276,2,b,1.504142600000705,correct,b
363,2F4K,363,2,49.08381065205738,67.0699507354239,1.3875255326491105,65.61501178358621,2,b,0.6848079999999754,correct,b
364,2F4K,364,2,49.65756816676039,31.322893630700108,1.4041791827301309,35.80738287594882,1,v,0.8621454000003723,correct,v
365,2F4K,365,2,42.18086666483335,31.3374967163586,1.2019909218044729,35.81961373208855,1,v,0.6666241000002628,correct,v
366,2F4K,366,1,53.45528254721779,29.163394279169133,1.5195650930886908,34.01657556344086,2,n,0.6145614999986719,correct,n
367,2F4K,367,2,62.0227999433703,70.94524784347568,1.81589904518525,68.22076453700502,2,v,1.6921911999997974,incorrect,b
368,2F4K,368,1,49.23672349706803,34.50270389056381,1.3919445155513726,38.50360500807093,2,n,2.38055649999842,correct,n
369,2F4K,369,2,56.09402143676056,66.42732593741393,1.6052751960457476,65.16173323770337,2,b,1.316019800000504,correct,b
370,2F4K,370,2,52.24441654749023,66.5824719324338,1.48178126325594,65.27169242492526,2,b,0.9508370999992621,correct,b
371,2F4K,371,1,54.692265181139824,39.400541192610746,1.5591588883222234,42.75347771650547,2,n,2.021335100000215,correct,n
372,2F4K,372,1,41.23327988570638,59.08567368149947,1.1785380979693838,59.61221523552685,1,c,1.8077523000010842,correct,c
373,2F4K,373,1,47.37827414891571,68.45555268550763,1.3391784565572882,66.57238621514632,1,c,0.7152059999989433,correct,c
374,2F4K,374,1,56.90485208256465,40.76512327961329,1.6325708042160798,43.95007069230678,2,n,1.1392746999990777,correct,n
375,2F4K,375,1,28.98414196252374,45.45337016019953,0.9135301561122918,48.07003381086503,1,c,1.752958299999591,correct,c
376,2F4K,376,2,62.63524463946939,44.915294218105,1.8391731878580624,47.59778649082065,1,b,4.388210500001151,incorrect,v
377,2F4K,377,1,44.43851921275952,52.88018440177446,1.2597658224069097,54.49670631609661,1,n,1.1824732000004587,incorrect,c
378,2F4K,378,2,54.80820193753109,72.19389469623724,1.562922301039854,69.01097794382761,2,v,1.370644500000708,incorrect,b
379,2F4K,379,2,45.61604871933744,58.03384214015187,1.2909932536626358,58.76826445681714,2,v,1.0382433000013407,incorrect,b
380,2F4K,380,1,30.612721556963653,47.46239365457606,0.9449969949262572,49.82825886807064,1,n,2.5371449000012944,incorrect,c
381,2F4K,381,2,32.2461686596304,44.6421983158529,0.9776466685248724,47.357950306376736,2,v,0.6848259999987931,incorrect,b
382,2F4K,382,2,58.51556710140575,76.28296708596952,1.6881779818436096,71.41694436940432,2,v,0.812302099999215,incorrect,b
383,2F4K,383,2,56.52823949053238,36.65355975735444,1.619835359573058,40.35869639876744,1,b,2.231897100000424,incorrect,v
384,2F4K,384,2,40.17025420455248,24.322171347761937,1.1527723412760345,30.15414200824519,1,b,0.599842699999499,incorrect,v
385,2F4K,385,1,36.12559602834318,48.084137878581416,1.0597822584143517,50.37023866563115,1,c,1.0374621000009938,correct,c
386,2F4K,386,2,41.07287561576316,53.74442674101277,1.1746136175109017,55.22689919195739,2,v,0.7455439000004844,incorrect,b
387,2F4K,387,2,43.19460147827196,60.2143433986572,1.2275978671436496,60.50558350085439,2,v,1.031031599999551,incorrect,b
388,2F4K,388,2,52.67861147643446,32.81545206465115,1.4952205933847935,37.06508027027761,1,v,0.3463668999993388,correct,v
389,2F4K,389,1,58.56195649032257,52.78832412686425,1.689807251933673,54.41881147637194,2,c,0.5827480000007199,incorrect,n
390,2F4K,390,1,49.504776020508,58.59254151247785,1.39972487174445,59.2178717894359,1,c,0.9640323000003264,correct,c
391,2F4K,391,1,67.35684228235652,53.63539394859198,2.028910559957493,55.135050145729856,2,n,1.7127576999992016,correct,n
392,2F4K,392,1,58.47262139916726,76.00668338220721,1.6866710599199788,71.26347336707728,1,c,1.1219631000003574,correct,c
393,2F4K,393,2,38.39221112929884,55.46061589801069,1.1109287824883112,56.66145280762559,2,v,1.2917225999990478,incorrect,b
394,2F4K,394,2,42.263568428917495,47.92669312703114,1.2040598059238978,50.23310773306932,2,b,0.7893480000002455,correct,b
395,2F4K,395,1,35.897387357745814,53.30571783330757,1.0547650118493197,54.85684743347412,1,n,0.6787580999989586,incorrect,c
396,2F4K,396,1,24.03229607387499,42.41700445117046,0.8241443086247532,45.401753799788665,1,n,0.7651210999993054,incorrect,c
397,2F4K,397,1,56.54136885868998,41.83190145011476,1.6202776634066574,44.88732655873567,2,n,0.7940216999995755,correct,n
398,2F4K,398,1,39.05439400544428,54.87149471001801,1.12633174878229,56.17145729866025,1,c,2.420881800000643,correct,c
399,2F4K,399,2,52.16712159971998,35.2483598174527,1.4794015044198396,39.14428411101875,1,v,0.8852499999993597,correct,v
400,2F4K,400,2,54.5374275434058,37.31219035547445,1.5541468468775377,40.93067416844824,1,v,0.5466346000011981,correct,v
