,condition,trial,sub_task,x,y,xt,yt,cat,resp,rt,acc,correct_resp
0,4F4K,1,1,43.164960176571086,58.17570323919484,1.226841441443619,59.0046301515737,1,c,2.1291033999996216,correct,c
1,4F4K,2,2,38.7164187453121,49.03182213546141,1.1184436428140423,51.309310009542855,2,v,1.7953361999998378,incorrect,b
2,4F4K,3,1,56.88778214225408,41.38296548290834,1.6319914106507374,44.60262437757217,2,c,1.672881899999993,incorrect,n
3,4F4K,4,1,62.67642205576063,46.30486497271279,1.840748673260468,48.929827340239946,2,n,1.6497052999998232,correct,n
4,4F4K,5,1,59.85928735382307,45.93186369176516,1.7360140460168478,48.60280207640365,2,n,1.104702399999951,correct,n
5,4F4K,6,1,48.40740388766064,59.07628206173076,1.36814592677269,59.727257313138026,1,n,1.3947576000000481,incorrect,c
6,4F4K,7,2,53.08351049546526,36.153878834688776,1.50786295749687,40.031914357457296,1,v,1.211855999999898,correct,v
7,4F4K,8,1,48.7003291742967,58.72825031793627,1.3765050237175391,59.44892790427252,1,c,1.7346400999999787,correct,c
8,4F4K,9,2,54.517361759813,37.11622482205789,1.5534985046801,40.86705605793493,1,b,1.5224465000001146,incorrect,v
9,4F4K,10,2,43.67264237572894,57.049475275189806,1.2398617572959172,58.09023992568992,2,v,1.5828840999997738,incorrect,b
10,4F4K,11,2,35.26845825981762,48.993201036395085,1.041060381803846,51.275782880752494,2,b,1.947331999999733,correct,b
11,4F4K,12,1,35.957994609454005,50.40125660884308,1.0560951621582293,52.49408715463477,1,c,1.8710666000001765,correct,c
12,4F4K,13,2,34.5172285646306,46.68057309914314,1.024923944397495,49.25891771885704,2,v,1.7225509999998394,incorrect,b
13,4F4K,14,1,26.079826745296103,42.63208972379042,0.859991796081561,45.701671247148965,1,n,1.5832596000000194,incorrect,c
14,4F4K,15,2,43.298632404137,58.35406571375845,1.230256357784775,59.148368684606325,2,b,1.4678039999998873,correct,b
15,4F4K,16,2,51.864802421852986,72.12274586687644,1.470130344386252,69.09700707777881,2,v,1.802069599999868,incorrect,b
16,4F4K,17,2,53.189093675627625,63.72929659013876,1.511177168613626,63.32358960248166,2,b,4.1684949000000415,correct,b
17,4F4K,18,2,66.35220532760913,57.745477627210704,1.9869645865577896,58.65669352260884,1,b,5.0,correct,v
18,4F4K,19,1,66.98126436719893,58.792212181882064,2.0131266401553214,59.50016890392806,2,c,1.2733759999996437,incorrect,n
19,4F4K,20,2,39.35182714807561,54.41287517266748,1.1333196400443235,55.90753221336035,2,v,1.7467928999999458,incorrect,b
20,4F4K,21,1,52.642531542269936,43.80658483562815,1.494099208197469,46.73528168462936,2,n,1.7224710000000414,correct,n
21,4F4K,22,2,55.47284512323296,69.30578972898675,1.584673203452945,67.27477657062214,2,b,1.8984209000000192,correct,b
22,4F4K,23,2,36.92564661076726,50.93015372037425,1.0775608929722311,52.94936413528351,2,b,2.0128912000000128,correct,b
23,4F4K,24,1,31.055316011015776,41.50853433012324,0.9537344138080278,44.71306103080315,1,n,1.8984013999997842,incorrect,c
24,4F4K,25,2,40.37336774415627,54.51964960227448,1.1576515186897756,55.99697303598348,2,b,1.1875565999998798,correct,b
25,4F4K,26,2,30.390599536244384,40.64276078832484,0.9406422154830388,43.95196328552562,2,v,2.013888500000121,incorrect,b
26,4F4K,27,1,72.0854154952794,55.17467974431485,2.23854677627991,56.54382374060283,2,c,0.9578881000002184,incorrect,n
27,4F4K,28,2,42.43319131039235,61.9270015075669,1.2083142748894176,61.959641776299655,2,b,1.194803200000024,correct,b
28,4F4K,29,2,36.39295008287882,54.25377456387588,1.0656904955558713,55.7741074417896,2,b,3.4846968000001652,correct,b
29,4F4K,30,1,61.75798322253595,48.26335120213246,1.8059268997977296,50.64114886688281,2,n,1.3169917000000169,correct,n
30,4F4K,31,1,43.37424738190062,60.01667021708555,1.23219229666941,60.47322428092227,1,c,1.8741844999999557,correct,c
31,4F4K,32,2,63.1811407435742,47.29396143381472,1.860169674788549,49.7954454200802,1,b,1.7091261000000486,incorrect,v
32,4F4K,33,2,42.95068954013446,57.65149968898597,1.2213872466580515,58.58046314312517,2,v,2.215472200000022,incorrect,b
33,4F4K,34,1,65.0531644370926,50.30345495591635,1.9340095692451569,52.40975041749918,2,n,1.1461957999999868,correct,n
34,4F4K,35,1,67.74661539981642,46.868554040805,2.045421914034181,49.42344752212939,2,n,1.1095337000001564,correct,n
35,4F4K,36,2,50.80900211171926,34.02754979293563,1.4382057306313143,38.20135374992313,1,b,1.0488509000001613,incorrect,v
36,4F4K,37,2,50.64099919671404,67.63334108699755,1.4331900929097046,66.13551565600076,2,v,1.315110800000184,incorrect,b
37,4F4K,38,2,40.12049441032766,47.349581368812665,1.151580154855322,49.84404570785721,2,v,1.11560610000015,incorrect,b
38,4F4K,39,1,40.28929581975134,47.265502450946514,1.1556294496351436,49.77057479660944,1,c,1.7224906999999803,correct,c
39,4F4K,40,2,67.04351547365914,54.63597348596572,2.0157342703958743,56.09431862419129,1,b,0.7993360000000393,incorrect,v
40,4F4K,41,1,56.6904894015356,44.82419394712452,1.625309739005882,47.63018859664182,2,c,2.5681651999998394,incorrect,n
41,4F4K,42,1,76.17278575496026,62.19620895011615,2.437130615101021,62.16582294576617,2,n,1.849934900000335,correct,n
42,4F4K,43,2,51.81196512022156,59.85642275236826,1.468515968635225,60.34674822079617,2,b,1.2008237999998528,correct,b
43,4F4K,44,2,56.16582841642983,66.79018721375796,1.6076739580000532,65.54579077392489,2,b,0.9517083000000639,correct,b
44,4F4K,45,2,62.99704630200022,41.29476177758176,1.8530623044143648,44.525058790486185,1,v,1.1208231999999043,correct,v
45,4F4K,46,1,41.222382932832986,54.91554136018581,1.1782710764818085,56.32786653660865,1,n,1.2911575000002813,incorrect,c
46,4F4K,47,1,59.457301369276045,39.67104125548901,1.7215630767057266,43.09900577177493,2,n,0.9213340999999673,correct,n
47,4F4K,48,1,54.08169454134542,44.74636671552381,1.5394882287120504,47.56178294678048,2,n,0.8546071999999185,correct,n
48,4F4K,49,1,39.74799118403392,47.04981905418372,1.142694488695274,49.58201405681328,1,c,1.7347425000002659,correct,c
49,4F4K,50,2,61.02389689709804,45.04558767210991,1.778568952828011,47.82473847887974,1,b,1.6788587000000916,incorrect,v
50,4F4K,51,1,69.04562084650418,54.02414970660169,2.1014259582511947,55.581222702311344,2,n,1.4796925000000556,correct,n
51,4F4K,52,1,58.40455765019374,39.79863408336925,1.6842855255759372,43.21090790546554,2,c,1.3401229999999487,incorrect,n
52,4F4K,53,2,49.63620392772753,35.03636773960967,1.4035555050402135,39.06707939487543,1,v,0.9274545999996917,correct,v
53,4F4K,54,2,38.95901310750277,54.76113077819465,1.1241000075768222,56.19894540720893,2,b,1.1520318999996562,correct,b
54,4F4K,55,1,39.06171486291358,53.26582211443092,1.1265032266406487,54.94165358982541,1,n,1.012446799999907,incorrect,c
55,4F4K,56,1,39.35463352388325,58.71380773590497,1.1333857790453157,59.43735217490939,1,c,1.4607096999998248,correct,c
56,4F4K,57,1,65.81229384866546,44.98346358142852,1.96478140972195,47.77015348010547,2,n,2.361203200000091,correct,n
57,4F4K,58,2,47.07885424319553,52.39396698782811,1.330866284483945,54.20171889615987,2,b,1.1215589000003092,correct,b
58,4F4K,59,2,53.55672523522974,37.02869611036902,1.522773909814784,40.790949433390914,1,v,1.6617522999999892,correct,v
59,4F4K,60,1,47.03533296205124,59.94455359422939,1.3296623958709088,60.41633899867751,1,c,1.1583183000002464,correct,c
60,4F4K,61,1,69.85921635478653,55.2014801271336,2.1372808387935374,56.56612907448911,2,n,0.8667467000000215,correct,n
61,4F4K,62,1,57.63633599159184,41.51211386850075,1.6575933034228325,44.716209406344746,2,n,2.342906200000016,correct,n
62,4F4K,63,2,52.813812670397226,46.3718808382726,1.4994302158630486,48.98855151578962,1,b,1.328029499999957,incorrect,v
63,4F4K,64,1,45.561102132997206,53.946521441751024,1.289519030196523,55.51593141533224,1,c,2.0988836000001356,correct,c
64,4F4K,65,2,45.55443836155838,60.1360818475429,1.2893403549151845,60.56729596251957,2,v,2.1183780000001207,incorrect,b
65,4F4K,66,1,57.08985539966469,43.1207627719395,1.6388634588668871,46.131761416674046,2,n,1.0791991999999482,correct,n
66,4F4K,67,2,46.02887447061684,35.48395443459175,1.3021234518097784,39.452825122545256,1,b,1.037060399999973,incorrect,v
67,4F4K,68,1,39.16067832823789,27.136672069818133,1.1288238303986622,32.47139929644764,2,c,1.8316681999999673,incorrect,n
68,4F4K,69,2,29.947325792306643,48.35398021338791,0.932011572607759,50.720058659479385,2,v,0.9629353999998784,incorrect,b
69,4F4K,70,1,53.56579293986553,35.38643599195224,1.5230610675065943,39.36869896722783,2,n,1.4494308000003002,correct,n
70,4F4K,71,2,49.19632336254716,61.407139392242726,1.3907756379431098,61.55913873830372,2,b,0.9092348000003767,correct,b
71,4F4K,72,2,57.07349724880717,41.69096944622644,1.6383060808519905,44.8735348103294,1,b,0.8788893000000826,incorrect,v
72,4F4K,73,2,44.51995700919848,58.39397544634237,1.261900981948629,59.18048973175036,2,v,0.9392498000001979,incorrect,b
73,4F4K,74,1,27.85265786847712,45.2082073194187,0.8922870061499987,47.96759754292072,1,c,1.0063129999998637,correct,c
74,4F4K,75,2,61.13307214801015,77.21776427081969,1.782611310056036,72.0589893632705,2,b,0.8246383999999125,correct,b
75,4F4K,76,2,53.6325307563031,45.19569751217709,1.5251761991950117,47.9566092225064,1,v,1.3764870999998493,correct,v
76,4F4K,77,2,51.39209506281577,39.732000966743,1.4557502352211893,43.15246494838579,1,b,0.9577829999998357,incorrect,v
77,4F4K,78,1,47.09157636385976,35.029907437679256,1.3312184104865,39.06151878348419,2,n,1.1762272999999368,correct,n
78,4F4K,79,1,53.94645869542682,37.899243418978735,1.5351650379169055,41.54908387594033,2,n,1.2431124999998246,correct,n
79,4F4K,80,2,41.872567929987966,35.21852852995523,1.194309735796632,39.223955776851184,1,v,0.9518995000003088,correct,v
80,4F4K,81,2,60.78900196784837,48.03442706493969,1.7699027102809106,50.4417026317002,1,b,1.3400924000002306,incorrect,v
81,4F4K,82,2,62.09944043016618,77.08458115564413,1.8187953401074792,71.9873397501914,2,b,1.4793535999997403,correct,b
82,4F4K,83,2,49.02203070950386,40.97768640851413,1.3857441539082698,44.24629237630835,1,v,0.9274546999999984,correct,v
83,4F4K,84,2,77.01229091931819,63.43301526405787,2.48004917600776,63.10206516206967,1,b,0.8475851000002876,incorrect,v
84,4F4K,85,1,53.4694894907774,65.43752215289383,1.5200140770545731,64.57907125190447,1,c,1.1089114000001246,correct,c
85,4F4K,86,1,54.32243396747048,74.02826746404914,1.5472142839622998,70.25688947788876,1,n,1.05493209999986,incorrect,c
86,4F4K,87,2,69.7523754551845,49.41080994923011,2.1325377254954434,51.637996006253424,1,b,0.8428711000001385,incorrect,v
87,4F4K,88,1,55.64724227751822,41.528867765137264,1.5904304329733996,44.73094540657073,2,c,0.7332225000000108,incorrect,n
88,4F4K,89,2,41.34531567815209,52.36466659239815,1.1812869611399397,54.17677061061376,2,b,0.8902416999999332,correct,b
89,4F4K,90,2,68.62224348286185,53.986376662583545,2.0830064468460945,55.54945792923243,1,b,0.891108499999973,incorrect,v
90,4F4K,91,2,27.559288596081867,37.11540883747298,0.8868602302541749,40.8663464262459,2,v,1.0548659000000953,incorrect,b
91,4F4K,92,2,56.68690537980321,39.59038485912848,1.6251886130256938,43.02828499139604,1,b,1.0723491000003378,incorrect,v
92,4F4K,93,1,65.72690431684458,53.03103362239523,1.961295789445179,54.74286182447741,2,n,1.267645999999786,correct,n
93,4F4K,94,2,57.17274945209819,53.07585834393706,1.6416908586280792,54.78084161394968,1,b,0.7211124000000382,incorrect,v
94,4F4K,95,1,46.79131484124503,67.2278566437555,1.3229324930202562,65.8531665738208,1,n,1.1339920999998867,incorrect,c
95,4F4K,96,1,47.6706661834474,36.63976852153221,1.347345627726414,40.45312284178403,2,c,1.0913329999998496,incorrect,n
96,4F4K,97,1,57.452958073229176,45.54416252587643,1.651284543989996,48.262601196985166,2,c,1.50929270000006,incorrect,n
97,4F4K,98,1,70.20534408308794,55.778922505951854,2.152719461711791,57.04536142875271,2,n,0.8182495999999446,correct,n
98,4F4K,99,2,42.75495507909683,62.248563869756914,1.2164260794823245,62.20582293524518,2,b,0.9031282000000829,correct,b
99,4F4K,100,1,43.86720723520334,31.145214794614525,1.2448882288514806,35.76114654349253,2,c,0.6789598000000296,incorrect,n
100,4F4K,101,1,58.0024184545093,75.55048501487354,1.6702598346925226,71.13920475750615,1,c,0.6665250999999444,correct,c
101,4F4K,102,2,47.86973594637136,60.85549695887861,1.3529345778251198,61.13083727231094,2,b,0.8182853999996951,correct,b
102,4F4K,103,1,46.22204080852016,55.55191846164878,1.3073643153022716,56.857278612951866,1,n,0.8425259000000551,incorrect,c
103,4F4K,104,2,56.91506020576536,39.30450059386752,1.6329173899954064,42.77772823487276,1,b,0.8297263999997995,incorrect,v
104,4F4K,105,2,43.439843005351705,55.18167075361069,1.233874181667134,56.54964272607595,2,b,1.4737759999998161,correct,b
105,4F4K,106,1,29.421248725799508,45.47536548353951,0.9218714295658932,48.2022051385226,1,c,0.8546475999996801,correct,c
106,4F4K,107,1,64.77399567848956,50.965781719292224,1.9228148762742931,52.979982722941344,2,n,0.7943305999997392,correct,n
107,4F4K,108,1,28.962244220750392,45.59040173422357,0.9131142741737532,48.30318948704605,1,c,0.7274081999998998,correct,c
108,4F4K,109,2,33.36486166829141,52.86185893228487,1.0006558282558888,54.59940586196095,2,v,0.703166699999656,incorrect,b
109,4F4K,110,2,35.15376577516851,50.4544114836541,1.0385804495834832,52.53990482763801,2,b,2.215593400000216,correct,b
110,4F4K,111,1,67.97672557496215,51.80966657502567,2.0552327250169125,53.70325624956576,2,n,1.4305715000000419,correct,n
111,4F4K,112,1,49.99845618899547,44.16824181905759,1.4141681631025422,47.053436781693534,2,n,0.7697094000000106,correct,n
112,4F4K,113,1,49.598620685178965,63.37053817997085,1.402459024672134,63.05521384711968,1,n,1.297597699999642,incorrect,c
113,4F4K,114,2,60.07677343604026,43.43179502006776,1.7438829426080649,46.40549046497745,1,b,0.9155139000004056,incorrect,v
114,4F4K,115,1,44.27346807299934,40.35057897698206,1.2554495385480056,43.69532515907856,2,c,0.8667735999997603,incorrect,n
115,4F4K,116,2,68.32576288563655,59.04996542104499,2.0702039242461296,59.706253004287255,1,b,0.6663325999998051,incorrect,v
116,4F4K,117,2,49.52924779467032,38.09273661955624,1.4004373397349432,41.71792970804547,1,b,1.2247692999999344,incorrect,v
117,4F4K,118,2,65.91872672887197,49.70586912613027,1.9691346982453684,51.89348256285719,1,b,0.7939595000002555,incorrect,v
118,4F4K,119,1,55.82063650987337,36.73655037340609,1.5961752900522617,40.53713439191314,2,c,1.0366579000001366,incorrect,n
119,4F4K,120,2,50.11129883293432,34.15107156611431,1.41749040047819,38.30706396555812,1,v,0.5754643999998734,correct,v
120,4F4K,121,1,58.41995786916206,73.17098622721419,1.684824985104934,69.74255835557528,1,n,1.6070002000001296,incorrect,c
121,4F4K,122,1,54.841837090617645,39.01244753338851,1.5640158277594924,42.521955508009775,2,c,1.4857738000000609,incorrect,n
122,4F4K,123,1,45.38305760493491,36.9885719712404,1.2847536297725064,40.75607073239321,2,n,0.9944056999997883,correct,n
123,4F4K,124,1,36.96026893561173,55.3976230872976,1.07833696335343,56.72920555705413,1,n,0.7029489999999896,incorrect,c
124,4F4K,125,2,51.31650524835701,43.316349536167095,1.453463817451466,46.3038938737008,1,b,0.8910847000001922,incorrect,v
125,4F4K,126,1,61.34400756390606,53.36520353288645,1.7904475133339406,55.02569047472696,2,c,1.1276938999999402,incorrect,n
126,4F4K,127,2,59.92497700395256,52.79722341264296,1.738387023139723,54.5445489621138,1,v,0.8600356000001739,correct,v
127,4F4K,128,2,53.52581112246336,42.30278004516992,1.5217953230308785,45.41185445396862,1,b,1.1216322000000218,incorrect,v
128,4F4K,129,1,25.420232686274318,41.95488979697981,0.8482767824133814,45.10572740030749,1,c,1.485823900000014,correct,c
129,4F4K,130,1,54.88095645764666,68.57466982317996,1.5652886165216493,66.78182446798495,1,n,0.7090597999999773,incorrect,c
130,4F4K,131,1,26.085824286870423,42.20028751559969,0.8600990569658469,45.321660212709695,1,c,1.079195400000117,correct,c
131,4F4K,132,2,66.84654665968341,45.84080304269684,2.00749500739612,48.522922996414096,1,v,0.8121697000001404,correct,v
132,4F4K,133,2,47.40909589346629,67.22156924899008,1.3400370381397395,65.84877006405355,2,b,0.9453247999999803,correct,b
133,4F4K,134,2,46.53075480919296,61.222483990739086,1.315783972245502,61.41614589309047,2,b,1.0851348999999573,correct,b
134,4F4K,135,2,71.05039692788313,55.47758089167398,2.1908821888766217,56.79559794511592,1,v,0.7149057999999968,correct,v
135,4F4K,136,1,64.48043083858646,54.799693427921945,1.911112789198447,56.23115895841231,2,n,1.8194085000000086,correct,n
136,4F4K,137,2,46.53507216471723,58.72112828756973,1.3159021045336028,59.44321985067327,2,v,1.2726269999998294,incorrect,b
137,4F4K,138,2,55.71209807757196,42.479656561000965,1.5925767956132508,45.56751551922206,1,v,1.5468353999999636,correct,v
138,4F4K,139,2,50.31652427024397,38.84986498059796,1.4235525277048409,42.37965900414573,1,b,0.8909920000000966,incorrect,v
139,4F4K,140,2,54.18181651389729,36.616163971829856,1.5426967480396876,40.43263846487401,1,v,0.7696922999998606,correct,v
140,4F4K,141,1,71.81568887463256,60.91419469283453,2.226026343729187,61.17657047428573,2,c,1.8188826999999037,incorrect,n
141,4F4K,142,1,32.299683987239845,45.97595217820919,0.978735218812962,48.64147103433077,1,c,1.061083999999937,correct,c
142,4F4K,143,1,38.0901449179149,32.128255761843526,1.103972586137302,36.58730217286311,2,c,1.5040171999999075,incorrect,n
143,4F4K,144,1,49.259359503933865,56.28969151111249,1.3925998615810824,57.46703326481839,1,c,1.0245216999996956,correct,c
144,4F4K,145,1,45.89504952367371,36.13327561765741,1.2985049248162568,40.014075428019616,2,n,1.3462758999999096,correct,n
145,4F4K,146,2,51.3077115906916,32.91895128277741,1.453198062852654,37.256544458878594,1,b,0.9517108000000007,incorrect,v
146,4F4K,147,2,35.74295842688218,44.49674072832481,1.051383320502736,47.34232847946149,2,v,1.4613438000001224,incorrect,b
147,4F4K,148,1,50.16499658508511,33.237444762147064,1.4190740732148914,37.52723447169463,2,n,0.8486259000001155,correct,n
148,4F4K,149,2,53.549388606155816,37.30806562285417,1.5225416117574857,41.03395937029206,1,b,1.8440938999997343,incorrect,v
149,4F4K,150,2,23.488089310353264,35.5054198178628,0.8148704836850356,39.47134861175827,2,b,1.182375200000024,correct,b
150,4F4K,151,2,69.23008909636812,47.12987192548766,2.1095023180667787,49.652014888793104,1,v,1.0002960000001622,correct,v
151,4F4K,152,1,61.85229551361151,49.42779125293713,1.809472102811564,51.65270975707331,2,c,0.8181072000002132,incorrect,n
152,4F4K,153,2,49.46547904575373,57.51987829329656,1.3985815431063449,58.47356292077306,2,v,1.6976658999997198,incorrect,b
153,4F4K,154,1,75.6720471316493,64.15081342974646,2.411885490775501,63.63686359459755,2,n,1.133783300000232,correct,n
154,4F4K,155,1,57.55731487906608,50.388530156392434,1.6548717862940228,52.48311539110112,2,c,1.1205417000001034,incorrect,n
155,4F4K,156,1,33.049301262338645,45.77333889513164,0.9941111269123116,48.46373277830223,1,c,1.1033091000003878,correct,c
156,4F4K,157,1,53.76364876200475,41.49535548333016,1.5293403002593238,44.70146969844627,2,n,1.2296980999999505,correct,n
157,4F4K,158,2,51.23068565193364,61.60977448516989,1.45087232497653,61.715614168546864,2,b,1.1766930999997385,correct,b
158,4F4K,159,2,71.68736300502054,51.28443986133944,2.2200941966363,53.25354471445654,1,v,1.3219740999998066,correct,v
159,4F4K,160,1,34.53954125321688,20.315824596008746,1.025399598245926,27.248711869356885,2,n,2.30064880000009,correct,n
160,4F4K,161,1,59.74987077427168,44.32749514082206,1.7320686635220368,47.1935015150754,2,n,3.0468495999998595,correct,n
161,4F4K,162,1,44.999745652397785,58.59839120482011,1.274553886173567,59.34477307710582,1,c,0.9881556999998793,correct,c
162,4F4K,163,1,39.49303676298866,32.93233566103115,1.136652378098563,37.26790735140462,2,c,0.9033903000004102,incorrect,n
163,4F4K,164,2,55.26392260034916,62.47604558718561,1.577803647680046,62.379250009571,2,v,0.7456024000002799,incorrect,b
164,4F4K,165,2,62.01598850975924,55.20291646064228,1.8156418598580863,56.56732434567554,1,v,1.000319799999943,correct,v
165,4F4K,166,1,57.76368556254248,44.28929865419796,1.66198869278704,47.15990942595516,2,n,0.7943548999996892,correct,n
166,4F4K,167,2,41.50199611667205,50.555740591824254,1.1851419628872195,52.627209431475336,2,b,1.019387899999856,correct,b
167,4F4K,168,2,42.60696849548405,64.4574817895943,1.212688531920176,63.86336924178561,2,b,1.025402700000086,correct,b
168,4F4K,169,1,48.63479289265161,62.25962016537021,1.374630415910612,62.21426603078586,1,n,0.9153353000001516,incorrect,c
169,4F4K,170,1,59.68021286457155,52.36631445683987,1.729561586021143,54.17817384707403,2,n,0.7140271999996912,correct,n
170,4F4K,171,1,37.830327142505126,26.80459493981645,1.098024171975534,32.20531350724655,2,c,0.5936897999999928,incorrect,n
171,4F4K,172,2,41.0540184444791,58.509857807119126,1.1741531137862522,59.27367048537052,2,b,1.024565000000166,correct,b
172,4F4K,173,1,48.84691124747896,67.38528211755886,1.380707133829742,65.96306451947507,1,c,1.0852885999997852,correct,c
173,4F4K,174,2,72.24321404541567,54.474230048636194,2.245904248387919,55.958936923630034,1,v,1.3038849999998092,correct,v
174,4F4K,175,2,64.5357588397714,75.52139923649531,1.9133128154865744,71.12272256956939,2,v,0.9093200000002071,incorrect,b
175,4F4K,176,2,54.05634465593972,42.68625301519118,1.5386769228244634,45.74934102941591,1,b,0.9448428000000604,incorrect,v
176,4F4K,177,1,47.06463003004549,57.17989711280831,1.3304726934802522,58.196715372226286,1,c,1.1822868999997809,correct,c
177,4F4K,178,1,49.55795599937719,61.838861451775074,1.401273608871252,61.89195523010204,1,c,1.4129640999999538,correct,c
178,4F4K,179,1,39.526119079128094,51.17985664727986,1.1374345814605922,53.16382044311948,1,n,0.7999098000000231,incorrect,c
179,4F4K,180,1,55.74184016353357,40.78180897711951,1.5935620601011633,44.07413955523587,2,c,1.1814021999998658,incorrect,n
180,4F4K,181,2,44.69305191428304,31.076388210952437,1.2664512618771102,35.703561966137926,1,b,1.3831599000000097,incorrect,v
181,4F4K,182,1,45.69474006678502,33.261701044353885,1.2931074876289534,37.547875425724456,2,n,1.158070299999963,correct,n
182,4F4K,183,2,27.32190849019984,46.60788338720387,0.8824933148581109,49.19527301845321,2,b,1.0548664000002645,correct,b
183,4F4K,184,2,62.003087148504406,46.87283879181594,1.8151548315726516,49.42719670574049,1,v,0.7640495000000556,correct,v
184,4F4K,185,2,38.41731405568178,53.60338953283516,1.11150883944941,55.22683477107463,2,b,0.7332714000003762,correct,b
185,4F4K,186,1,41.05282305766458,44.97378465046974,1.1741239277906057,47.76164866571176,1,n,1.516342700000223,incorrect,c
186,4F4K,187,2,68.54223946463888,52.25594604724844,2.0795439616449087,54.08415410067234,1,v,0.9699421000000257,correct,v
187,4F4K,188,2,48.158846999126006,63.37311990334396,1.36109277744821,63.05715082031384,2,b,0.7332036000002518,correct,b
188,4F4K,189,1,54.48371668452881,43.704338280084905,1.5524120111464002,46.64531822019676,2,n,0.8303343000002315,correct,n
189,4F4K,190,1,37.832549749225045,50.97503857391389,1.098074921418036,52.98793697338943,1,c,0.8728578999998717,correct,c
190,4F4K,191,1,42.84007520899387,59.82093770161559,1.2185810886817676,60.31870538705538,1,c,0.7878761000001759,correct,c
191,4F4K,192,2,57.26922525914661,33.76822375583765,1.6449876557353844,37.97969909961097,1,b,1.0968230000003132,incorrect,v
192,4F4K,193,1,37.24959485569048,49.37434889227815,1.084844185642102,51.60639964505845,1,c,0.7272214999998141,correct,c
193,4F4K,194,2,53.816784861077096,66.13251994131028,1.5310310544486898,65.07889015573643,2,v,0.6664965999998458,incorrect,b
194,4F4K,195,2,56.2005650354176,42.185696201755626,1.6088356449178252,45.30882008151793,1,v,1.2542054000000462,correct,v
195,4F4K,196,2,35.953136322182885,51.00171404798489,1.0559884752761957,53.010856279679984,2,b,1.1339947999999822,correct,b
196,4F4K,197,1,41.87200090802367,59.95382575114285,1.1942956539046008,60.42365587609697,1,n,0.8303639999999177,incorrect,c
197,4F4K,198,1,36.86434472275616,56.83787420293394,1.076188161434551,57.9171735340759,1,c,0.9326308999998218,correct,c
198,4F4K,199,2,53.87076130149535,43.78306050239125,1.5327504615139669,46.71458391300069,1,b,0.8728246000000581,incorrect,v
199,4F4K,200,2,67.2780509481684,50.95739841304989,2.02558907459343,52.97277871915197,1,b,0.7031898999998702,incorrect,v
200,4F4K,201,2,46.27198670993422,60.6646375590944,1.3087228437773415,60.981873349227534,2,v,2.4580708999997114,incorrect,b
201,4F4K,202,1,70.29856138353642,50.34571762484971,2.1568963384635134,52.446200092280456,2,c,1.0549349999996593,incorrect,n
202,4F4K,203,2,34.22003045271752,44.40704864318933,1.0186093841819397,47.263460814880666,2,v,1.2794476999997642,incorrect,b
203,4F4K,204,1,37.82975389488063,47.97182075777621,1.0980110832219407,50.38712769375978,1,n,1.296882099999948,incorrect,c
204,4F4K,205,1,46.24854661093195,29.37862554979976,1.3080850973972176,34.29461201872789,2,c,1.0428131999997277,incorrect,n
205,4F4K,206,2,49.40748599592174,56.939090028032496,1.3968959660205862,58.00000558761419,2,b,0.6908734000003278,correct,b
206,4F4K,207,1,51.12369732980952,37.47675106746125,1.4476480707465929,41.18082433892839,2,n,0.7029339999999138,correct,n
207,4F4K,208,1,56.81977634593126,46.38952655616994,1.6296851760996596,49.004012317522815,2,n,1.3283535999999003,correct,n
208,4F4K,209,1,55.345503925677775,43.473249779425394,1.580482562201211,46.44197115461518,2,c,1.8073966000001747,incorrect,n
209,4F4K,210,2,47.49762469899237,64.80407456860065,1.3425061907398368,64.11791056888696,2,b,0.9141528999998627,correct,b
210,4F4K,211,2,60.10941251344795,41.47914751492367,1.7450669360810078,44.68721433673647,1,v,1.2248125999999502,correct,v
211,4F4K,212,1,60.74281964056788,51.34461851919184,1.768203827527866,53.30514705890116,2,n,1.8926956999998765,correct,n
212,4F4K,213,1,52.19863779130134,67.05202100608503,1.480371363913079,65.73000118601219,1,c,1.0548914000000877,correct,c
213,4F4K,214,1,59.81133523493756,51.811452958393765,1.7342838661844893,53.70478319311399,2,c,0.9699020000002747,incorrect,n
214,4F4K,215,1,61.185638919627245,43.4569457029987,1.7845609394472743,46.42762344801519,2,c,1.7225210000001425,incorrect,n
215,4F4K,216,2,49.48554534795699,68.79989066178501,1.3991652468361997,66.93452933935204,2,v,0.806087700000262,incorrect,b
216,4F4K,217,2,32.815073108013706,52.31717284420177,0.9892809445180818,54.13632042413076,2,v,1.0428133999998863,incorrect,b
217,4F4K,218,2,47.42132553105348,58.482200820828766,1.3403778638346586,59.25144325527277,2,b,0.9214137999997547,correct,b
218,4F4K,219,2,34.44007267748864,47.35189561458233,1.0232808630055317,49.84606768837949,2,b,1.4311499000000367,correct,b
219,4F4K,220,2,36.34372666633085,45.00010848861075,1.0646002424922634,47.78477895649159,2,b,1.1823205000000598,correct,b
220,4F4K,221,1,39.24099546330531,26.16829224311397,1.1307107083605052,31.69850731658381,2,c,1.1702278999996452,incorrect,n
221,4F4K,222,2,42.62437754779379,48.821216868642686,1.2131276180602544,51.12641292308379,2,b,1.1098626000002696,correct,b
222,4F4K,223,1,54.88536304774858,35.52007316401508,1.5654320543479343,39.48399490229906,2,n,1.5707849000000351,correct,n
223,4F4K,224,1,28.79031685606266,39.63647976767473,0.9098556013715244,43.0687000909502,1,c,0.7686194000002615,correct,c
224,4F4K,225,1,23.86439374203647,41.99539757580678,0.8212718831263148,45.14136927934624,1,c,0.8606719999997949,correct,c
225,4F4K,226,2,71.52122544541668,50.78508655173722,2.212437596367497,52.824627476515296,1,b,1.6971873999996205,incorrect,v
226,4F4K,227,2,62.08417943352144,38.54040868395928,1.818218248794296,42.10900281098888,1,b,0.8607693999997537,incorrect,v
227,4F4K,228,2,48.85502397438984,37.07145448476146,1.3809400779617171,40.8281245338192,1,v,0.5147655000000668,correct,v
228,4F4K,229,2,57.99191341619619,43.109656272062985,1.6698950127428729,46.12198654485083,1,v,2.037087900000188,correct,v
229,4F4K,230,1,60.75106960720746,42.59704047444707,1.768507194632987,45.67082418709131,2,c,1.9229252000000088,incorrect,n
230,4F4K,231,1,59.04169630213711,50.09935127855356,1.7067489792663306,52.233602727302426,2,n,0.7096551999998155,correct,n
231,4F4K,232,2,41.10922947849875,60.15339050858527,1.1755019109912892,60.58091917862026,2,b,1.2309605999998894,correct,b
232,4F4K,233,1,63.03975207968295,50.77116953239752,1.8547086318752264,52.81265530432899,2,n,1.0912711000000854,correct,n
233,4F4K,234,2,58.98856022980002,72.97354721518744,1.704864176520246,69.62235635653902,2,b,0.7271791999996822,correct,b
234,4F4K,235,2,55.83784416933727,42.82165127048229,1.5967465408303256,45.86850788177861,1,b,1.4314904999996543,incorrect,v
235,4F4K,236,1,48.21789855180151,54.06125836215982,1.3627651477168246,55.612419070066665,1,n,0.885627900000145,incorrect,c
236,4F4K,237,2,38.560364931068776,56.80984773984037,1.114820122114677,57.8942218140926,2,v,0.7514344999999594,incorrect,b
237,4F4K,238,1,56.898102744224005,69.4298254977971,1.6323416913569049,67.35760925958573,1,n,1.558621299999686,incorrect,c
238,4F4K,239,2,51.79625896700893,74.00924620484882,1.4680364292298695,70.24561231560635,2,b,1.036714899999879,correct,b
239,4F4K,240,2,80.54722218933445,64.96762415542216,2.6692171263546043,64.23748209152951,1,b,1.7340248999998948,incorrect,v
240,4F4K,241,2,43.9851573079112,36.63976877964919,1.2479453172410155,40.45312306579377,1,v,2.713745800000197,correct,v
241,4F4K,242,2,38.17404686170279,49.26773158679448,1.105900359332905,51.513976075620015,2,b,0.9364768000000367,correct,b
242,4F4K,243,1,51.13654641375325,63.1466164121249,1.4480349183393828,62.88690342492698,1,n,0.9870334000002003,incorrect,c
243,4F4K,244,1,49.17594313981337,61.64524526277948,1.390186359310443,61.74295708587583,1,c,0.800004600000193,correct,c
244,4F4K,245,1,43.23522548451554,56.799492662670445,1.2286353215983332,57.88574001171939,1,c,1.1023878999999397,correct,c
245,4F4K,246,2,65.04197749123338,51.866443147769424,1.933559720661448,53.75177824445972,1,v,1.8074096000000281,correct,v
246,4F4K,247,2,61.62617197787941,48.52034848821497,1.800983744069638,50.86483910210387,1,b,1.5333713999998508,incorrect,v
247,4F4K,248,1,49.93894262840034,31.73904538047724,1.4124191421871697,36.2593987742906,2,n,2.0941350000002785,correct,n
248,4F4K,249,2,71.56140241157411,53.15794083175324,2.214286764134432,54.85035634554315,1,v,1.2732897999999295,correct,v
249,4F4K,250,1,33.42475858060526,44.04794469558316,1.0019029428734454,46.94762021421394,1,c,0.9213407000002007,correct,c
250,4F4K,251,1,46.69841076782037,32.11668763885354,1.3203792055188657,36.57754137510197,2,n,2.445302999999967,correct,n
251,4F4K,252,2,37.110078931994224,59.043506143921,1.0817014486655452,59.70109656010922,2,b,1.4243354000000181,correct,b
252,4F4K,253,2,41.83976279046587,53.9083457834873,1.1934952988707113,55.48380743678664,2,b,0.9931117999999515,correct,b
253,4F4K,254,2,49.60626106361162,36.37469905121322,1.4026818611407434,40.22321946675712,1,v,1.2492243000001508,correct,v
254,4F4K,255,2,45.22989231936752,56.75933632307913,1.280668221278847,57.85283937286256,2,b,1.4797324999999546,correct,b
255,4F4K,256,2,42.036188250892245,26.276170207241144,1.198380162673922,31.784143961191617,1,v,1.2795157000000472,correct,v
256,4F4K,257,2,57.00682832315823,47.436517485783256,1.636036403049767,49.91999214177259,1,b,1.0967028000000028,incorrect,v
257,4F4K,258,1,33.52821021649373,49.08988262776715,1.0040605727395528,51.35970157433733,1,c,0.9335577000001649,correct,c
258,4F4K,259,1,29.668115773965056,39.10334782146091,0.9266159835033724,42.601542115465,1,c,0.8121786000001521,correct,c
259,4F4K,260,1,27.095197174639203,40.07805819701816,0.8783427420590781,43.45607860051859,1,n,1.3100925000003372,incorrect,c
260,4F4K,261,1,63.390425340878735,50.55337871912156,1.8682826826995211,52.62517502005407,2,n,0.8180505999998786,correct,n
261,4F4K,262,1,48.203009921726085,38.89069891443829,1.362343300443568,42.41539171462087,2,n,0.8729766999999811,correct,n
262,4F4K,263,2,55.12455548346739,40.08138179004301,1.5732377010162992,43.45899562568466,1,v,2.4470516999999745,correct,v
263,4F4K,264,1,57.58733858971505,47.63111051716314,1.655905287555646,50.08990627810412,2,n,1.200569600000108,correct,n
264,4F4K,265,2,48.11078240273004,63.66705711463003,1.3597330785994408,63.27714445436535,2,b,1.4251922999997078,correct,b
265,4F4K,266,1,39.13402494657003,53.79146057081789,1.1281983627422791,55.38538862821655,1,c,1.406942600000093,correct,c
266,4F4K,267,1,76.8731261165733,56.040676698317526,2.4728826583323658,57.26172243984303,2,n,0.806039999999939,correct,n
267,4F4K,268,1,62.08594647269394,49.08478951451887,1.8182850596269469,51.35528171576537,2,n,0.6604520000000775,correct,n
268,4F4K,269,1,63.02021476042288,76.26670112291634,1.853955277759,71.54037037516046,1,c,1.0608798999996907,correct,c
269,4F4K,270,1,51.52097733794108,41.24800371776838,1.4596569244948487,44.48394325878382,2,n,0.7877729000001636,correct,n
270,4F4K,271,1,70.30626065961573,55.19845330868047,2.157241689407841,56.56361020028371,2,n,0.8061149999998634,correct,n
271,4F4K,272,1,59.88615693530893,46.6970544084808,1.736984292743887,49.27334643139578,2,c,1.0488464000000022,incorrect,n
272,4F4K,273,1,53.09685374800537,65.99996110174499,1.5082813949461569,64.98406235954654,1,c,0.6421712000001207,correct,c
273,4F4K,274,2,51.71164111815797,64.29174683674466,1.4654555748712357,63.74110602489538,2,b,0.9821137000003546,correct,b
274,4F4K,275,1,63.50137880952842,42.98214729013613,1.872598184369517,46.00976421425732,2,c,2.925553900000068,incorrect,n
275,4F4K,276,2,32.83092456069789,46.01613174242919,0.9896070867257712,48.67670821665187,2,v,1.2566439000001992,incorrect,b
276,4F4K,277,1,34.32749352105562,53.83847500240165,1.0208881461350237,55.42498665289219,1,c,0.7687647000002471,correct,c
277,4F4K,278,1,34.89237334476447,52.61440936780138,1.032950557166778,54.389252112012585,1,c,0.6847273999997014,correct,c
278,4F4K,279,2,48.84732586075992,66.64746580766968,1.380719037842018,65.4449766827111,2,v,0.9335112000003392,incorrect,b
279,4F4K,280,1,60.24770729616805,50.03409557351175,1.7500925510761989,52.17724461863083,2,n,0.970053900000039,correct,n
280,4F4K,281,1,47.12381119770555,66.72351487837348,1.3321110313424631,65.49873078942032,1,c,1.3339264999999614,correct,c
281,4F4K,282,1,60.12732538892052,46.355125803581984,1.745717073255868,48.97387046828947,2,n,1.0237311000000773,correct,n
282,4F4K,283,2,40.39789179242207,29.537359563225685,1.1582420289740092,34.425367401193704,1,b,1.533422999999857,incorrect,v
283,4F4K,284,2,56.66029187652991,38.61808208506065,1.6242894625738316,42.17691347779724,1,v,1.000180999999884,correct,v
284,4F4K,285,1,50.20150040597985,41.24346053781062,1.4201516666768648,44.47994844521949,2,c,0.8425114000001486,incorrect,n
285,4F4K,286,2,46.19701160231256,42.58569615347248,1.306684051432122,45.66084002260905,1,v,1.0055771000002096,correct,v
286,4F4K,287,2,48.021332257242605,63.958307985466384,1.3572062395205513,63.49406924840676,2,v,1.3098092000000179,incorrect,b
287,4F4K,288,1,49.32276650881842,32.26313295190257,1.3944372316833138,36.70117312955684,2,n,2.688928699999906,correct,n
288,4F4K,289,1,30.720324952835256,44.01765579003716,0.947113840071934,46.92097551171415,1,c,0.82432370000015,correct,c
289,4F4K,290,1,58.38810479433365,39.60235577957343,1.6837093837094763,43.03878043510899,2,n,0.9092855999997482,correct,n
290,4F4K,291,2,37.80371652281134,47.74515136188965,1.097416745871834,50.18943112393384,2,b,2.092634999999973,correct,b
291,4F4K,292,1,42.9537046664231,58.368263445660645,1.221463827338111,59.15979736191829,1,n,0.7454271999999946,incorrect,c
292,4F4K,293,1,44.525371197778455,35.010236966610535,1.2620430609252495,39.04458897962977,2,c,0.9022682999998324,incorrect,n
293,4F4K,294,1,50.67173672071459,41.75259696961712,1.4341064361809563,44.927749452501686,2,n,1.4857913000000735,correct,n
294,4F4K,295,2,64.17756375503161,45.53208091157173,1.899114529807951,48.25199547896376,1,b,0.7392010999997183,incorrect,v
295,4F4K,296,1,50.70126653335808,40.408479693679226,1.4349873271131,43.74617199476141,2,c,1.1458953999999721,incorrect,n
296,4F4K,297,1,47.750223130531445,70.27275275476646,1.3495764405239017,67.91429735848708,1,c,1.054777599999852,correct,c
297,4F4K,298,1,46.75319571748263,26.44709762850409,1.3218842663759125,31.920072313371666,2,c,1.6135368999998718,incorrect,n
298,4F4K,299,1,41.36521645414385,30.727175031059897,1.181775908382602,35.41192900379634,2,n,0.7028940999998667,correct,n
299,4F4K,300,2,52.074718291543874,56.23535165384869,1.4765616039736282,57.42227419264228,2,v,1.8985132000002523,incorrect,b
300,4F4K,301,1,59.33611808435644,71.77322081067108,1.717230310114955,68.8777510843162,1,n,0.9331328000002941,incorrect,c
301,4F4K,302,1,48.68598948255942,60.52181318896327,1.3760946310588575,60.87014234218156,1,c,1.1823203999997531,correct,c
302,4F4K,303,1,46.42005292943555,61.613459358629854,1.3127585462780005,61.71845534516507,1,c,0.8242790000003879,correct,c
303,4F4K,304,2,40.5443028261607,21.579058803972494,1.1617737071549143,28.174178641522,1,v,1.6011008000000402,correct,v
304,4F4K,305,2,50.7691730752102,58.67399778062911,1.4370150708125669,59.40543399733132,2,b,1.454501799999889,correct,b
305,4F4K,306,1,37.64800642322379,54.32111371237051,1.0938691661012492,55.83060145042341,1,c,2.0198605999999018,correct,c
306,4F4K,307,2,66.24086625411621,50.49306203247867,1.9823696259077987,52.57321177056701,1,v,1.3280362999998943,correct,v
307,4F4K,308,1,34.01247961921524,50.52706332198859,1.0142226428951642,52.602506284689206,1,c,0.9638694999998734,correct,c
308,4F4K,309,1,68.85393654055375,55.87818052753789,2.0930664234185192,57.127471509659046,2,n,1.3099975999998605,correct,n
309,4F4K,310,1,70.63944725165939,50.52412148501005,2.172239863581567,52.59997190493574,2,n,3.065994900000078,correct,n
310,4F4K,311,2,40.02364338400267,55.52169632721052,1.149263251798423,56.83220742235781,2,v,1.261474200000066,incorrect,b
311,4F4K,312,2,24.945982265924417,36.6705981186067,0.839952394183189,40.47988052131307,2,b,1.1640996000000996,correct,b
312,4F4K,313,1,64.60310377990456,54.941088344801855,1.9159940931827788,56.34917912028565,2,n,1.7771507999996174,correct,n
313,4F4K,314,1,30.339086023211888,47.73920977982892,0.939635145239648,50.18424681956334,1,c,1.5222286000002896,correct,c
314,4F4K,315,2,58.1701883468837,72.81905535967238,1.6760970075733153,69.52784871964674,2,v,1.1035695999999007,incorrect,b
315,4F4K,316,2,49.96298180190322,41.76846153466184,1.413125359556517,44.94170618246537,1,v,0.9872891999998501,correct,v
316,4F4K,317,2,53.37795961133537,69.83456530511113,1.5171237699987756,67.62627073655071,2,b,0.8972748999999567,correct,b
317,4F4K,318,1,49.73960342475564,65.32428801820902,1.4065765814716529,64.49702339052074,1,n,0.9880911999998716,incorrect,c
318,4F4K,319,1,55.66126026764685,73.86639646976113,1.590894104515716,70.16072437452942,1,n,1.667815100000098,incorrect,c
319,4F4K,320,2,62.79128856387316,42.33230270710886,1.8451507074168565,45.43783534877125,1,v,2.093298799999957,correct,v
320,4F4K,321,2,30.209356907647035,45.68485761787545,0.9371037627492638,48.38609025583735,2,v,1.5887996999999814,incorrect,b
321,4F4K,322,1,47.93226093036267,62.58512825833913,1.3546947674648773,62.46219611244136,1,n,1.126905799999804,incorrect,c
322,4F4K,323,1,50.10361182901564,30.428891418162507,1.417263837348727,35.16355674153186,2,n,0.914922999999817,correct,n
323,4F4K,324,2,56.69714070059938,39.93419448752904,1.6255345509405073,43.3298324384595,1,b,0.6968501999999717,incorrect,v
324,4F4K,325,2,38.65820653672644,50.26577743872173,1.1170905983455162,52.37724815238281,2,b,1.648926599999868,correct,b
325,4F4K,326,2,44.19685884490248,23.939832730856786,1.2534511442382124,29.957059355694565,1,v,1.018500000000131,correct,v
326,4F4K,327,2,47.19736602558046,62.29734045314553,1.3341500936632635,62.24306022709174,2,b,1.3090203000001566,correct,b
327,4F4K,328,2,42.65751766919784,58.55346424474797,1.213963908153184,59.30870095381583,2,b,0.8000336999998581,correct,b
328,4F4K,329,2,48.16156606351923,54.94426587786404,1.3611697376531953,56.35182963533428,2,b,1.1277039999999943,correct,b
329,4F4K,330,2,51.81403291372003,68.77171826560921,1.468579114060384,66.91546907034038,2,v,1.5641096999997899,incorrect,b
330,4F4K,331,2,46.820224702118594,29.99233766446877,1.3237280310555752,34.80129569481044,1,v,0.823476699999901,correct,v
331,4F4K,332,2,38.7853431756443,49.50730467753058,1.1200477938954707,51.72158958004599,2,b,0.8425609000000804,correct,b
332,4F4K,333,2,60.23923931377733,38.20479741392734,1.7497844101084916,41.81576810325422,1,b,1.0305208999998285,incorrect,v
333,4F4K,334,2,37.75509052409436,56.13431958479328,1.0963076546109856,57.33899028792111,2,b,1.3161415999998098,correct,b
334,4F4K,335,2,58.88414009000413,46.25477493044588,1.701166325989779,48.88592836875285,1,v,0.8433601000001545,correct,v
335,4F4K,336,2,56.55386515848066,40.46593466103917,1.6206987525301275,43.79663254434344,1,v,1.286084800000026,correct,v
336,4F4K,337,2,27.854829757718328,39.45116017488243,0.8923273055671952,42.90624258231241,2,b,0.7029262000000926,correct,b
337,4F4K,338,1,69.54162508225134,62.21374554655252,2.123212475033767,62.17922474312558,2,n,1.255150699999831,correct,n
338,4F4K,339,2,46.40046568572141,40.54812015102561,1.3122239616642006,43.868821680369805,1,b,1.3828201999999692,incorrect,v
339,4F4K,340,1,43.12645069876959,57.836796104655306,1.2258594020559224,58.73068906962709,1,c,1.3279708999998547,correct,c
340,4F4K,341,2,46.38585257973367,62.99442131412156,1.311825275439077,62.77215816723341,2,b,1.3452471999999034,correct,b
341,4F4K,342,1,45.7140685166361,39.62520185186669,1.293627322784385,43.0588114344479,2,c,1.249106099999608,incorrect,n
342,4F4K,343,2,53.95252098690642,71.48266939325768,1.5353585757948602,68.6939855272313,2,v,0.8242906999998922,incorrect,b
343,4F4K,344,2,51.643757511768,63.92359419063823,1.463388397268904,63.46826999453054,2,b,0.6362222999996447,correct,b
344,4F4K,345,1,46.716421822410965,62.93952508826256,1.320873818903948,62.7307012660455,1,n,1.0609574999998586,incorrect,c
345,4F4K,346,1,52.734794602793365,40.613315362100806,1.496968473351178,43.92609416255872,2,c,0.7272931000002245,incorrect,n
346,4F4K,347,2,49.74898246457922,58.58795826762488,1.4068509351765723,59.33639814635224,2,b,0.8242694000000483,correct,b
347,4F4K,348,2,68.27895657229679,53.93975435643586,2.068189954489912,55.5102377972907,1,v,0.9095446999999695,correct,v
348,4F4K,349,2,44.47870481482727,35.912932167515216,1.260818968171682,39.8234089026356,1,b,0.7575784000000567,incorrect,v
349,4F4K,350,1,46.20375212505451,31.69857352266363,1.3068672159391057,36.225361708817246,2,c,1.0183439000002181,incorrect,n
350,4F4K,351,1,79.84084402917567,61.707940410798,2.630296289399244,61.79125117100653,2,c,0.9814818999998352,incorrect,n
351,4F4K,352,1,25.62810491098388,36.36150478019909,0.851951464184025,40.21178307612573,1,c,0.8910942000002251,correct,c
352,4F4K,353,1,36.00771630613136,52.50839874778662,1.0571876591353633,54.29910423266689,1,c,1.2301062999999886,correct,c
353,4F4K,354,1,48.07048732226044,38.85566973818591,1.3585942182617752,42.38473833848468,2,n,1.4250785000003816,correct,n
354,4F4K,355,2,37.0861329103252,48.63946282163055,1.0811629565167304,50.968436425559474,2,b,1.7588011000002552,correct,b
355,4F4K,356,1,50.797620279650886,32.819979065328425,1.4378653784712956,37.17255509390975,2,n,1.685224400000152,correct,n
356,4F4K,357,2,63.72512146859282,48.85807711286158,1.8813309297837597,51.15843592209865,1,v,1.5763405999996394,correct,v
357,4F4K,358,1,39.843752066178574,52.97677982620983,1.1449721936255055,54.69687568519095,1,c,1.4979004999995595,correct,c
358,4F4K,359,1,60.34863189424815,75.7611328976996,1.753769271100004,71.25813072422513,1,n,2.215505499999381,incorrect,c
359,4F4K,360,2,36.019514326768544,47.72287598044591,1.0574470539120044,50.16999426351925,2,v,1.012394399999721,incorrect,b
360,4F4K,361,2,46.55925576653735,60.355485526417816,1.3165640168852022,60.7397488217044,2,v,1.4362275999992562,incorrect,b
361,4F4K,362,2,44.37826898276607,49.02631277739128,1.2581884900293807,51.304527669579166,2,v,1.2311391000002914,incorrect,b
362,4F4K,363,1,43.95185450395712,53.34156975169732,1.2470813988808127,55.00571162756938,1,c,1.1580537999998342,correct,c
363,4F4K,364,1,65.67913237466908,50.712659030918594,1.959348425989566,52.76231085406129,2,n,0.7454031999996005,correct,n
364,4F4K,365,2,55.827193504929895,45.94433478686833,1.596392941601829,48.61374056343728,1,v,1.571094699999776,correct,v
365,4F4K,366,1,28.410645850668068,42.20760333938375,0.9027005399920636,45.32809805844521,1,c,0.7029652999999598,correct,c
366,4F4K,367,2,55.42824709834875,76.12586311775107,1.583204274838681,71.46219989070647,2,v,0.9213602999998329,incorrect,b
367,4F4K,368,1,51.76747806026675,40.27731960146684,1.4671580985183454,43.63099843748154,2,n,2.1959155000004102,correct,n
368,4F4K,369,2,38.29900309246201,53.32024526826408,1.108777658282584,54.98768180039095,2,b,1.78920190000008,correct,b
369,4F4K,370,2,38.30071990836066,45.0042046553319,1.1088172425544596,47.78837810110915,2,b,0.9944525999999314,correct,b
370,4F4K,371,2,54.2362187102666,61.2812480364405,1.5444429295571522,61.461692704139615,2,v,1.1099801999998817,incorrect,b
371,4F4K,372,2,50.96908760332887,70.00954977869165,1.4430013285521386,67.74164611168767,2,b,1.1519029999999475,correct,b
372,4F4K,373,1,48.95702066757343,63.10553202161613,1.3838721071131732,62.85595610355529,1,c,1.193805799999609,correct,c
373,4F4K,374,1,57.29314329363929,52.32538268268577,1.6458060128304712,54.14331366234896,2,n,0.9457040999996025,correct,n
374,4F4K,375,2,43.23859156493246,55.32936832044511,1.228721323766257,56.67249123652736,2,b,1.230840399999579,correct,b
375,4F4K,376,1,42.96512300077625,63.09908883186742,1.2217538831967096,62.85110083406223,1,c,2.4755682000004526,correct,c
376,4F4K,377,2,62.068095507729424,50.74595087875801,1.817610236774931,52.79095839401124,1,v,4.200083699999595,correct,v
377,4F4K,378,2,69.1396795302008,51.81775502967184,2.105540149647537,53.710169859144,1,b,2.3664737000008245,incorrect,v
378,4F4K,379,1,52.59261159183489,38.62940039163961,1.4925490539832944,42.186810553475176,2,n,0.9092790999993667,correct,n
379,4F4K,380,2,51.68135502739693,70.66252211010317,1.4645329485409904,68.16799094428531,2,b,1.0184874000005948,correct,b
380,4F4K,381,1,45.20562904817736,53.99862927135877,1.280022235219065,55.559762697809205,1,c,1.1936734999999317,correct,c
381,4F4K,382,1,37.755558992883294,46.91723481059172,1.0963183343819611,49.46604073272309,1,c,2.8717421999999715,correct,c
382,4F4K,383,2,39.8443612742144,22.040589360391944,1.1449866983682178,28.51739685862493,1,v,3.010664000000361,correct,v
383,4F4K,384,1,52.78835499265489,35.72237546956008,1.4986366612677005,39.65868885068177,2,n,1.0974279000001843,correct,n
384,4F4K,385,2,55.7592128150261,63.44604263099191,1.5941378449760872,63.11182828838261,2,v,2.451927000000069,incorrect,b
385,4F4K,386,1,37.778235650203314,46.99302144721944,1.0968354228227386,49.53233802316719,1,c,1.5464514999994208,correct,c
386,4F4K,387,2,40.74623874544963,36.396862128803626,1.166662413891759,40.24243135029559,1,b,2.5432534000001397,incorrect,v
387,4F4K,388,1,57.4106924876029,42.73861017323328,1.6498338871556149,45.795421515654034,2,n,0.7324869000003673,correct,n
388,4F4K,389,1,27.481497531041565,42.47468609856284,0.885426787350243,45.56314111972969,1,c,0.7882671000006667,correct,c
389,4F4K,390,2,32.701996196604675,39.17548763198317,0.9869575133867649,42.66471726277207,2,b,1.3765819999998712,correct,b
390,4F4K,391,1,52.80878996456343,46.75205205621516,1.4992736172043342,49.32148981544465,2,n,0.8303949000001012,correct,n
391,4F4K,392,2,56.29948793730123,72.64597638683775,1.6121484966656443,69.42150117189772,2,v,1.1762303000004977,incorrect,b
392,4F4K,393,2,47.11807696925628,35.37366566140655,1.331952199988081,39.35768570495751,1,v,1.3028684999999314,correct,v
393,4F4K,394,2,33.82827338487251,53.19614634428099,1.010345133722322,54.88269735065112,2,v,0.915347400000428,incorrect,b
394,4F4K,395,2,26.642030574784112,41.46493628293549,0.870104700440219,44.67471534994099,2,b,0.5815443999999843,correct,b
395,4F4K,396,1,33.163748857564144,23.57608438226515,0.996479800444112,29.678029335132024,2,c,0.7696630999998888,incorrect,n
396,4F4K,397,2,37.44189308501611,47.01949192487673,1.0891908686470384,49.555490558186655,2,b,1.5889354000000822,correct,b
397,4F4K,398,1,51.05298164400778,39.43527843188407,1.4455208811752325,42.89232350141523,2,n,2.6221494999999777,correct,n
398,4F4K,399,2,51.35276724862189,60.784474419943,1.4545602109383349,61.07545113785778,2,v,1.631592599999749,incorrect,b
399,4F4K,400,1,51.97050530871002,34.452843553541086,1.4733652885542974,38.56567039576413,2,n,0.8486112000000503,correct,n
