,condition,trial,sub_task,x,y,xt,yt,cat,resp,rt,acc,correct_resp
0,2F4K,1,2,38.43871993183996,54.34542525104778,1.1120037073744944,56.24640136984189,2,b,2.0375412000003053,correct,b
1,2F4K,2,1,38.195106652396895,49.40827603246301,1.1063847679536247,51.96612582008517,1,n,1.1339437999995425,incorrect,c
2,2F4K,3,1,50.4066958038816,38.31538885110551,1.4262242843453177,42.092546809527605,2,c,1.4991540000000896,incorrect,n
3,2F4K,4,2,53.55087917336465,60.76254938152285,1.5225888043874172,61.53416009047224,2,b,0.8547845000002781,correct,b
4,2F4K,5,1,49.24965045041896,59.02229565871633,1.3923187322765074,60.138760711180495,1,n,1.0369651999999405,incorrect,c
5,2F4K,6,1,51.2919908086546,39.78457992475098,1.4527230835473508,43.398627722812776,2,c,1.0251766000001226,incorrect,n
6,2F4K,7,1,41.831085012500125,50.041965826831145,1.1932799528858116,52.52283362142014,1,n,1.516269800000373,incorrect,c
7,2F4K,8,1,68.24789543116572,50.80757636154071,2.06685454548775,53.19295311186872,2,n,0.9338796000001821,correct,n
8,2F4K,9,2,39.929138111182006,53.293442790057625,1.1470069581950444,55.34674766447174,2,b,0.7334362999999939,correct,b
9,2F4K,10,1,39.153677885870735,20.98304178412645,1.128659519352922,27.69622032161092,2,c,0.8126462000000174,incorrect,n
10,2F4K,11,2,30.06036425372545,45.60447243177817,0.9342049066428132,48.59459754088974,2,b,0.7455412999997861,correct,b
11,2F4K,12,2,52.191241977282886,63.92612376880038,1.4801437126953056,63.98320887731638,2,b,1.073205799999414,correct,b
12,2F4K,13,2,36.17680592958013,53.19749852071919,1.0609114003966944,55.26431994800414,2,b,0.8365661999996519,correct,b
13,2F4K,14,1,38.95563368090821,42.75873261301055,1.1240210162471518,46.05354995657802,1,n,1.7664045000001352,incorrect,c
14,2F4K,15,1,49.88548784633959,65.69047137019257,1.410850024478438,65.29473847966074,1,n,0.9280128000000332,incorrect,c
15,2F4K,16,1,46.12549597757696,28.300174456999788,1.3047422922933831,33.460875822094245,2,c,1.1764106000000538,incorrect,n
16,2F4K,17,1,57.23817842146432,43.29201569491995,1.643925993064847,46.53014399383418,2,n,1.310028500000044,correct,n
17,2F4K,18,2,33.90040853904576,47.39555822994608,1.0118617970909352,50.18749269726434,2,b,0.7758856999998898,correct,b
18,2F4K,19,2,59.53187975747129,50.14912503152511,1.72423497207242,52.6167963966162,1,b,0.8122913999995944,incorrect,v
19,2F4K,20,1,54.67274208043118,40.47889338607836,1.558526042769354,44.01747185528205,2,n,0.9835576000004949,correct,n
20,2F4K,21,1,40.48601885431387,55.52587266523817,1.1603665122720348,57.24628855530534,1,c,0.6596866999998383,correct,c
21,2F4K,22,2,75.80861759886449,56.41091792717253,2.4187447468872936,57.98870259444863,1,b,0.643648100000064,incorrect,v
22,2F4K,23,1,60.45649048320117,49.06961443201014,1.757707137951126,51.66790267235477,2,n,1.4981572999995478,correct,n
23,2F4K,24,1,31.68698260917791,40.301887220788615,0.966344482805502,43.859626753201056,1,c,0.6619124999997439,correct,c
24,2F4K,25,1,57.43650467504232,34.11026758637152,1.6507196721205513,38.39611302330561,2,n,1.2020520999994915,correct,n
25,2F4K,26,1,32.90686829059086,50.225547954567446,0.9911711142833914,52.68377524498987,1,c,0.6128195000001142,correct,c
26,2F4K,27,2,51.16249151486947,30.29806175496297,1.448816363088225,35.12913537675513,1,b,0.8304671999994753,incorrect,v
27,2F4K,28,2,65.82114684292038,45.60849912637237,1.965143145207511,48.59818643034442,1,b,1.3947382000005746,incorrect,v
28,2F4K,29,1,48.20087046452956,34.826177741018114,1.362282692825295,39.01972924834542,2,c,1.299135700000079,incorrect,n
29,2F4K,30,1,40.52126498918946,53.52505479037711,1.1612172830474867,55.5454774907828,1,c,1.0236153000005288,correct,c
30,2F4K,31,1,23.22088753449931,37.66454960196426,0.8103553702535936,41.5158617024967,1,c,0.6668494999994437,correct,c
31,2F4K,32,2,50.36750251184319,38.60223909722052,1.4250623828171531,42.34711834831376,1,b,0.8174433000003773,incorrect,v
32,2F4K,33,1,62.71361002021794,40.50641987630152,1.8421726783788437,44.04202299258915,2,n,1.4567790999999488,correct,n
33,2F4K,34,2,67.73400634160711,56.895353676222655,2.0448856788135523,58.39226596639842,1,v,0.9033390000004147,correct,v
34,2F4K,35,1,35.84387408052266,26.382754916664958,1.0535919460710244,31.89397439784561,2,c,0.8355180999997174,incorrect,n
35,2F4K,36,2,64.77975879641308,43.51519986298406,1.9230453215019656,46.72958516443117,1,b,1.2128474999999526,incorrect,v
36,2F4K,37,1,38.14104780589198,49.450406562132464,1.1051417551524811,52.00319244280118,1,c,0.9758732999998756,correct,c
37,2F4K,38,2,67.24126044844405,61.83548309860832,2.024040016755705,62.37800864729903,1,b,0.9301070000001346,incorrect,v
38,2F4K,39,2,79.64023840165052,63.76799585602643,2.619346922964121,63.86368485528824,1,b,0.9093746999997165,incorrect,v
39,2F4K,40,2,45.48706474699844,56.850661970692975,1.2875352603752186,58.3551207489221,2,b,1.0794271999993725,correct,b
40,2F4K,41,2,48.90210062638617,35.56227522442224,1.382292585543807,39.66367532375605,1,b,3.2888135000002876,incorrect,v
41,2F4K,42,2,45.749760852129896,27.678973048051,1.2945878109959552,32.94936379315097,1,v,1.5953576000001704,correct,v
42,2F4K,43,1,50.712020869238586,71.29779488615415,1.4353082693973425,69.16825304857576,1,n,1.2492573999998058,incorrect,c
43,2F4K,44,1,57.35285438087109,45.088510918760456,1.6478508088436568,48.13451119027364,2,n,1.1996017000001302,correct,n
44,2F4K,45,1,59.533083469650656,54.11657473602621,1.7242781310606858,56.05135013966204,2,n,0.8433873000003587,correct,n
45,2F4K,46,2,30.55769969286506,49.50078524381964,0.9439163972773118,52.04750595646358,2,v,1.5526998000004824,incorrect,b
46,2F4K,47,2,59.43036853519064,47.14342241824328,1.7205991808726393,49.96373915089171,1,v,0.5271357999999964,correct,v
47,2F4K,48,2,47.626559382151605,57.0938581132313,1.3461104423270145,58.55703812059014,2,v,0.6376467999998567,incorrect,b
48,2F4K,49,1,64.40385915047159,49.6426971101403,1.9080722154151568,52.17227437092924,2,n,0.9031492000003709,correct,n
49,2F4K,50,1,41.97310674598153,52.71080321863779,1.1968092264199357,54.84526850530754,1,c,0.6801384000000326,correct,c
50,2F4K,51,2,55.071450920475904,43.42480934458609,1.5715013675682468,46.648812805228864,1,b,1.9350422999996226,incorrect,v
51,2F4K,52,1,74.43791196180274,57.47816781048208,2.350776463382791,58.87503684619018,2,n,0.9518375999996351,correct,n
52,2F4K,53,2,46.222164791719536,42.220136744799845,1.307367685898584,45.57222657549807,1,v,0.6937023000000409,correct,v
53,2F4K,54,2,44.52479491360322,59.08070871927372,1.2620279373322634,60.18610910552584,2,v,0.709120499999699,incorrect,b
54,2F4K,55,2,50.800755619097245,65.78467935561414,1.4379591268285734,65.36359792076918,2,v,1.0431469000004654,incorrect,b
55,2F4K,56,2,43.38771098193814,51.6399758904363,1.2325373189983366,53.918136587647695,2,b,0.7628974999997808,correct,b
56,2F4K,57,2,28.403544007052226,43.69003852907112,0.9025672402051405,46.88580954158838,2,v,0.5951718999995137,incorrect,b
57,2F4K,58,1,34.597747260210646,54.11720883391114,1.026641452183516,56.051891106880646,1,c,0.716460200000256,correct,c
58,2F4K,59,2,23.862708631209887,38.05575137007616,0.8212431055290595,41.86233298604688,2,b,1.1389805999997407,correct,b
59,2F4K,60,2,20.10261031748547,37.205457854364994,0.7594770682235864,41.10991816296111,2,b,0.6671039000002565,correct,b
60,2F4K,61,1,66.24396323546138,47.667351549294914,1.9824972944573136,50.42848249992692,2,n,0.6923452999999427,correct,n
61,2F4K,62,1,45.76845243212141,52.29036179794871,1.295091089807611,54.482062739708944,1,n,1.1449859000003926,incorrect,c
62,2F4K,63,1,60.55063563574637,68.72809826037971,1.7611515600956331,67.45173363257425,1,n,1.285814400000163,incorrect,c
63,2F4K,64,1,56.99068004053693,74.51384122148394,1.6354871239104976,71.16494351104325,1,n,0.7808531000000585,incorrect,c
64,2F4K,65,2,56.5772299626846,35.07553102517692,1.6214863724047357,39.23756676657854,1,v,1.4642332999992504,correct,v
65,2F4K,66,2,38.63113482300534,57.27693623439431,1.116461919819817,58.708693493903496,2,b,0.7202949999991688,correct,b
66,2F4K,67,1,48.326189179363794,34.46272422683217,1.3658373349287305,38.70278780627196,2,n,1.0307862999998179,correct,n
67,2F4K,68,1,72.08394018589418,59.01369072223282,2.2384781027560443,60.13178282936121,2,n,0.6365121999997427,correct,n
68,2F4K,69,2,55.93747055095716,47.488620818259164,1.6000579053611517,50.27003306023021,1,v,1.0989974000003713,correct,v
69,2F4K,70,1,61.08835062182162,75.49202111422329,1.780954327000436,71.73702763227307,1,n,0.6545392999996693,incorrect,c
70,2F4K,71,2,57.85069552240914,42.93950805327433,1.664998486268169,46.21511148449711,1,b,0.8110974999999598,incorrect,v
71,2F4K,72,1,49.69151881888417,38.54810373411236,1.4051708607288205,42.29905700324165,2,n,1.4812344000001758,correct,n
72,2F4K,73,2,52.34594741571187,66.45604518749823,1.4849130159010293,65.8507753945407,2,v,0.6473270000005868,incorrect,b
73,2F4K,74,2,42.20598724996729,36.25594288467735,1.2026189672785377,40.272827133662176,1,v,1.1581912000001466,correct,v
74,2F4K,75,2,34.59412105871031,44.88788274484132,1.0265640414699515,47.95550127102955,2,v,0.751089200000024,incorrect,b
75,2F4K,76,1,75.06488285875469,54.9823647288216,2.3816253548840494,56.78723939172101,2,n,1.7591560000000754,correct,n
76,2F4K,77,2,49.80610054412643,65.76593183565713,1.4085228969186705,65.34990446994986,2,v,0.9578609000000142,incorrect,b
77,2F4K,78,1,54.46107909326245,74.33262174157551,1.5516814077120684,71.05711583571141,1,n,1.6437547000004997,incorrect,c
78,2F4K,79,1,53.87151186422612,66.04587529948707,1.5327743841237431,65.55387693579512,1,c,0.9774967000003016,correct,c
79,2F4K,80,1,69.61191451282278,53.52184950666818,2.126318090101158,55.54272972866291,2,c,0.6848653000006379,incorrect,n
80,2F4K,81,2,54.35969241483012,64.0145032619617,1.5484134799987126,64.0498735010812,2,v,4.030006500000127,incorrect,b
81,2F4K,82,2,58.15808318138491,51.85493375552347,1.6756751537993353,54.10478986049384,1,b,0.8127232999995613,incorrect,v
82,2F4K,83,2,65.19943720765865,53.19287561782086,1.9399011180086208,55.26034678233189,1,v,0.7395028000000821,correct,v
83,2F4K,84,2,41.4021063739384,50.54035821522432,1.182682801579903,52.959388378851095,2,b,0.7832831999994596,correct,b
84,2F4K,85,1,43.43311933477976,60.8264769612676,1.2337016798558686,61.58480109514413,1,c,0.7577305999993769,correct,c
85,2F4K,86,1,44.69279924765694,52.84112494950437,1.266444607890278,54.95762607789505,1,c,0.7394758000000365,correct,c
86,2F4K,87,2,49.412713105608034,63.31337912963386,1.3970478094470562,63.5182975107086,2,v,1.4812313000002177,incorrect,b
87,2F4K,88,2,51.17159587576181,37.07430785094738,1.4490906787687563,40.99408914316723,1,b,0.9761508000001413,incorrect,v
88,2F4K,89,1,43.90743192794943,55.732781438461,1.2459299499420136,57.42042895467404,1,n,1.7408649999997579,incorrect,c
89,2F4K,90,1,42.67559371188764,51.940628549592766,1.2144202995752644,54.17912710829937,1,c,0.8670657000002393,correct,c
90,2F4K,91,2,54.51572854187648,39.73530400469152,1.553445745951468,43.35474169844614,1,b,0.8986126999998305,incorrect,v
91,2F4K,92,2,63.045536550472,49.56716364885401,1.8549317383432469,52.105876420164,1,v,0.5027771000004577,correct,v
92,2F4K,93,1,61.83335806026312,43.34827918417324,1.8087596851537,46.58042360716147,2,n,0.5783478000003015,correct,n
93,2F4K,94,1,45.902000004462025,36.92266005103602,1.2986926128346443,40.86023671182138,2,c,0.9033772999991925,incorrect,n
94,2F4K,95,2,37.53646480551254,45.02721249944956,1.09133493934401,48.07982376102977,2,v,0.8562117999999828,incorrect,b
95,2F4K,96,2,46.56941095279609,51.863127759730375,1.316842066595106,54.111899704385,2,b,0.987243500000659,correct,b
96,2F4K,97,1,44.528169640175896,53.595565889175816,1.2621165038387734,55.60590619066927,1,c,1.4559386999999333,correct,c
97,2F4K,98,1,36.75782029613241,23.261950114619463,1.0738069211868062,29.425866653901043,2,c,0.7225539000000936,incorrect,n
98,2F4K,99,2,45.226377149738965,39.07780815488193,1.28057461310702,42.76966230400485,1,b,1.5905340999997861,incorrect,v
99,2F4K,100,2,48.35477404899044,60.99639220094582,1.366649437697908,61.71918111190541,2,b,1.0477830999998332,correct,b
100,2F4K,101,1,70.2114472627604,51.03337344957537,2.1529926850965317,53.39003049783105,2,n,2.9680919000002177,correct,n
101,2F4K,102,2,23.392926564329017,33.78787977282745,0.8132595686436005,38.116208676297184,2,v,0.8551256000000649,incorrect,b
102,2F4K,103,2,38.166106249490205,51.27770775450987,1.105717767710578,53.60298657280401,2,b,0.6619318999992174,correct,b
103,2F4K,104,2,26.5137651791604,39.33012672923334,0.8677870459747371,42.994075962595375,2,b,0.5998546999999235,correct,b
104,2F4K,105,1,60.97751425583223,54.38479393886679,1.7768543502319394,56.27991738800131,2,c,0.9579469999998764,incorrect,n
105,2F4K,106,2,37.76676832194661,21.251254796600264,1.0965739065914877,27.89635876591441,1,v,1.2613748999992822,correct,v
106,2F4K,107,2,63.99374257525861,45.47007245789131,1.8918691083921948,48.47479406322744,1,b,0.625489999999445,incorrect,v
107,2F4K,108,2,65.71784708450646,46.20338156672559,1.9609264340701869,49.12805096108369,1,v,1.091435499999534,correct,v
108,2F4K,109,1,49.51265507596933,55.10490622853596,1.3999542219485324,56.89093976106022,1,n,2.664452299999539,incorrect,c
109,2F4K,110,2,46.45953047523784,34.42241665323114,1.31383664861441,38.66768163548437,1,b,1.646034100000179,incorrect,v
110,2F4K,111,1,65.63975830742025,48.591344708019776,1.9577448450432853,51.24596752167315,2,n,1.8259513999992123,correct,n
111,2F4K,112,1,61.08055038409136,49.86681213641069,1.7806654771708217,52.3691361668795,2,n,0.826771899999585,correct,n
112,2F4K,113,1,64.85506071043662,50.58649374157429,1.9260588986712643,52.99973904218096,2,n,0.7758791999995083,correct,n
113,2F4K,114,2,55.69130234438376,36.72952383417266,1.5918882583683631,40.689891703905616,1,b,1.4924662000003082,incorrect,v
114,2F4K,115,1,35.79182626772595,50.86639624985269,1.0524522563176733,53.24431684065904,1,c,5.0,incorrect,c
115,2F4K,116,1,68.19743557684106,57.379643078582895,2.064686967193344,58.79363973272007,2,n,0.824407500000234,correct,n
116,2F4K,117,1,29.113051817302782,46.13725341587726,0.9159822547675412,49.06918557094848,1,c,0.7639643000002252,correct,c
117,2F4K,118,1,39.59817748700413,56.47631937226029,1.1391402051633686,58.04330417362873,1,c,0.6264887999996063,correct,c
118,2F4K,119,1,34.00938116237943,46.992611557076,1.014157298028301,49.82982009127819,1,c,1.3584797999992588,correct,c
119,2F4K,120,2,61.73439106481858,73.96043669894618,1.8050411562022384,70.83387396649663,2,b,1.3598928000001251,correct,b
120,2F4K,121,1,61.78809290184127,37.16344183960383,1.8070579684825363,41.07280359672052,2,n,2.245743799999218,correct,n
121,2F4K,122,2,29.85820657850569,51.61753995877684,0.9302859849888102,53.89863985672505,2,b,1.7711987999991834,correct,b
122,2F4K,123,1,60.25227026502718,45.13113648299949,1.750258615208636,48.17253643636524,2,n,1.1946600999999646,correct,n
123,2F4K,124,2,53.19782259810731,41.52277027241124,1.5114514915693371,44.94920780823915,1,v,1.0616651000000275,correct,v
124,2F4K,125,2,52.8958427809462,35.503350364564646,1.501990078882322,39.6120305629541,1,v,0.7455098999998881,correct,v
125,2F4K,126,1,48.38312657164775,38.75136238427089,1.367455416425721,42.479551166102965,2,n,0.7091215999998894,correct,n
126,2F4K,127,2,53.66428821588994,69.92919315886641,1.5261837243460872,68.26691658227413,2,v,0.9595909999998185,incorrect,b
127,2F4K,128,2,59.23061540781894,50.453791118781865,1.713467065630497,52.883647574241714,1,b,0.6115040000004228,incorrect,v
128,2F4K,129,2,51.85342618532157,67.55063516264951,1.4697826082671073,66.63144294112887,2,v,0.6377075000000332,incorrect,b
129,2F4K,130,1,46.89549843956348,30.33543059654193,1.325801649753631,35.16065532095662,2,n,0.9273595999993631,correct,n
130,2F4K,131,1,36.52774362659399,53.89180246500715,1.0686817661041397,55.859410629134565,1,n,1.2117251999998189,incorrect,c
131,2F4K,132,1,55.61734352676999,37.050219023309104,1.5894419266847997,40.97282128976212,2,n,0.7030582000006689,correct,n
132,2F4K,133,1,36.60997964518358,50.05475393918918,1.0705108287349157,52.53404970046883,1,c,0.49806609999996,correct,c
133,2F4K,134,2,53.23170150136632,35.56100064984595,1.5125166721973058,39.66255804910013,1,b,0.7748374000002514,incorrect,v
134,2F4K,135,1,52.10767747131593,43.93291246274029,1.4775739372575547,47.10279773975424,2,n,0.976164400000016,correct,n
135,2F4K,136,2,58.53030412650951,41.7510835154492,1.6886953995860403,45.15314461456276,1,v,0.6194107000001168,correct,v
136,2F4K,137,1,60.35165093569282,45.156843754235936,1.7538793747913424,48.19546799174178,2,n,0.7636537999997017,correct,n
137,2F4K,138,1,50.027879197745925,62.05487106577273,1.4150336643883752,62.54892795738888,1,c,1.1703534999996918,correct,c
138,2F4K,139,1,51.48761346476439,70.48629477665749,1.458644591655844,68.63741034484856,1,c,0.6802004000001034,correct,c
139,2F4K,140,1,48.453443262115904,61.14605718830378,1.3694563647080302,61.837278912319086,1,c,0.6726830999996309,correct,c
140,2F4K,141,2,68.54892582579359,49.05456899261187,2.079833119400111,51.654642955119314,1,v,0.6592550000004849,correct,v
141,2F4K,142,2,60.905676468053045,79.65434184340342,1.774202022684109,73.97779420168018,2,v,0.6687839999995049,incorrect,b
142,2F4K,143,1,36.899947854928485,55.46012437529387,1.0769852083890517,57.190880954523,1,c,0.8123256999997466,correct,c
143,2F4K,144,2,38.65241535871249,32.83677432568386,1.1169560817467177,37.29402349275705,1,b,0.7458743000006507,incorrect,v
144,2F4K,145,2,31.175779451870184,46.65560717101555,0.9561264816553172,49.53034658543611,2,v,0.884194899999784,incorrect,b
145,2F4K,146,2,30.34307676945679,48.75194802511032,0.9397131243187264,51.38775116956676,2,b,0.8659962000001542,correct,b
146,2F4K,147,1,58.48666347846488,47.03654554897173,1.6871636344347154,49.86883954443417,2,n,1.3166035999993255,correct,n
147,2F4K,148,1,38.49987720717989,55.28184757978156,1.1134187752160876,57.04047037062232,1,c,0.7407073000003948,correct,c
148,2F4K,149,2,51.70986349328835,39.1462191318486,1.465401405790697,42.83049254162135,1,b,0.8305602999998882,incorrect,v
149,2F4K,150,2,45.929570506984206,29.71336911180859,1.2994373829933823,34.63742009661573,1,v,0.643688199999815,correct,v
150,2F4K,151,1,50.997292015155935,40.5350280304431,1.443847888769992,44.06754009453459,2,n,0.6306180000001405,correct,n
151,2F4K,152,1,58.60733129942749,47.60638197187237,1.6914024095435911,50.37444232089103,2,n,0.7152244999997492,correct,n
152,2F4K,153,1,51.30604916190837,38.49418225911436,1.453147827776025,42.25119363691044,2,n,0.8500856000000567,correct,n
153,2F4K,154,2,50.726703026728245,62.83748587683731,1.435746545790855,63.15399560690494,2,v,0.8365110999993703,incorrect,b
154,2F4K,155,1,23.90748235907251,46.65795077598543,0.8220080746363617,49.53243018104428,1,c,0.6195125000003827,correct,c
155,2F4K,156,1,75.51056751297342,58.88570142235572,2.403800264722026,60.02790659588251,2,n,0.7421001000002434,correct,n
156,2F4K,157,1,65.52888140666666,54.26941595585311,1.953236228295493,56.18165994757032,2,n,0.6789273000003959,correct,n
157,2F4K,158,2,53.9362517720181,38.81859983593577,1.5348392383108955,42.53928251164607,1,v,1.115927400000146,correct,v
158,2F4K,159,2,59.60074263866284,37.09721602268135,1.7267057820059597,41.0143166057039,1,v,0.8258020000002944,correct,v
159,2F4K,160,2,37.77965223015644,48.90919755189407,1.0968677327270318,51.52647933754491,2,b,0.8972437000002174,correct,b
160,2F4K,161,2,43.5746838473265,53.65858405309312,1.237338741433641,55.65988466785742,2,v,3.337978800000201,incorrect,b
161,2F4K,162,2,50.2489809945369,35.680585281332576,1.421554518985391,39.76741721635876,1,b,0.8608252000003631,incorrect,v
162,2F4K,163,2,66.46854225835784,58.12472699165608,1.991777187634852,59.40696592753893,1,v,0.5395172999997158,correct,v
163,2F4K,164,1,46.91664871030663,56.27106765722599,1.3263848755280707,57.87182389114651,1,c,1.0201561000003494,correct,c
164,2F4K,165,2,64.98310119608925,51.714826671946,1.931193915613836,53.983161130872645,1,v,1.0067876000002798,correct,v
165,2F4K,166,2,46.07220764334069,29.773434253431592,1.3032973084147643,34.68780525521899,1,b,0.7868963000000804,incorrect,v
166,2F4K,167,1,55.85026144762816,70.82969925981966,1.5971588900575606,68.86333744927504,1,c,1.2375360999994882,correct,c
167,2F4K,168,2,63.85547619984732,77.56219488391969,1.886437478190742,72.8913190265798,2,v,0.8925515999999334,incorrect,b
168,2F4K,169,2,34.21443141168062,48.04230416266429,1.0184907956323823,50.760561865706805,2,b,1.1935459000005721,correct,b
169,2F4K,170,2,57.18667100043884,45.04059105966952,1.6421661812663677,48.09175990749908,1,b,0.9096937999993315,incorrect,v
170,2F4K,171,2,67.21656722255048,56.71936661056867,2.0230009770512027,58.24589413609037,1,v,0.9714585000001534,correct,v
171,2F4K,172,1,44.4984710377266,56.70741188414117,1.2613373053910046,58.23594133798043,1,n,0.8840086999998675,incorrect,c
172,2F4K,173,1,43.21835974424732,53.29149612403864,1.2282044985135423,55.34507584870777,1,c,0.9702582999998413,correct,c
173,2F4K,174,1,32.530960625540885,38.14850365023178,0.98345355014417,41.944550680290725,1,n,1.0307312000004458,incorrect,c
174,2F4K,175,1,52.686396552026345,70.51183875725945,1.4954626684029402,68.65428049511293,1,n,0.6862097000002905,incorrect,c
175,2F4K,176,1,58.22745345025471,43.05188296991516,1.6780940832344935,46.31554187822696,2,n,0.7455306000001656,correct,n
176,2F4K,177,1,67.46616113190923,60.695567122873385,2.033527969415979,61.481050891871206,2,n,0.8790555999994467,correct,n
177,2F4K,178,1,42.95205132697994,60.39920114631644,1.2214218338560805,61.24547687554797,1,c,0.8308737000006658,correct,c
178,2F4K,179,1,48.59413510881925,31.60077412182836,1.373468719113026,36.23426437189441,2,n,0.8001552000005177,correct,n
179,2F4K,180,1,48.64629140174178,34.561503773987056,1.3749591359041906,38.78885736115069,2,n,0.8733664000001227,correct,n
180,2F4K,181,2,56.12925434280043,38.7498164877373,1.6064517281403,42.47817798689838,1,v,1.0920434999998179,correct,v
181,2F4K,182,2,51.333806957222734,43.09022313885215,1.453986837176351,46.349806487304704,1,v,0.7662460000001374,correct,v
182,2F4K,183,1,59.846826704132624,42.87287661688654,1.7355642823458577,46.15556204182596,2,c,1.0004643000002034,incorrect,n
183,2F4K,184,1,41.81081926855517,54.95889322294828,1.1927771935941822,56.76736352475473,1,c,0.7165397999997367,correct,c
184,2F4K,185,2,46.198580900803165,25.557310873150115,1.306726692684287,31.23077222769837,1,v,1.4024377999994613,correct,v
185,2F4K,186,1,36.59449738268669,50.455467655184506,1.0701662390289286,52.88511478663189,1,c,0.7141921000002185,correct,c
186,2F4K,187,1,40.10597644559637,51.28276093753057,1.1512325538119372,53.6073874472804,1,c,0.7904076000004352,correct,c
187,2F4K,188,2,57.0159700381324,41.9536604098824,1.6363474376005835,45.33412430269246,1,b,0.87903869999991,incorrect,v
188,2F4K,189,1,52.91308704927172,43.20334581807674,1.50252876578901,46.450902797977264,2,n,0.7286941000002116,correct,n
189,2F4K,190,2,53.06666427814591,73.42140633395417,1.5073348346922335,70.50632524263034,2,b,0.7336471999997229,correct,b
190,2F4K,191,1,54.84503180632248,45.01712694778109,1.564119732294203,48.07082542047352,2,n,0.848714600000676,correct,n
191,2F4K,192,1,56.56602289493768,37.64857347835342,1.621108538077558,41.50172291822922,2,n,0.866888999999901,correct,n
192,2F4K,193,2,44.98470817243975,57.84467023335262,1.274155401080452,59.17704128866727,2,v,0.9264143999998851,incorrect,b
193,2F4K,194,2,71.84704265772055,55.03713075284844,2.2274781496025158,56.83359927269209,1,v,0.6063876999996864,correct,v
194,2F4K,195,2,51.80191179192032,35.11543431586755,1.4682090029287664,39.27245569783692,1,v,1.1026396999995995,correct,v
195,2F4K,196,2,60.43581383802059,76.90559687372411,1.756951558834004,72.5336270813976,2,b,0.6605470000004061,correct,b
196,2F4K,197,2,70.74253964399759,49.94615267765327,2.176901589163516,52.43877483032069,1,b,0.903710399999909,incorrect,v
197,2F4K,198,2,58.9761706355431,46.95541799619783,1.7044250014882132,49.79678304847742,1,v,0.7507731000005151,correct,v
198,2F4K,199,2,47.832134047395584,57.205209641179,1.3518771188878125,58.64931364829799,2,b,0.7811835000002247,correct,b
199,2F4K,200,1,39.406815585171614,20.805190714258227,1.1346162782921234,27.56403074329791,2,c,1.2142111999992267,incorrect,n
200,2F4K,201,2,45.39963074298971,55.01533518233664,1.2851964690713884,56.81515190862888,2,b,2.6704744999997274,correct,b
201,2F4K,202,1,56.00160846941853,64.73077042070351,1.60219334313424,64.58643586540971,1,c,1.431464600000254,correct,c
202,2F4K,203,1,64.71524021169462,57.04723808393817,1.920467043342997,58.51837178528635,2,n,0.7408197000004293,correct,n
203,2F4K,204,2,58.92726750134093,71.74660331949718,1.7026926320844615,69.45726879371732,2,b,1.0247325999998793,correct,b
204,2F4K,205,1,36.68581097718846,47.88396987528486,1.072200214858772,50.62038729518448,1,c,0.8790802000003168,correct,c
205,2F4K,206,2,30.425916007826917,45.88444249473366,0.941333263091548,48.84405682069156,2,b,1.0867986999992354,correct,b
206,2F4K,207,1,43.42357183661597,52.77566385355183,1.2334567716454656,54.90120185995247,1,c,0.9033356999998432,correct,c
207,2F4K,208,1,58.45731951291607,43.07434034566101,1.6861344570572463,46.33561205976253,2,n,0.8975197999998272,correct,n
208,2F4K,209,2,69.49652961889666,56.592881657104,2.121222400160787,58.14052735061312,1,b,1.0066425999993953,incorrect,v
209,2F4K,210,1,24.01181767551954,35.37275759743791,0.8237934327563277,39.49763091134725,1,c,0.7664879000003566,correct,c
210,2F4K,211,1,55.022003736536114,70.89986887916594,1.5698863405763015,68.90927039291459,1,n,0.976173099999869,incorrect,c
211,2F4K,212,2,68.97532835438405,52.16798752955162,2.098356566047016,54.37614565455803,1,v,0.9275847999997495,correct,v
212,2F4K,213,2,51.67273043172678,65.68909644848127,1.464270317736987,65.29373261035279,2,b,0.8122831000000588,correct,b
213,2F4K,214,2,55.24621941954111,40.83297611762026,1.5772229219867786,44.33336561799059,1,v,1.080650599999899,correct,v
214,2F4K,215,2,43.85907763342162,34.36531791133432,1.2446777978894457,38.61796608677001,1,b,0.6369803999996293,incorrect,v
215,2F4K,216,2,46.82867763184832,33.871900556337046,1.323960728122546,38.189100266931405,1,v,0.8730190000005678,correct,v
216,2F4K,217,2,57.43168054819016,69.17850249322923,1.6505540886507504,67.7600177995555,2,v,1.3888119000002916,incorrect,b
217,2F4K,218,2,62.81301687259793,49.12221527640136,1.8459845855777308,51.71425328018104,1,v,0.9047256000003472,correct,v
218,2F4K,219,2,40.73818795221392,30.903917827620106,1.1664671174894732,35.64150768789691,1,b,0.7944655000001148,incorrect,v
219,2F4K,220,1,63.08421116002709,56.54858043751335,1.856424103947027,58.103590016329306,2,n,1.0855985999996847,correct,n
220,2F4K,221,2,69.72576130085162,53.0416586539157,2.131357850655539,55.13030584769108,1,v,1.1233737000002293,correct,v
221,2F4K,222,2,59.39044186462047,42.164282151214806,1.719171243206214,45.52231647927373,1,v,0.6727155999997194,correct,v
222,2F4K,223,2,50.52087740029059,40.14077992649353,1.429614648413914,43.71600428574381,1,b,0.7332962000000407,incorrect,v
223,2F4K,224,2,28.079553265851285,39.79378737890205,0.896506903708823,43.40682858384698,2,b,0.6194367999996757,correct,b
224,2F4K,225,2,52.26301051078077,38.59980637795521,1.4823543056423163,42.34495840831406,1,v,0.885118400000465,correct,v
225,2F4K,226,1,38.186208000539295,29.765710978520445,1.1061800589524902,34.681324978844444,2,c,0.8500684000000547,incorrect,n
226,2F4K,227,1,42.544493554968085,65.77366029042587,1.211114114937421,65.35555002433354,1,c,0.7636989000002359,correct,c
227,2F4K,228,2,47.05565882008649,33.650050864339654,1.330224515529747,37.99672496196112,1,b,1.0793401999999332,incorrect,v
228,2F4K,229,1,53.26895588871899,74.3972588280789,1.5136888474367407,71.09564124026598,1,n,1.3341969999992216,incorrect,c
229,2F4K,230,1,65.22008603086013,49.85963582440736,1.9407342520060635,52.36283598404169,2,n,0.5526624000003721,correct,n
230,2F4K,231,2,46.579046222952535,58.8122340392211,1.3171059352552004,59.96820649788999,2,b,1.528417200000149,correct,b
231,2F4K,232,2,27.45098721964013,40.18084094999712,0.8848652117210847,43.75171337713552,2,b,0.9820804999999382,correct,b
232,2F4K,233,1,72.4346530796434,52.656205746250265,2.2548627044349407,54.79816523272619,2,n,0.6848644000001514,correct,n
233,2F4K,234,1,41.82508393642623,62.29165197090153,1.1931310541209428,62.73276293386405,1,c,1.1096655999999712,correct,c
234,2F4K,235,2,45.17085219283102,55.79810510988038,1.2790969033606807,57.47533527691876,2,v,1.4144479999995383,incorrect,b
235,2F4K,236,1,48.94059764176923,54.656352822775474,1.383399585485057,56.51079503194639,1,n,1.0489526999999725,incorrect,c
236,2F4K,237,2,40.32492869707282,54.456858799062296,1.1564860477563736,56.341239500443685,2,b,1.8392441999994844,correct,b
237,2F4K,238,1,46.2574849166554,37.01779279681158,1.3083282496400472,40.9441958293988,2,c,1.1693107999999484,incorrect,n
238,2F4K,239,2,45.481372017528685,27.2290710344046,1.287382854858416,32.58118084150003,1,v,1.6208308999994188,correct,v
239,2F4K,240,1,51.61811615207702,64.41540192231305,1.462608330823927,64.35101128922902,1,c,2.341975399999683,correct,c
240,2F4K,241,1,49.9813359551932,40.908856615071365,1.4136648014118578,44.4010844548182,2,c,3.3572901000006823,incorrect,n
241,2F4K,242,1,38.365088258165,52.603367537585086,1.1103023905943752,54.75256201761552,1,c,4.418589800000518,correct,c
242,2F4K,243,2,74.86103441570475,62.58347526318361,2.371551227979229,62.95841553592514,1,b,0.794346200000291,incorrect,v
243,2F4K,244,2,25.262559105791077,37.85228201238463,0.8455000664738876,41.68206708880008,2,b,0.6133626000000731,correct,b
244,2F4K,245,1,51.30494003058636,33.53992441809938,1.4531143131425197,37.90133663609151,2,n,1.5758857000000717,correct,n
245,2F4K,246,2,39.907948790063145,48.473475774001656,1.1465016758369742,51.14184993065691,2,v,1.5102501000001212,incorrect,b
246,2F4K,247,1,46.93551071478724,59.78669635006667,1.3269052180215244,60.75561248684247,1,n,0.853601400000116,incorrect,c
247,2F4K,248,1,46.78283784043786,58.55260274871953,1.322699314604773,59.75680033579543,1,n,0.8183808999992834,incorrect,c
248,2F4K,249,2,44.9595595341408,54.6676417288693,1.2734892541401177,56.52038094348514,2,v,1.1281834000001254,incorrect,b
249,2F4K,250,1,63.34019395419092,46.46831036971778,1.86633221988934,49.3637864854076,2,n,0.6738505000002988,correct,n
250,2F4K,251,1,48.063398049287066,64.20322029554632,1.3583939527493598,64.19188776484826,1,n,1.0002784000007523,incorrect,c
251,2F4K,252,2,50.1991904897348,33.30747326399191,1.42008345366174,37.7002319327802,1,v,1.0186438999999154,correct,v
252,2F4K,253,2,52.15436464907461,42.4437928560435,1.4790091107027177,45.77209112936868,1,v,0.6620429000004151,correct,v
253,2F4K,254,1,40.99632735853379,57.67170793097593,1.1727453827399192,59.03467242884965,1,c,0.6972359999999753,correct,c
254,2F4K,255,1,53.131666905193775,40.64512270936217,1.5093736641958837,44.1657505823388,2,n,0.946057799999835,correct,n
255,2F4K,256,2,28.565496195551724,43.26683067746653,0.9056119408227394,46.50763722159081,2,b,0.9518740000003163,correct,b
256,2F4K,257,2,38.89011515753414,26.58844061078681,1.1224906709397784,32.06032979967121,1,v,1.0612036000002263,correct,v
257,2F4K,258,1,32.71508096729355,40.69946372352069,0.9872260913489213,44.214232179571226,1,n,1.686222799999996,incorrect,c
258,2F4K,259,1,34.719118321177255,51.24006096134958,1.0292358037017626,53.57019523001037,1,c,0.7151851999997234,correct,c
259,2F4K,260,2,46.87599080181221,25.89990548801333,1.3252639474830454,31.505162786539668,1,v,1.0246901000000435,correct,v
260,2F4K,261,1,43.81547831303246,59.18732396267775,1.243549856527614,60.2724403449654,1,n,0.952678399999968,incorrect,c
261,2F4K,262,2,51.12735554595818,56.69913630505937,1.447758198199014,58.22905085170129,2,b,1.115714200000184,correct,b
262,2F4K,263,1,37.78339432128536,47.97216666171845,1.0969530883690377,50.69847876443876,1,c,0.7567246999997224,correct,c
263,2F4K,264,1,33.009340792421625,48.25180966347626,0.9932854088015052,50.94590969783479,1,c,0.9835813999998209,correct,c
264,2F4K,265,1,46.71089484285987,25.7443055618876,1.3207220191914355,31.38038563209457,2,c,1.07932559999972,incorrect,n
265,2F4K,266,2,38.94428411225406,53.12642795597777,1.123755769995035,55.2032226723955,2,v,0.7226192999996783,incorrect,b
266,2F4K,267,2,55.387330101874426,40.3464525566872,1.5818577862699377,43.89936312771778,1,v,0.8621270000003278,correct,v
267,2F4K,268,1,46.31937694646203,58.57402506180454,1.3100131633378231,59.77426867056932,1,c,0.7346489000001384,correct,c
268,2F4K,269,1,54.93115596598919,38.88884931497884,1.5669234265735354,42.60170220258763,2,n,0.8382000000001426,correct,n
269,2F4K,270,1,63.1815765243405,49.115906281107705,1.8601865313621748,51.70869453016119,2,n,0.6907627999999022,correct,n
270,2F4K,271,2,64.01273533882208,57.54651528767258,1.892616437206034,58.93145055014561,1,v,0.94716199999948,correct,v
271,2F4K,272,1,45.41998623133449,57.512051325968805,1.285740582798787,58.90300950833899,1,c,0.7940959999996267,correct,c
272,2F4K,273,1,43.34918204081345,57.43527994806738,1.2315502218362435,58.83961553769926,1,n,0.95187149999947,incorrect,c
273,2F4K,274,2,57.67697191794174,44.98714940237261,1.6589945622655276,48.0440785858181,1,v,1.0186033999998472,correct,v
274,2F4K,275,2,67.64318193157642,49.53094164410505,2.04102726959868,52.07402660637161,1,v,0.7819611999993867,correct,v
275,2F4K,276,2,52.7861444669867,71.04006527202571,1.498567775635412,69.00080592815708,2,v,0.7159021999996185,incorrect,b
276,2F4K,277,1,57.8485216872032,61.8960095332353,1.6649232239898597,62.42521933494108,1,n,1.0064966999998433,incorrect,c
277,2F4K,278,2,45.62863896454388,59.35531570024967,1.291331288709031,60.40823657556558,2,b,1.0696985000004133,correct,b
278,2F4K,279,1,28.41420534347715,38.43023457240865,0.9027673581672369,42.19444111218639,1,c,0.8545253000002049,correct,c
279,2F4K,280,2,42.66146246686146,66.35511287185669,1.2140634934072816,65.77793386739222,2,v,0.7637617999998838,incorrect,b
280,2F4K,281,2,28.834006143907587,41.46298642050762,0.9106825745918944,44.89581403949783,2,v,2.323767800000496,incorrect,b
281,2F4K,282,2,30.13532849732143,50.73427051906296,0.9356623160358118,53.12891506852628,2,b,0.8111423000000286,correct,b
282,2F4K,283,1,49.44257401376623,59.83993139709431,1.3979155618772954,60.798346436110656,1,n,0.8331256000001304,incorrect,c
283,2F4K,284,2,51.7206835634604,37.206098000940855,1.4657311538553912,41.110483681913685,1,v,0.7333900000003268,correct,v
284,2F4K,285,2,38.360907574997256,25.3963862088789,1.1102058708042255,31.102316685571044,1,b,1.15109719999964,incorrect,v
285,2F4K,286,2,46.827940110125816,63.12336985688751,1.3239404235755383,63.373177421703936,2,v,0.7455198999996355,incorrect,b
286,2F4K,287,1,54.7666870398662,42.194718549370144,1.5615736467734038,45.54951342394063,2,n,0.8440087999997559,correct,n
287,2F4K,288,1,56.814865058678194,45.59606707897211,1.629518749174089,48.58710597325808,2,n,0.8486888999996154,correct,n
288,2F4K,289,2,44.89712734144637,32.813615735669686,1.2718370309646163,37.27407382689615,1,b,0.8503806999997323,incorrect,v
289,2F4K,290,2,44.09834339586858,58.036578437156194,1.250885988707309,59.334676634641816,2,v,0.7879739999998492,incorrect,b
290,2F4K,291,2,34.72764169752004,19.511053869615928,1.0294182402108578,26.614954922322543,1,b,0.9458598000001075,incorrect,v
291,2F4K,292,1,66.75784791156293,51.34730452755333,2.0037957186885267,53.66358706199962,2,n,0.683828899999753,correct,n
292,2F4K,293,1,47.05679927488752,30.264568882288543,1.3302560622991115,35.10089415400099,2,c,0.8231947000003856,incorrect,n
293,2F4K,294,1,45.18648891724984,59.29518667284292,1.2795128777130789,60.35966431885196,1,c,0.7105045999996946,correct,c
294,2F4K,295,1,49.31257459704012,37.77825708289669,1.3941417331557189,41.616516704036506,2,n,0.7323593999999503,correct,n
295,2F4K,296,1,39.38388654651599,54.77633375153936,1.1340754267884063,56.61262727274177,1,n,0.8182632999996713,incorrect,c
296,2F4K,297,1,45.018724236075535,55.17082298051372,1.2750569862878247,56.946673582348296,1,n,0.7093009000000166,incorrect,c
297,2F4K,298,1,47.18816502044499,63.038940002168914,1.3338948557802304,63.30855090254136,1,c,0.6315796999997474,correct,c
298,2F4K,299,2,52.51534837042815,34.537802732878895,1.4901529850436253,38.76820119506744,1,b,0.9761441999999079,incorrect,v
299,2F4K,300,2,60.895136354701904,41.56703321184776,1.7738132036879115,44.98874163198934,1,v,0.5101727999999639,correct,v
300,2F4K,301,2,52.57141240463228,44.11035849095085,1.4918912464861414,47.26130601135492,1,v,0.4738136999994822,correct,v
301,2F4K,302,1,38.42613495518049,48.9427291850692,1.1117127371562692,51.556049148536296,1,c,0.7104523999996673,correct,c
302,2F4K,303,1,68.7153981115962,48.86355535673462,2.087045341002041,51.48622282558745,2,n,0.5405426000006628,correct,n
303,2F4K,304,2,55.26721258950262,74.44875986958311,1.5779115942864237,71.12628517447595,2,v,0.9532230000004347,incorrect,b
304,2F4K,305,1,53.404906929539216,42.8679123070993,1.5179741341909223,46.15112536486488,2,n,0.653068899999198,correct,n
305,2F4K,306,2,58.764280258050405,42.895844240291645,1.6969315928363244,46.1760885415043,1,v,0.8244446999997308,correct,v
306,2F4K,307,1,62.01365664203546,50.850897989775625,1.8155538218344511,53.23078489573133,2,n,0.7698840000002747,correct,n
307,2F4K,308,1,58.704375827388894,43.72688473561979,1.6948190791630933,46.91873091519054,2,n,0.6255247000008239,correct,n
308,2F4K,309,1,38.23627836749424,47.41731923902248,1.1073323957358576,50.2067955607025,1,c,0.7516141999994943,correct,c
309,2F4K,310,2,57.21300421821777,39.62326373603319,1.6430656512238324,43.2549749351723,1,v,0.9340904000000592,correct,v
310,2F4K,311,1,34.62829323348073,50.066873366998976,1.027293767257984,52.54467859919796,1,c,0.7711632000000463,correct,c
311,2F4K,312,2,52.25205486696702,72.86941236530618,1.482016639768911,70.16576539872122,2,b,0.7444847000006121,correct,b
312,2F4K,313,1,57.29315788951988,47.99065255227246,1.6458065123537453,50.71484336649418,2,n,0.7154874999996537,correct,n
313,2F4K,314,1,46.735419323033184,62.3914772488427,1.3213957225133215,62.81006741413223,1,c,0.9883053999992626,correct,c
314,2F4K,315,2,43.87867705692257,52.33562428186854,1.245185180360219,54.5212154486658,2,v,0.8246243000003233,incorrect,b
315,2F4K,316,1,43.056510415684514,30.430239211222,1.2240778480571124,35.2406741634365,2,n,1.0367863999999827,correct,n
316,2F4K,317,1,57.99608906637736,75.19981297227952,1.670040016363582,71.56789811022745,1,n,0.7819736000001285,incorrect,c
317,2F4K,318,2,57.54636512330076,39.096297399737225,1.6544950251926809,42.786101607465866,1,v,1.1474957000000359,correct,v
318,2F4K,319,2,62.01195507834474,55.3313196048919,1.815489583189676,57.08223464777072,1,v,0.5877544999993916,correct,v
319,2F4K,320,1,59.8246855103629,49.41157027877403,1.7347653895981572,51.96902438198548,2,n,0.6848374000001058,correct,n
320,2F4K,321,1,53.61582549221266,43.36482446596067,1.5246464812918834,46.59520903761707,2,n,1.510096699999849,correct,n
321,2F4K,322,2,50.72111041762071,41.17408456864064,1.43557958530165,44.637839717201686,1,v,2.03213549999964,correct,v
322,2F4K,323,1,50.28822020054291,60.98973260940472,1.4227149187758827,61.713920327407465,1,n,0.7576721000004909,incorrect,c
323,2F4K,324,2,47.26646511791751,58.211069269828826,1.33606847879724,59.47770208870443,2,b,1.2141884000002392,correct,b
324,2F4K,325,2,52.124573161518704,37.3126080717016,1.4780931533799189,41.20459752993956,1,v,0.775938199999473,correct,v
325,2F4K,326,1,70.92105461987927,59.57127297878081,2.1849975144671565,60.58238066625168,2,n,0.6316231999999218,correct,n
326,2F4K,327,1,60.80965586768611,47.524881070095255,1.7706630215746844,50.30218654021071,2,n,0.7684914000001299,correct,n
327,2F4K,328,1,29.24891572600366,48.69994477628617,0.9185737565497116,51.34185229110143,1,c,0.6001053999998476,correct,c
328,2F4K,329,1,47.35735139188097,32.9147098561373,1.3385959382088102,37.3611851351618,2,c,0.9518857000002754,incorrect,n
329,2F4K,330,1,55.59390277330237,65.9857362768958,1.5886673630441763,65.5101494271049,1,n,0.6605761999999231,incorrect,c
330,2F4K,331,2,33.059339015190666,51.39922319619447,0.9943186485923476,53.70877745663033,2,b,1.297796699999708,correct,b
331,2F4K,332,1,59.16568005727037,46.81654754250355,1.7111549450090278,49.673399855453226,2,n,0.6921929000000091,correct,n
332,2F4K,333,1,45.18291091383576,59.19185767790687,1.2794176823112464,60.27610894937305,1,c,0.9628679000006741,correct,c
333,2F4K,334,1,38.7637218688987,50.07777106308562,1.1195443308683606,52.55423544317782,1,c,0.5946069999999963,correct,c
334,2F4K,335,1,24.23630390711816,35.86696434930721,0.8276479394258698,39.93097668948425,1,c,0.6132669999997233,correct,c
335,2F4K,336,1,64.83812899909033,53.38338264501042,1.9253808815147917,55.42396138500425,2,n,0.6414168000001155,correct,n
336,2F4K,337,2,35.06030679255631,54.89916563526317,1.0365640065054091,56.71676670225496,2,b,0.8486935999999332,correct,b
337,2F4K,338,2,41.43631756718127,62.47429529222649,1.1835244635558424,62.87411131155634,2,b,0.7764133000000584,correct,b
338,2F4K,339,1,64.05623160684172,52.65551273802538,1.8943290443032543,54.797567228877625,2,n,0.6120468999997684,correct,n
339,2F4K,340,1,62.28613609592884,46.65146741557557,1.8258700408155704,49.52666607896112,2,n,0.7347527000001719,correct,n
340,2F4K,341,2,42.868798101996326,59.863104474466375,1.2193091350392589,60.81693910431385,2,v,0.7880309000001944,incorrect,b
341,2F4K,342,1,61.94279872667561,46.906584460776855,1.812880665865768,49.75340129814545,2,n,0.5223206000000573,correct,n
342,2F4K,343,2,45.34534145804249,56.904020730325904,1.2837464115059412,58.39946749483921,2,b,0.9033277999997154,correct,b
343,2F4K,344,1,69.93383822062563,55.42807783704893,2.140599870542459,57.16386211634769,2,n,0.7518780999998853,correct,n
344,2F4K,345,1,29.59117330287661,50.44047518720285,0.9251346076904652,52.87199371812749,1,c,0.49054940000041825,correct,c
345,2F4K,346,2,46.77996656188287,27.87577883126334,1.3226203431376211,33.111028941940525,1,v,1.0675802000005206,correct,v
346,2F4K,347,1,36.87580079599243,48.70274356967912,1.0764445640422224,51.34432280926647,1,c,0.9033324000001812,correct,c
347,2F4K,348,1,47.36639211285841,54.309677650990274,1.3388476132266487,56.21595833850176,1,c,1.8803568000002997,correct,c
348,2F4K,349,2,52.135946986450776,43.06412856754581,1.478442781551703,46.32648579070358,1,b,0.7886570000000575,incorrect,v
349,2F4K,350,1,39.430942791306144,60.94613094989353,1.1351856707500745,61.67946470758109,1,c,0.6437605000000985,correct,c
350,2F4K,351,1,48.39160556468372,62.95928768164289,1.3676965415459297,63.24750108500068,1,c,0.8736331000000064,correct,c
351,2F4K,352,1,73.75705818828754,54.33886646906146,2.31772876909774,56.24081653857069,2,n,0.565780499999164,correct,n
352,2F4K,353,2,72.53224034250113,53.21371557448947,2.2594430756962702,55.27825662405444,1,b,0.6727190000001428,incorrect,v
353,2F4K,354,1,37.4207910945907,54.76207253985324,1.0887130326675034,56.60052892340421,1,c,0.6730092999996486,correct,c
354,2F4K,355,1,57.78780970554733,77.9173203252418,1.662822634333565,73.08147969894631,1,n,0.7480146000007153,incorrect,c
355,2F4K,356,1,42.67291148226425,55.7786361863237,1.2143525666898236,57.45897475263486,1,c,1.0307848000002195,correct,c
356,2F4K,357,1,42.39985448536397,53.85614291247845,1.207476937786415,55.82892720155206,1,c,0.6898055000001477,correct,c
357,2F4K,358,2,60.36838134073325,51.43265745205938,1.7544896538103745,53.73787109384264,1,v,1.0429369000003135,correct,v
358,2F4K,359,2,44.96900508048926,64.19189317605557,1.2737394106075668,64.18337674120623,2,b,0.9340797999993811,correct,b
359,2F4K,360,2,65.35030424668818,49.291559754535655,1.9459965162662076,51.86339948270858,1,v,0.5271504000002096,correct,v
360,2F4K,361,2,43.7098210014454,57.45531127564748,1.2408206747017407,58.85616160887602,2,v,2.179361499999686,incorrect,b
361,2F4K,362,1,55.9188343034824,43.65407362216355,1.5994379552585647,46.85367488743863,2,c,0.9519181999994544,incorrect,n
362,2F4K,363,2,46.21116379072876,62.764398304624514,1.3070686474765352,63.09780059241801,2,b,1.261584999999286,correct,b
363,2F4K,364,2,45.20927208164872,66.16363805987608,1.2801192066582332,65.63935815929374,2,b,1.9768085000005158,correct,b
364,2F4K,365,2,39.009412859792015,57.95381434746444,1.1252787194707925,59.26673596945662,2,b,0.7637712000005195,correct,b
365,2F4K,366,1,37.63364179208976,49.84326917890896,1.0935424716836046,52.3484666160785,1,c,0.7589743999997154,correct,c
366,2F4K,367,1,39.858870898273615,55.40239318273036,1.1453322149037293,57.14220117539632,1,c,0.792993000000024,correct,c
367,2F4K,368,1,65.0502028977317,50.6860417551609,1.9338904698733383,53.08676889825716,2,n,0.5951218000000154,correct,n
368,2F4K,369,2,38.38423915273732,57.85602465501236,1.1107446362077875,59.18637757393533,2,b,0.853722399999242,correct,b
369,2F4K,370,2,45.77884049296589,64.41399328928004,1.2953708773822172,64.34995682314698,2,b,0.6362933000000339,correct,b
370,2F4K,371,1,48.29111590105354,58.48311600272813,1.364841554250593,59.70010808615538,1,c,0.7142426000000341,correct,c
371,2F4K,372,2,24.716786638313813,42.78475666166376,0.8359587147104899,46.07680797284629,2,b,0.6741024000002653,correct,b
372,2F4K,373,1,64.32938423998284,46.33080025399006,1.905119542985336,49.24144865742113,2,n,0.550257099999726,correct,n
373,2F4K,374,2,67.12638333436712,44.90368782455656,2.0192107554133023,47.969605291715865,1,v,0.8487028999998074,correct,v
374,2F4K,375,1,49.59754857924485,68.82385950125762,1.4024277588569778,67.51753629695918,1,n,0.9639873000005537,incorrect,c
375,2F4K,376,1,67.3778203942493,46.85294153876683,2.0297958197609542,49.70573991067627,2,n,0.68616639999982,correct,n
376,2F4K,377,1,62.532977912873214,48.49315014846695,1.8352662005593048,51.15923248445135,2,n,0.7276618000005328,correct,n
377,2F4K,378,2,57.92775885943421,47.82644102093919,1.6676687637409626,50.569436328455495,1,v,1.8393239999995785,correct,v
378,2F4K,379,2,44.40103126739896,57.92453775125506,1.258784167341774,59.24268745086464,2,b,0.7151389000000563,correct,b
379,2F4K,380,2,32.75160725312715,20.85455603031531,0.9879762166203762,27.600680097211768,1,b,0.6922635999999329,incorrect,v
380,2F4K,381,2,28.942541690587795,45.43417555537422,0.9127402455097896,48.442790520736736,2,b,0.5098978000005445,correct,b
381,2F4K,382,1,58.37699116866192,75.84137389385408,1.6833203211577414,71.93723977097348,1,n,0.7334329999994225,incorrect,c
382,2F4K,383,2,59.07242319283095,50.85484531215185,1.707839851119486,53.234231525117984,1,b,0.6665181999997003,incorrect,v
383,2F4K,384,1,47.23527492009076,32.601166469848835,1.3352022098774767,37.09122321691406,2,n,0.7455470000004425,correct,n
384,2F4K,385,1,50.1587226834224,62.23074655482836,1.4188889498825226,62.68553973842143,1,n,0.693540899999789,incorrect,c
385,2F4K,386,2,52.98822488111684,62.76936955861392,1.50487822275899,63.10162490871548,2,v,0.8859572000001208,incorrect,b
386,2F4K,387,2,40.47329264556724,55.27498371967149,1.160059480384965,57.03467438128308,2,b,0.7819626999998945,correct,b
387,2F4K,388,1,46.18545527612443,33.82989839342849,1.3063700837716068,38.152656523552,2,c,0.6801321000002645,incorrect,n
388,2F4K,389,1,57.38009893555993,72.7116000571503,1.6487846378210362,70.06745486261046,1,n,0.6780887000004441,incorrect,c
389,2F4K,390,2,53.18421204598437,65.13142128926032,1.5110237758457066,64.88363421622881,2,v,1.3159488000001147,incorrect,b
390,2F4K,391,1,43.53484934835404,23.54037160879312,1.2363142346753708,29.64156943079788,2,n,1.1346354000006613,correct,n
391,2F4K,392,2,37.794243313234645,52.27506901100072,1.0972005871971278,54.46883146677947,2,b,0.9701321000002281,correct,b
392,2F4K,393,1,36.14418933458315,53.65483257147845,1.0601920886000114,55.65667208166257,1,c,0.6740918000004967,correct,c
393,2F4K,394,2,46.56604153727157,56.3419364935437,1.3167498052534872,57.93107267588744,2,v,0.862184000000525,incorrect,b
394,2F4K,395,2,53.56833104710111,33.068765939938615,1.5231414544398107,37.494057239103526,1,v,1.7350829000006343,correct,v
395,2F4K,396,1,56.98445603553495,48.39977629802326,1.6352754654299009,51.07672314004687,2,n,0.9579240000002756,correct,n
396,2F4K,397,1,41.79663862298455,59.36782325144699,1.192425521413521,60.418335531665456,1,c,0.7091364999996586,correct,c
397,2F4K,398,2,56.6523456499853,42.69313669065113,1.624021091808402,45.99492628079352,1,v,1.000443699999778,correct,v
398,2F4K,399,1,67.62402619055919,78.55285163449389,2.0402144241358715,73.41596115030798,1,n,0.7651454999995622,incorrect,c
399,2F4K,400,1,54.09034675128586,39.84184734667102,1.5397652347313262,43.44963716577871,2,n,0.7846274000003177,correct,n
