,condition,trial,sub_task,x,y,xt,yt,cat,resp,rt,acc,correct_resp
0,2F4K,1,2,47.07370804317138,57.332690584196456,1.330723873146841,58.54952269791509,2,v,1.7724337000008745,incorrect,b
1,2F4K,2,1,57.083392027126834,33.20941306385746,1.638643207054014,37.63583786454791,2,n,1.3830436999996891,correct,n
2,2F4K,3,1,70.12643996898686,60.58322567639797,2.1491902512161154,61.15842303167197,2,n,1.0307560000001104,correct,n
3,2F4K,4,2,54.05315638638688,65.85579273340223,1.5385749146932404,65.13910499878253,2,v,3.8174675000000207,incorrect,b
4,2F4K,5,2,66.74646241269184,47.77537298335764,2.0033213666022083,50.40675605670178,1,v,1.7771308999999746,correct,v
5,2F4K,6,1,51.420044595750696,40.49186767372722,1.4565965547266142,43.98093001301967,2,c,2.177806900000178,incorrect,n
6,2F4K,7,2,63.26510980578093,49.029785910161806,1.8634205312343848,51.50352372096059,1,b,1.7104809000002206,incorrect,v
7,2F4K,8,2,53.00764492352621,63.12879086120208,1.5054860580902658,63.12268784064696,2,b,2.6828051000002233,correct,b
8,2F4K,9,2,52.07448513099944,37.44895055960545,1.4765544449747454,41.30587850797386,1,b,2.1231134999998176,incorrect,v
9,2F4K,10,1,42.150352940016695,26.976839874741287,1.2012284823661208,32.451898416004504,2,c,2.815039600000091,incorrect,n
10,2F4K,11,2,41.38646716420381,22.08153621250309,1.1822982459401494,28.639209767346184,1,b,4.539895200000501,incorrect,v
11,2F4K,12,1,56.94200009936685,43.052324713918,1.6338324055092652,46.24341290795035,2,n,2.112372999999934,correct,n
12,2F4K,13,2,41.27702209256763,55.52325069073322,1.179610576390894,57.05490946072504,2,b,2.3612693000004583,correct,b
13,2F4K,14,1,42.13563521293192,54.601205171501135,1.2008609068066454,56.283109916597496,1,n,2.549351200000274,incorrect,c
14,2F4K,15,1,64.5825813418476,46.22940179813705,1.915176613118551,49.0484235336743,2,c,3.010568400000011,incorrect,n
15,2F4K,16,1,60.56556566897012,41.09461014680237,1.761698414405606,44.513033930940495,2,n,1.0610411000006934,correct,n
16,2F4K,17,2,36.47333323684772,51.4281596215573,1.06747330886445,53.582254246914125,2,v,1.255397100000664,incorrect,b
17,2F4K,18,1,62.96485351067389,43.46561261013016,1.8518222235241395,46.60880867643722,2,n,3.8663477000000057,correct,n
18,2F4K,19,1,44.89156762968764,67.72277963275869,1.2716900011689982,66.46198376998113,1,c,4.1998390999997355,correct,c
19,2F4K,20,2,67.10880879512608,51.69751837190184,2.0184729650814464,53.81392500713861,1,v,1.4933293000003687,correct,v
20,2F4K,21,2,54.05506032093141,63.7566894661672,1.538635829935243,63.59539045318501,2,v,1.6983464999993885,incorrect,b
21,2F4K,22,2,41.86591029810464,64.7692205349164,1.1941444051345955,64.34720244547313,2,b,1.2127610000006825,correct,b
22,2F4K,23,2,67.01260542710895,53.893081367430455,2.014439060693374,55.68610178716949,1,b,2.5541407999999137,incorrect,v
23,2F4K,24,1,57.749497888481294,40.76029843057172,1.6614984379118392,44.21784248912242,2,c,1.4252611000001707,incorrect,n
24,2F4K,25,1,55.29477278005032,66.10854617352865,1.5788161515213353,65.32103793017716,1,n,1.6814801999998963,incorrect,c
25,2F4K,26,2,42.87842339870427,56.161289883341205,1.2195532071362327,57.58507212140676,2,v,1.5526979000005667,incorrect,b
26,2F4K,27,1,42.01546291258861,30.703816484596715,1.1978638064994402,35.515192383076275,2,n,2.634321099999397,correct,n
27,2F4K,28,2,39.169599495916856,56.3590021841073,1.1290332584592313,57.74867852947742,2,b,4.327533099999528,correct,b
28,2F4K,29,1,55.600742972498665,36.59441101620712,1.5888933478944232,40.559609449968775,2,n,3.156691999999566,correct,n
29,2F4K,30,2,56.95150191075523,50.50598897218635,1.6341552575474247,52.78620716445724,1,b,3.526383000000351,incorrect,v
30,2F4K,31,1,61.414569168775685,44.64922320731243,1.793076542573747,47.654738963828535,2,c,1.3827596999999514,incorrect,n
31,2F4K,32,2,46.25977632510836,38.0153421464921,1.3083905910029068,41.80191764715472,1,b,1.317354400000113,incorrect,v
32,2F4K,33,1,65.33209721615665,45.71853064363026,1.9452598925717937,48.59831239070457,2,n,1.0235710999995717,correct,n
33,2F4K,34,1,46.53091772103849,67.4631144920066,1.3157884296772997,66.28094593572521,1,c,1.3028948000001037,correct,c
34,2F4K,35,1,55.43031171500665,49.5658105909009,1.5832722472097087,51.97037422808125,2,c,2.652397899999414,incorrect,n
35,2F4K,36,2,49.11641786053831,27.54229400661886,1.3884666603664626,32.90865192722796,1,b,4.456056699999863,incorrect,v
36,2F4K,37,2,31.816902394087755,45.28945667988167,0.9689586945323154,48.219898081020105,2,b,1.7529437000002872,correct,b
37,2F4K,38,2,34.95954012021386,45.666250891225125,1.0343942808228654,48.55222215972781,2,b,0.927899499999512,correct,b
38,2F4K,39,2,42.568195813699184,51.9654206359169,1.2117111894691326,54.04394096079214,2,v,0.908710699999574,incorrect,b
39,2F4K,40,2,44.43297656957878,52.21128226912699,1.2596206351730432,54.25467017177798,2,b,0.7819368000000395,correct,b
40,2F4K,41,2,80.86576421674579,67.2350391220659,2.686956427764007,66.12113359427322,1,v,2.785813800000142,correct,v
41,2F4K,42,2,69.81506814192993,63.24506660594841,2.13531963781171,63.21059063220434,1,v,0.8730054999996355,correct,v
42,2F4K,43,1,48.639905033977534,64.7420877940184,1.3747765523764564,64.3272281607352,1,n,2.4705081000001883,incorrect,c
43,2F4K,44,2,49.41243007900368,58.1420025985527,1.3970395873240944,59.20871691630481,2,v,3.9017186000000947,incorrect,b
44,2F4K,45,1,44.19589917099405,56.59818102186451,1.2534261307948558,57.9461587781241,1,n,1.8317184999996243,incorrect,c
45,2F4K,46,1,29.23948057286776,49.18645362530632,0.9183935514407692,51.64009433263597,1,c,1.1898754000003464,correct,c
46,2F4K,47,2,56.6680021379859,39.0529628642863,1.62454990639806,42.713137735012005,1,v,2.9328314000003957,correct,v
47,2F4K,48,2,68.82893641123819,55.87188373521478,2.0919785982571546,57.345006288220034,1,v,0.7995818999997937,correct,v
48,2F4K,49,2,60.89501218706838,38.6648588985852,1.7738086237199235,42.37196786734584,1,v,0.626530599999569,correct,v
49,2F4K,50,1,31.393866557166863,43.2340975293009,0.96047235619241,46.4041270386667,1,n,1.443501899999319,incorrect,c
50,2F4K,51,1,43.64764800511471,59.96214614070005,1.2392175148577105,60.66818611080034,1,c,0.8001438000001144,correct,c
51,2F4K,52,2,44.30756562128813,60.956381993880086,1.2563400163651235,61.450967723467805,2,v,1.2150947999998607,incorrect,b
52,2F4K,53,2,60.14261083715553,49.964837299242106,1.7462720410440875,52.317116915821785,1,v,1.1399634999997943,correct,v
53,2F4K,54,2,37.18444867646691,49.50903504431506,1.0833755674619563,51.92098186381266,2,b,1.0004540999998426,correct,b
54,2F4K,55,1,37.53833393677209,26.13499953567389,1.0913773576202437,31.777717199384707,2,c,1.8075395999994726,incorrect,n
55,2F4K,56,2,32.98768070848632,49.066943760966105,0.9928381250668666,51.535923820492485,2,v,1.5107551000000967,incorrect,b
56,2F4K,57,1,69.49567487091021,47.42395202582405,2.121184697921347,50.098561456758645,2,c,2.6222117999996044,incorrect,n
57,2F4K,58,2,59.54348931799685,45.46856579676048,1.7246512768248767,48.37789791331934,1,v,2.1292555999998513,correct,v
58,2F4K,59,1,43.44089288704317,26.97845020583348,1.2339011195025793,32.45319479038061,2,n,1.3911066999999093,correct,n
59,2F4K,60,1,61.57991165395113,47.257987243739365,1.7992521092553186,49.952884454972406,2,n,1.3038583999996263,correct,n
60,2F4K,61,1,66.72291751383486,43.170059773097705,2.002340775706985,46.347508874473306,2,n,0.6848093999997218,correct,n
61,2F4K,62,2,52.21895685166477,29.84291163699656,1.4809969869970978,34.79709460581496,1,v,2.737302599999566,correct,v
62,2F4K,63,1,47.71875323615652,57.384219537350646,1.348693569229917,58.59167213734171,1,n,1.6194249000000127,incorrect,c
63,2F4K,64,2,51.95793449944525,33.41357565175596,1.4729801973270749,37.81044631449405,1,v,3.102611000000252,correct,v
64,2F4K,65,2,60.53679189607016,68.52363938772433,1.7606446460061882,67.01415720941174,2,v,1.188773900000342,incorrect,b
65,2F4K,66,1,53.96520026247157,62.54300416768405,1.5357634389259065,62.677350858246335,1,n,4.084790199999588,incorrect,c
66,2F4K,67,1,41.286122680067294,54.90026014928081,1.1798338286679122,56.5341425963057,1,n,1.6133664000008139,incorrect,c
67,2F4K,68,2,47.488538356520806,37.604532683871454,1.3422525546284274,41.44203036302585,1,v,1.1824937999999747,correct,v
68,2F4K,69,2,39.047887872875314,43.14656637257265,1.1261793762896106,46.32673726994896,2,v,3.058944800000063,incorrect,b
69,2F4K,70,2,70.4290492533924,56.952631129457565,2.162756849325258,58.23791230871432,1,v,1.9655806999999186,correct,v
70,2F4K,71,1,39.62011654322888,52.79888796931091,1.1396600107055332,54.75684689456799,1,n,2.895262300000468,incorrect,c
71,2F4K,72,1,27.336633558201783,44.410012976083,0.8827635749630227,47.44344933585924,1,n,1.680130900000222,incorrect,c
72,2F4K,73,2,47.4197355683994,42.530258893808686,1.3403335485333212,45.78181968596066,1,v,1.3523866999994425,correct,v
73,2F4K,74,2,45.09635337393853,54.64677695353403,1.277116912441277,56.32140667813911,2,v,0.7468529000007038,incorrect,b
74,2F4K,75,2,71.36356967304496,47.69426102749543,2.205196306543589,50.33565457994955,1,v,1.2555732999999236,correct,v
75,2F4K,76,2,47.55738139304444,59.7315854325563,1.3441754332333389,60.48516188497835,2,v,2.5067701999996643,incorrect,b
76,2F4K,77,2,50.49622187286956,36.63467597265722,1.428881876733995,40.59471064076024,1,b,0.9038196000001335,incorrect,v
77,2F4K,78,1,52.69328484841142,35.38748727767209,1.495676890971067,39.51064686518681,2,c,3.028766700000233,incorrect,n
78,2F4K,79,1,43.3847389747137,57.69940722266776,1.2324611491248132,58.84896462564856,1,c,1.4737669999994978,correct,c
79,2F4K,80,2,51.5771735849233,34.03401550757816,1.4613636300270996,38.34257524698176,1,v,2.870886900000187,correct,v
80,2F4K,81,2,51.69750183129322,33.324339653600376,1.4650247675896475,37.73409706053771,1,v,1.9044991999999183,correct,v
81,2F4K,82,1,54.34147086147331,67.93677095268852,1.5478268871279282,66.61044457216792,1,n,5.0,correct,c
82,2F4K,83,2,54.27283412442971,66.31029960802861,1.5456193102200066,65.46563276148818,2,v,1.3173046000001705,incorrect,b
83,2F4K,84,2,58.69704316475926,48.823863755118,1.6945606755069615,51.32387084661447,1,b,1.0428949000006469,incorrect,v
84,2F4K,85,1,46.64719087778994,31.88436802068648,1.318973634567181,36.50900002462928,2,n,1.092764800000623,correct,n
85,2F4K,86,1,67.86783866334703,49.84767893499774,2.050584449932816,52.21538237716383,2,n,0.9396774999995614,correct,n
86,2F4K,87,2,65.67622986777852,49.80105420636822,1.9592301712539435,52.17487876698694,1,b,1.9242601999994804,incorrect,v
87,2F4K,88,2,28.267516973179863,38.86537079540547,0.9000178434325036,42.54818357765848,2,b,0.7334068000000116,correct,b
88,2F4K,89,1,37.056950335032994,25.53133336918465,1.0805070684613507,31.29873348698941,2,n,1.7044115999997302,correct,n
89,2F4K,90,1,56.40708122134388,45.2807269967567,1.6157594580544248,48.21219594991496,2,n,0.7590416000002733,correct,n
90,2F4K,91,2,48.11178206683008,57.78889089177222,1.3597613442501946,58.921845921582936,2,v,1.630408300000454,incorrect,b
91,2F4K,92,1,37.83545741815421,58.43046213787688,1.0981413166318632,59.44219118293197,1,c,0.8487620000005336,correct,c
92,2F4K,93,1,73.07462119342722,64.27413201937178,2.2850704353312743,63.981233138427285,2,n,1.2613638000002538,correct,n
93,2F4K,94,1,31.4168203783624,46.2666946171451,0.9609309099226956,49.08125999448281,1,c,0.7711503000000448,correct,c
94,2F4K,95,1,61.35801934233566,45.82505749206954,1.790969266198561,48.69221172815325,2,n,0.6847823999996763,correct,n
95,2F4K,96,2,37.763491266237374,52.94334094563906,1.0964991837032314,54.87997211824157,2,v,1.0139546000000337,incorrect,b
96,2F4K,97,1,31.78209038356476,49.54335616361024,0.9682575236003306,51.95084144556391,1,c,0.6726778000002014,correct,c
97,2F4K,98,1,56.73828661457582,42.32507920452205,1.626925961964863,45.60041718488947,2,n,0.6071023000004061,correct,n
98,2F4K,99,2,51.47889821488222,34.73164363187062,1.4583802675980484,38.94346253336101,1,b,1.0611224000003858,incorrect,v
99,2F4K,100,1,43.17554694312935,59.13895839365135,1.2271115549465754,60.01221397199059,1,n,1.2505732999998145,incorrect,c
100,2F4K,101,1,65.66663383082022,43.7295996759616,1.9588392576735805,46.84217278979165,2,n,0.7278440999998566,correct,n
101,2F4K,102,2,42.49435823668632,61.51648209449801,1.2098521444634365,61.887180473654325,2,v,1.348888700000316,incorrect,b
102,2F4K,103,1,62.35438968646047,44.64704923080984,1.8284633262053471,47.65281901549525,2,n,0.5755738999996538,correct,n
103,2F4K,104,1,45.78930545768135,29.10517453781213,1.2956527973700631,34.18650578090196,2,n,3.0784411000004184,correct,n
104,2F4K,105,1,42.1688367178409,61.69831742156288,1.2016902745116484,62.02803619969912,1,c,0.8004502000003413,correct,c
105,2F4K,106,1,48.56156524368956,66.88772703254672,1.3725388230919555,65.87635026077376,1,c,1.680837199999587,correct,c
106,2F4K,107,1,41.78278954606373,51.623450938953056,1.1920821720295498,53.750260801495024,1,c,0.9112033999999767,correct,c
107,2F4K,108,1,51.72307003703936,39.72906702969646,1.4658038930421438,43.30833044392276,2,c,0.5148857999993197,incorrect,n
108,2F4K,109,2,48.04982675668617,58.01612801563658,1.358010658423347,59.10658907216119,2,v,2.3793954000002486,incorrect,b
109,2F4K,110,2,48.93930221979613,32.20689765517698,1.3833623206016372,36.78222355303021,1,b,2.512928400000419,incorrect,v
110,2F4K,111,1,55.058431405383146,47.46995382117375,1.571075967553324,50.13892585889992,2,n,3.5156309000003603,correct,n
111,2F4K,112,2,33.50662429159253,54.52735873426085,1.003609984528743,56.221019805846566,2,v,0.843138799999906,incorrect,b
112,2F4K,113,1,32.23778820905062,42.18996652760022,0.9774763122366912,45.4809694757101,1,c,0.8851979999999458,correct,c
113,2F4K,114,1,30.37344860831338,45.779499177050496,0.9403068013472724,48.65205640461968,1,c,0.5999116000002687,correct,c
114,2F4K,115,2,36.59101310266915,52.43205676867243,1.0700887044774383,54.44359319847467,2,b,1.1157101999997394,correct,b
115,2F4K,116,2,47.24634835659624,71.11759948498997,1.335509696467683,68.73609014871859,2,v,0.8611517999997886,incorrect,b
116,2F4K,117,1,35.647003543590955,52.42771679428405,1.0492875598959597,54.43988217398789,1,c,0.7272980999996435,correct,c
117,2F4K,118,2,72.19367661375577,58.04951880129072,2.2435919292478577,59.133695071493726,1,b,0.806211600000097,incorrect,v
118,2F4K,119,2,47.17934227759997,59.24440374461659,1.3336501568354695,60.09662554586228,2,b,0.9824218000003384,correct,b
119,2F4K,120,2,73.48839330039127,54.62489414616135,2.3048163485881195,56.303019124910925,1,v,0.5695216000003711,correct,v
120,2F4K,121,2,73.53940363209301,64.45667908901308,2.3072624335865424,64.11654001636114,1,v,2.0644655000005514,correct,v
121,2F4K,122,2,62.06645615653359,71.89007419484943,1.817548276679901,69.22844856974832,2,v,0.49061840000013035,incorrect,b
122,2F4K,123,1,46.61949508928498,63.8205341146216,1.31821423296111,63.64318042979028,1,c,2.669562699999915,correct,c
123,2F4K,124,2,43.64283157560868,53.31695357277091,1.239093407445856,55.19780333107063,2,b,1.3768526000003476,correct,b
124,2F4K,125,1,57.049714706185945,42.88814925844572,1.6374960666037115,46.09825380425634,2,c,1.808981700000004,incorrect,n
125,2F4K,126,2,31.12061177719369,42.93529404698683,0.955030261814029,46.13993801701971,2,b,1.303527799999756,correct,b
126,2F4K,127,2,46.97946627951014,62.83474957275208,1.3281186040111232,62.89966307800084,2,b,0.6801053999997748,correct,b
127,2F4K,128,2,53.8101214507224,40.13254356384356,1.5308189268445291,43.66396914443297,1,v,0.7212374999999156,correct,v
128,2F4K,129,2,52.76429797505354,41.2380661361118,1.4978871533404765,44.63974306073415,1,v,1.0381303000003754,correct,v
129,2F4K,130,1,62.809928465385205,48.20226068621592,1.845866037259152,50.78061157281605,2,n,1.3030939000000217,correct,n
130,2F4K,131,2,38.30005536192854,50.94524369192086,1.108801920076106,53.16592999168399,2,b,2.761575000000448,correct,b
131,2F4K,132,2,32.869099664219576,45.49948619909654,0.9903929773815436,48.4051688136054,2,b,0.8608457000000271,correct,b
132,2F4K,133,2,59.585357835755744,41.12006855462521,1.7261534661279692,44.53551872101829,1,v,0.8682656999999381,correct,v
133,2F4K,134,1,56.34902207738656,42.31838369251839,1.6138099191155009,45.59449779155673,2,n,0.8913930000007895,correct,n
134,2F4K,135,1,47.517980999526905,30.777049322792585,1.3430745903716823,35.576542826649096,2,n,3.034892100000434,correct,n
135,2F4K,136,2,48.81111388836419,65.65728611908546,1.3796797383705866,64.99561035587688,2,v,1.3226773999995203,incorrect,b
136,2F4K,137,2,44.01419591019594,52.66723595997842,1.248699105049606,54.64451872401269,2,b,1.6971883999995043,correct,b
137,2F4K,138,2,46.92772313035936,34.48508998952778,1.326690358689231,38.73080180216967,1,b,0.5951538999997865,incorrect,v
138,2F4K,139,2,48.12416327548733,56.53736769964765,1.3601114734708923,57.89599372238189,2,v,1.32093789999999,incorrect,b
139,2F4K,140,2,43.82711615330128,29.372453657784988,1.2438508346030168,34.407194261818326,1,v,2.2027678000004016,correct,v
140,2F4K,141,1,46.01455910408844,55.80518859001896,1.3017358938062935,57.28958494932497,1,c,3.8357648999999583,correct,c
141,2F4K,142,1,37.66957695950222,51.82492887971647,1.0943599275538194,53.92336806329117,1,c,1.0792851999995037,correct,c
142,2F4K,143,1,50.47953978080941,65.2518319604197,1.4283862916436272,64.70087241928383,1,n,2.452231300000676,incorrect,c
143,2F4K,144,1,59.74831322744608,76.68417903684207,1.7320125657130525,72.06013871084471,1,n,2.477612399999998,incorrect,c
144,2F4K,145,1,47.33713516005528,29.44880196585036,1.3380333311904409,34.47034457443194,2,c,2.141591800000242,incorrect,n
145,2F4K,146,1,55.99859121723365,64.77256058665114,1.6020928214804535,64.34966062479297,1,n,2.01984259999972,incorrect,c
146,2F4K,147,2,51.06766983654873,68.52727862154337,1.4459624574869965,67.01664481761554,2,b,1.6983643000003212,correct,b
147,2F4K,148,2,53.64481355119582,40.693722475923394,1.5255657995988676,44.15907419135119,1,b,1.3416027999992366,incorrect,v
148,2F4K,149,1,71.81286971424669,53.06342085453733,2.2258958516743697,54.98222200364262,2,n,1.7580363999995825,correct,n
149,2F4K,150,2,25.531721699355845,45.95361384547088,0.8502456653152846,48.80550053020652,2,v,0.8925506999994468,incorrect,b
150,2F4K,151,1,37.34922770747717,50.34015878905944,1.0870941032139274,52.64260574289722,1,c,1.8672106000003623,correct,c
151,2F4K,152,2,68.91724697206736,57.27475289644836,2.095823767136777,58.50210260822832,1,v,1.5828372999994826,correct,v
152,2F4K,153,2,57.55004781707965,43.41391158159353,1.6546217303868282,46.56310151313585,1,v,0.8987050000005183,correct,v
153,2F4K,154,1,52.30210404789533,37.33559666071649,1.483559841793025,41.206733434790046,2,n,3.2654271999999764,correct,n
154,2F4K,155,1,67.60714666399579,53.46850523767988,2.039498434766176,55.326467792152165,2,n,0.7833872999999585,correct,n
155,2F4K,156,1,45.96169556414806,59.458051500258726,1.300305725475661,60.26731173328752,1,c,1.0879736999995657,correct,c
156,2F4K,157,1,61.31569110386827,50.08056836966568,1.7893935647755674,52.417551282932926,2,n,0.7869238000002952,correct,n
157,2F4K,158,1,42.262262668523206,58.5343125856384,1.2040271131048794,59.52605093816343,1,c,1.0246763999994073,correct,c
158,2F4K,159,2,41.46982350618661,30.751257162267827,1.1843493554799311,35.554930935480186,1,b,2.542293200000131,incorrect,v
159,2F4K,160,2,61.07143983326287,36.10361463443704,1.7803281645799076,40.13228614905354,1,v,1.1817059999993944,correct,v
160,2F4K,161,2,63.21271585170124,48.90853199354141,1.861391437048996,51.397757834422855,1,v,1.8500252000003456,correct,v
161,2F4K,162,1,58.57676170822876,43.14653483412222,1.6903275659714754,46.326709385272366,2,n,1.6025801999994655,correct,n
162,2F4K,163,2,44.14230925781735,54.21401591651802,1.2520301271458063,55.95712025273416,2,b,0.8001001000002361,correct,b
163,2F4K,164,2,68.91506339793702,58.30701684707821,2.095728606014014,59.34237372926097,1,v,1.3816229999993084,correct,v
164,2F4K,165,2,55.699633050200674,41.0602969015568,1.5921640484929844,44.48272973149401,1,v,0.8657818000001498,correct,v
165,2F4K,166,1,53.408859251156784,38.84022139880651,1.518098895870165,42.52607583463563,2,n,1.6439839000004213,correct,n
166,2F4K,167,2,49.1067893652571,58.63312807485852,1.388188690884694,59.605748129158,2,v,2.7422967000002245,incorrect,b
167,2F4K,168,1,39.99737773447717,59.54489991958359,1.1486357199310624,60.33656345195576,1,c,2.2155603000001065,correct,c
168,2F4K,169,1,70.0507127315676,58.20474059485107,2.1458085767852517,59.259563335434,2,n,1.5647980000003372,correct,n
169,2F4K,170,1,47.26784586848176,54.3246300413703,1.3361068404136065,56.0503611087493,1,c,1.2737403000000995,correct,c
170,2F4K,171,2,55.03433337825346,45.48262416533352,1.5702888917139404,48.39029718645312,1,v,1.4569340999996712,correct,v
171,2F4K,172,1,40.72893652264294,55.41749337436072,1.1662427363807384,56.96671778361711,1,c,0.9640164999991612,correct,c
172,2F4K,173,1,63.768632225434,48.34641455020094,1.8830338920863607,50.90671962913306,2,n,1.0616532000003644,correct,n
173,2F4K,174,1,68.33204867924644,53.91903177397858,2.070474537051725,55.70804283388864,2,n,0.7515478000004805,correct,n
174,2F4K,175,2,48.6469803695835,41.75488758028788,1.374978834649678,45.09639441276492,1,v,0.8975522999999157,correct,v
175,2F4K,176,1,55.52928077186323,35.45067129991379,1.5865339825039737,39.56539983346439,2,n,0.7758838999998261,correct,n
176,2F4K,177,1,56.338045602270455,50.18227032719199,1.6134416100313358,52.50576019075412,2,n,0.862173100000291,correct,n
177,2F4K,178,2,55.66063347822925,45.54316590155783,1.5908733693832864,48.44369029405326,1,v,0.9993789999998626,correct,v
178,2F4K,179,2,48.37246181562181,26.446980017223567,1.36715219306213,32.026734107168906,1,v,0.9348881999994774,correct,v
179,2F4K,180,1,46.96781551248024,54.54499791834131,1.327796878509445,56.235854473267736,1,c,0.8061934999996083,correct,c
180,2F4K,181,1,64.47798486677092,52.71008003822784,1.9110155875929309,54.6810859960175,2,n,1.0671504000001732,correct,n
181,2F4K,182,2,55.49508137372674,42.93943384076993,1.5854061096573506,46.14359831216692,1,v,1.0186229000000822,correct,v
182,2F4K,183,1,37.63798081363362,31.336620075373094,1.0936411436470337,36.04664183066046,2,c,1.1449892000000546,incorrect,n
183,2F4K,184,1,43.7075483178618,36.99212901615461,1.2407620359860694,40.90659867257512,2,c,1.1593699000004563,incorrect,n
184,2F4K,185,2,48.01932614925976,57.156424118117805,1.3571496236993583,58.4051612652918,2,v,1.0428884000002654,incorrect,b
185,2F4K,186,2,55.74306752977032,43.6185523332168,1.5936027320901751,46.74401118595726,1,v,1.1339358000004722,correct,v
186,2F4K,187,2,41.73651008694564,61.79732339563192,1.1909355184595207,62.10457081836645,2,b,1.061501700000008,correct,b
187,2F4K,188,1,42.11465462467832,56.75381292527698,1.2003371105985945,58.07439564765846,1,c,1.3099474000000555,correct,c
188,2F4K,189,2,35.65509083842184,25.303733549194213,1.0494640340196906,31.119138652084114,1,b,2.7799432000001616,incorrect,v
189,2F4K,190,1,70.45179635729826,58.79543220830909,2.1637801028297643,59.73644417157331,2,n,2.107208499999615,correct,n
190,2F4K,191,1,60.946807411485096,37.45078005197948,1.7757201360184438,41.30747904003948,2,n,0.9761035999999876,correct,n
191,2F4K,192,2,48.27768905031546,64.15338537294612,1.3644605388882292,63.89149936887464,2,b,1.0610601999997016,correct,b
192,2F4K,193,2,41.03158765860854,57.07733885273056,1.1736055752907653,58.34030100599352,2,b,0.8719210999997813,correct,b
193,2F4K,194,1,53.79850632842475,69.18918341521217,1.5304492332895654,67.46579929519174,1,n,1.784642800000256,incorrect,c
194,2F4K,195,1,58.72484933329994,69.42116531110085,1.6955407758784458,67.62165359654965,1,n,0.8669163000004119,incorrect,c
195,2F4K,196,1,46.62808659251276,64.02069047812725,1.3184497599418992,63.7926721902076,1,c,0.6072618999996848,correct,c
196,2F4K,197,2,54.74081335440591,40.96828062612554,1.5607337021487466,44.40147107625394,1,v,2.069894199999908,correct,v
197,2F4K,198,2,52.23990811952627,32.42555777115804,1.4816423525903768,36.967853941642296,1,v,1.103897599999982,correct,v
198,2F4K,199,1,36.045863722271925,52.53270695116367,1.0580266093543125,54.52962511905026,1,c,1.4980382000003374,correct,c
199,2F4K,200,2,52.103707096725344,34.20516118526962,1.477451951397443,38.4897447817576,1,v,1.2918142999997144,correct,v
200,2F4K,201,1,58.5751330424551,45.40666002659405,1.69027032035911,48.32329404267865,2,n,5.0,correct,n
201,2F4K,202,1,53.47828121764516,40.68401694704189,1.5202919896386682,44.15050737987063,2,n,2.379380200000014,correct,n
202,2F4K,203,2,53.92469442848529,58.31538734923951,1.5344704174763697,59.34914669589824,2,b,0.8925235999995493,correct,b
203,2F4K,204,2,44.02762582528413,54.521148510890136,1.2490478744916396,56.21579642613555,2,b,0.7992444999999861,correct,b
204,2F4K,205,2,50.620929787738206,35.88054796208887,1.4325921021447467,39.93840496203944,1,b,1.3760985999997501,incorrect,v
205,2F4K,206,2,45.93429503202893,35.731826757499874,1.2995650508483214,39.8092640683962,1,v,1.6376520999992863,correct,v
206,2F4K,207,2,37.19719339748268,54.36842774598436,1.083662720645422,56.08725558546835,2,b,1.0719614999998157,correct,b
207,2F4K,208,1,30.36813468411828,49.62708997048032,0.9402029032358395,52.02366932503666,1,c,0.8379367999996248,correct,c
208,2F4K,209,1,36.4728535076568,49.49912575938792,1.0674626601367976,51.91235979887144,1,c,1.247721200000342,correct,c
209,2F4K,210,2,47.14553639711043,29.578762519050635,1.3327129655359584,34.577951227955715,1,v,1.0574139000000287,correct,v
210,2F4K,211,2,54.23650679349335,67.8598638909128,1.544452181604662,66.557165349861,2,v,0.9943390000007639,incorrect,b
211,2F4K,212,2,42.03149279132388,56.20069447080758,1.1982631593417163,57.61770531367012,2,v,1.9109611000003497,incorrect,b
212,2F4K,213,1,73.77231534532746,59.259983663000895,2.3184642168728016,60.10908816977899,2,n,1.3888382999994064,correct,n
213,2F4K,214,2,37.95692459999151,53.21996011027094,1.1009185507860395,55.11537827379816,2,b,2.4897204999997484,correct,b
214,2F4K,215,1,48.91008286516802,59.53492761244252,1.3825220457890288,60.32861559239479,1,n,1.5951385999997,incorrect,c
215,2F4K,216,2,46.18075283920452,61.57884295446837,1.306242347367215,61.935529664859104,2,b,0.9896771000003355,correct,b
216,2F4K,217,1,68.8994320738646,56.34924932007085,2.0950475121876835,57.74061572735464,2,n,0.812259900000754,correct,n
217,2F4K,218,2,62.23268071771721,51.44352189194881,1.823841579954815,53.59547775871711,1,b,1.1703113000003214,incorrect,v
218,2F4K,219,1,59.75089539435771,48.64842533947542,1.7321055680208928,51.170685782102,2,n,0.5587589000006119,correct,n
219,2F4K,220,2,49.59587214637232,63.22539205057488,1.402378870458175,63.19572857533616,2,v,0.9882799999995768,incorrect,b
220,2F4K,221,1,48.87727191288224,58.97243088369273,1.3815790940439598,59.87867814851056,1,n,1.6936040000000503,incorrect,c
221,2F4K,222,1,48.44401835549553,34.36454557657446,1.3691879975212764,38.626944872578655,2,c,0.5867937000002712,incorrect,n
222,2F4K,223,1,36.262401653201735,49.58771085969806,1.0628014119562512,51.989422886841,1,n,0.9389492999998765,incorrect,c
223,2F4K,224,1,42.304994043871794,60.67921970273299,1.2050974557260266,61.2338249198363,1,n,0.977501299999858,incorrect,c
224,2F4K,225,2,51.87820786297616,60.44715983660875,1.4705402125632532,61.05137459548598,2,v,1.1103298999996696,incorrect,b
225,2F4K,226,1,61.24025716642051,49.74814320684027,1.7865889140108886,52.12890257385822,2,n,1.8211122000002433,correct,n
226,2F4K,227,1,47.82187109336054,32.23170377038954,1.351588642696156,36.803266593368434,2,n,0.7880009000000427,correct,n
227,2F4K,228,1,58.85182055905182,45.51350759691951,1.7000234144613044,48.41753475034327,2,n,0.806249399999615,correct,n
228,2F4K,229,2,46.30056135963482,56.682086162933935,1.309500708986583,58.01532041431918,2,v,0.7225871000000552,incorrect,b
229,2F4K,230,2,53.81348523431483,38.272574705904645,1.5309260081792588,42.02753256536307,1,v,0.776090700000168,correct,v
230,2F4K,231,1,66.68439086297059,47.33919400561569,2.0007372644580794,50.024174215911934,2,n,2.1791667999996207,correct,n
231,2F4K,232,1,43.17157344477226,51.79691281093285,1.227010167109762,53.89931067026205,1,c,0.8668978000005154,correct,c
232,2F4K,233,1,46.80095787038552,54.8393167415458,1.3231977955686849,56.48303966660815,1,c,1.2081076000004032,correct,c
233,2F4K,234,2,25.55486161171333,43.31245734902972,0.8506548857791338,46.47340651114122,2,b,1.4980274999998073,correct,b
234,2F4K,235,1,40.96220576901179,30.172221543644792,1.171913569868251,35.07108863083104,2,c,1.917078900000888,incorrect,n
235,2F4K,236,1,26.52143088363858,46.77398859814651,0.8679253855907425,49.52761986394248,1,c,0.7030383999999685,correct,c
236,2F4K,237,2,50.87477809898766,37.47291076928353,1.4401742158048418,41.32684101733256,1,v,1.0453147000007448,correct,v
237,2F4K,238,2,43.23064984026914,57.24700376911509,1.2285184251537271,58.47938022303211,2,v,0.8184025000000474,incorrect,b
238,2F4K,239,2,45.68647475178026,57.26680836500507,1.2928852572478469,58.49559792807781,2,v,3.4596692000004623,incorrect,b
239,2F4K,240,2,41.95659649467188,33.25932044679753,1.196398407175825,37.67849753971316,1,v,0.9397931000003155,correct,v
240,2F4K,241,2,37.24423274501311,23.161392988485687,1.0847232301359455,29.456777919593424,1,v,1.7769544000002497,correct,v
241,2F4K,242,1,38.55264892708294,45.698952768519625,1.1146412638069727,48.58105296565564,1,n,4.351783500000238,incorrect,c
242,2F4K,243,1,63.765763640590976,54.409909738394845,1.88292157143869,56.12218657585964,2,n,2.7508248999993157,correct,n
243,2F4K,244,1,57.59554231373647,41.24629448650784,1.6561877952590969,44.64701150810304,2,n,1.231004799999937,correct,n
244,2F4K,245,2,63.723739739366415,48.29867608011459,1.8812768756868303,50.86496521551364,1,v,2.9628900999996404,correct,v
245,2F4K,246,1,51.00491088951988,37.312530869505856,1.444076655767948,41.18656442180032,2,n,1.5722508999997444,correct,n
246,2F4K,247,2,28.40795825495905,40.96704583853716,0.902650092193254,44.400380716010005,2,b,1.2482532999993055,correct,b
247,2F4K,248,2,71.82952921527851,56.71266225863501,2.226667090301542,58.0405087640226,1,v,0.9534194999996544,correct,v
248,2F4K,249,2,57.3322220182141,47.34422204125751,1.6471439700011392,50.02858761008717,1,v,2.0806947999999466,correct,v
249,2F4K,250,1,60.34247985792834,44.34155756553848,1.7535449292567389,47.382973205010735,2,n,1.1647109999994427,correct,n
250,2F4K,251,1,32.74463632670819,50.63553794208352,0.9878330135835544,52.89829808163428,1,c,0.5527326000001267,correct,c
251,2F4K,252,1,40.25077915006345,47.04981767360408,1.1547042400206975,49.77005294940462,1,c,3.3635967000000164,correct,c
252,2F4K,253,1,50.6356492079659,40.92376218185877,1.4330306595402995,44.36216091875631,2,n,0.7151692999996158,correct,n
253,2F4K,254,2,43.96743585113645,60.13426789768676,1.2474855249628414,60.80445751329582,2,v,1.328162799999518,incorrect,b
254,2F4K,255,1,66.98733959527024,50.94156084644176,2.0133809761519186,53.16275031401055,2,n,1.2445051000004241,correct,n
255,2F4K,256,1,44.22842357331479,56.43817441896201,1.2542741421259656,57.81410146593648,1,c,0.9457671000000119,correct,c
256,2F4K,257,1,68.75703523241481,43.99549878200199,2.08885312823323,47.07718783301813,2,n,0.7104158000001917,correct,n
257,2F4K,258,1,44.15524026576817,52.23098327677887,1.2523668342381584,54.2715406776737,1,n,2.256677800000034,incorrect,c
258,2F4K,259,1,57.9153172823787,67.89933368734081,1.667237368086947,66.5845197606192,1,n,0.619452399999318,incorrect,c
259,2F4K,260,1,38.91131632228125,59.580921597724895,1.1229856478189806,60.36526399058437,1,c,1.5405314999998154,correct,c
260,2F4K,261,2,64.79512383851872,54.58232619396341,1.9236598462423904,56.26724027428037,1,v,1.1413580999997066,correct,v
261,2F4K,262,1,36.77612679259371,47.67631701545226,1.074215768186752,50.31992238809027,1,c,5.0,correct,c
262,2F4K,263,2,41.53951982935172,55.63023301098799,1.1860670706831462,57.14403265040693,2,v,1.511841700000332,incorrect,b
263,2F4K,264,1,47.7178759478717,56.6303571232657,1.3486689656461588,57.97268814409075,1,n,1.042902299999696,incorrect,c
264,2F4K,265,1,62.230065546512456,43.4784980569917,1.823742400402107,46.620200113934864,2,n,2.341617299999598,correct,n
265,2F4K,266,2,63.24319050019042,39.07734323098892,1.8625713792834973,42.73458232944332,1,v,1.8271280999997543,correct,v
266,2F4K,267,1,49.73416225775788,66.84878878212139,1.406417442119996,65.84880054806511,1,n,0.939655700000003,incorrect,c
267,2F4K,268,1,51.36671721080514,71.2362091780887,1.4549822128723655,68.81231340012589,1,c,2.0429580999998507,correct,c
268,2F4K,269,1,74.14573265832051,54.13895693815408,2.3365371566308557,55.89380047939019,2,n,1.6199046000001545,correct,n
269,2F4K,270,1,30.467106396559835,45.55143273541518,0.942139888722912,48.45098051458789,1,c,3.471830499999669,correct,c
270,2F4K,271,2,45.94836794531434,57.562163199601606,1.2999454086230011,58.73704138376998,2,b,2.143613400000504,correct,b
271,2F4K,272,2,55.24739313253131,42.69757587353926,1.577261417224593,45.92975394881488,1,v,0.6908787000002121,correct,v
272,2F4K,273,1,61.012851353987806,43.59466113553235,1.7781604880407442,46.72289146660292,2,n,2.4328886000002967,correct,n
273,2F4K,274,2,38.893833626239726,60.49040923750302,1.1225774690715364,61.0854222639409,2,b,2.2397031000000425,correct,b
274,2F4K,275,2,45.12015508925688,58.05095037962265,1.277749168658017,59.1348569654041,2,b,1.9231301999998323,correct,b
275,2F4K,276,1,52.74109852407873,67.42108056366492,1.497164718358575,66.25154874345414,1,n,3.2219685000000027,incorrect,c
276,2F4K,277,1,26.20679874187932,43.799620516346295,0.8622654399215554,46.9040650552692,1,c,1.631578200000149,correct,c
277,2F4K,278,2,52.77024502464084,69.04123798633877,1.4980724016380098,67.36597790518394,2,v,1.262709200000245,incorrect,b
278,2F4K,279,2,67.10691789032806,50.17577408045794,2.0183935997602336,52.50012724697133,1,v,0.938626000000113,correct,v
279,2F4K,280,2,58.91428584302858,46.21741728486989,1.702233059059184,49.03787048975123,1,v,0.8426606999992146,correct,v
280,2F4K,281,1,44.526373357954704,29.696177400381515,1.2620693613374452,34.67529032851516,2,n,2.2020995000002586,correct,n
281,2F4K,282,1,39.48536738618078,52.299091806654495,1.136471118995644,54.3298461324444,1,c,1.206699800000024,correct,c
282,2F4K,283,1,56.4946566948893,68.68123478443638,1.6187045673711769,67.1217015641898,1,n,0.6376284999996642,incorrect,c
283,2F4K,284,1,29.36479297828236,47.71574023439653,0.9207898204586844,50.3544849054231,1,c,2.353784099999757,correct,c
284,2F4K,285,2,33.015028619803644,43.64398773403255,0.9934028966261288,46.7664956689688,2,b,1.2067662999997992,correct,b
285,2F4K,286,2,48.96242362945717,63.31438409886029,1.3840275958632584,63.262914877341935,2,v,0.9093523999999888,incorrect,b
286,2F4K,287,1,46.390509870858565,36.81488261557554,1.3119523261578538,40.75188473568117,2,c,4.333593100000144,incorrect,n
287,2F4K,288,1,34.946007276098435,47.566742142882255,1.0341032353822643,50.2238326518958,1,n,2.2742731999996977,incorrect,c
288,2F4K,289,2,64.18304525868142,48.08212554415509,1.899331012077129,50.6754613728962,1,v,1.959307699999954,correct,v
289,2F4K,290,1,59.26744683256804,77.96561650999749,1.7147798920778057,72.74863386738998,1,n,4.988001100000474,incorrect,c
290,2F4K,291,1,57.97826097744274,51.63433420924832,1.6694210060488726,53.75961736091075,2,n,0.9032703000002584,correct,n
291,2F4K,292,1,49.229338992268495,62.65275233911154,1.3917307898883216,62.76109920700673,1,n,1.3028936999999132,incorrect,c
292,2F4K,293,1,27.214529583643227,45.88564080844172,0.8805250100956442,48.74560405998154,1,c,0.786910199999511,correct,c
293,2F4K,294,1,41.78203636864288,51.57288832431338,1.1920635019228532,53.70678254065369,1,c,0.9107291000000259,correct,c
294,2F4K,295,1,37.35560505968283,52.86175276769959,1.0872382759217478,54.81044619837663,1,c,0.9700340999997934,correct,c
295,2F4K,296,2,47.52440482007395,34.15465889954703,1.3432540097119716,38.44630065622779,1,v,2.6511375000000044,correct,v
296,2F4K,297,1,32.1863750115926,48.31277852096067,0.9764318435158844,50.87730072834466,1,c,0.9349947999999131,correct,c
297,2F4K,298,2,35.25874190944207,44.82016139125176,1.040850061146963,47.8056856268422,2,b,1.0671361999993678,correct,b
298,2F4K,299,1,63.30126468829012,51.94382597700507,1.8648220141641632,54.02541532586985,2,n,1.2626997000006668,correct,n
299,2F4K,300,2,49.03028363674887,60.98521445984529,1.3859819885180666,61.47350807714389,2,v,1.4859519000001455,incorrect,b
300,2F4K,301,2,24.48113560333481,35.222233230714835,0.8318723487217133,39.36753354179908,2,v,0.7455356000000393,incorrect,b
301,2F4K,302,1,50.70353781852142,44.487735419970576,1.4350551032328365,47.51210667108956,2,n,0.8621811000002708,correct,n
302,2F4K,303,1,54.38789672444687,30.208008452716115,1.5493218786781242,35.10091636252005,2,n,0.7084124999992127,correct,n
303,2F4K,304,1,40.63502261019884,54.12980438012854,1.163967420978568,55.88607664536826,1,c,0.8850457999997161,correct,c
304,2F4K,305,1,58.4987213552221,78.34515884033897,1.687586720975933,72.94681258676694,1,n,1.039198600000418,incorrect,c
305,2F4K,306,2,41.9860770771071,31.325428614466524,1.1971320619132657,36.03721729156793,1,b,1.2128328999997393,incorrect,v
306,2F4K,307,1,51.182354979037726,34.971901286569306,1.449414919028048,39.150993712697606,2,c,0.9389543999996022,incorrect,n
307,2F4K,308,2,32.895335015984905,49.83381196710304,0.9909334324939812,52.20333693638299,2,b,1.6376248000005944,correct,b
308,2F4K,309,1,71.511602945065,63.337367940539735,2.2119949445700016,63.28025117882168,2,n,1.8575334999995903,correct,n
309,2F4K,310,1,31.309951418097384,44.57894397326743,0.9587978257601376,47.59266912325657,1,c,0.8052487000004476,correct,c
310,2F4K,311,2,62.33274624381095,44.45151901118304,1.827640588151088,47.48011510533354,1,v,2.9549041000000216,correct,v
311,2F4K,312,2,70.16982191085789,51.6458376668419,2.151129915055748,53.76950639294451,1,v,2.500745299999835,correct,v
312,2F4K,313,1,43.15163826737047,59.97415232148684,1.2265016272854194,60.6777016888145,1,c,1.2066773000005924,correct,c
313,2F4K,314,1,30.048467256597377,40.58051782018174,0.933973821248286,44.05915970978577,1,c,1.5916431000005105,correct,c
314,2F4K,315,1,52.69395083308512,40.74434754061333,1.4956976043877357,44.203761682739305,2,n,1.0975190999997722,correct,n
315,2F4K,316,2,56.27307865238684,44.11116156591399,1.6112634031562048,47.179401089193306,1,v,2.282308599999851,correct,v
316,2F4K,317,2,68.85800458937162,51.34226524619452,2.0932434890415137,53.50829470524335,1,v,1.5041198999997505,correct,v
317,2F4K,318,2,56.68253815909092,42.46638133642328,1.6250410301706335,45.72534335898207,1,v,1.0731953999993493,correct,v
318,2F4K,319,2,47.31079336432351,39.02211416161816,1.3373006077488157,42.68600576034346,1,b,1.22026840000035,incorrect,v
319,2F4K,320,1,57.0308225457973,68.24021407279093,1.6368529002729717,66.81981884501259,1,n,1.1264338000000862,incorrect,c
320,2F4K,321,1,46.94887303960164,36.10040969705901,1.3272739654331212,40.12949900999967,2,n,1.8875448999997388,correct,n
321,2F4K,322,1,47.33666106577108,31.751857068684743,1.3380201402358138,36.39695309947623,2,n,0.9457357999999658,correct,n
322,2F4K,323,2,54.62940742681901,46.2763822474819,1.5571222582521214,49.089789493932265,1,v,1.1642941000000064,correct,v
323,2F4K,324,1,65.83889042479372,57.28468789670646,1.965868352769656,58.51023621427184,2,n,3.551975699999275,correct,n
324,2F4K,325,1,52.13131382834315,62.94683703939128,1.4783003495961122,62.98480280912387,1,n,1.1338709000001472,incorrect,c
325,2F4K,326,2,63.669668966731166,50.64163199504414,1.8791628129199855,52.90356887184428,1,v,1.278866200000266,correct,v
326,2F4K,327,2,52.53545592254459,38.250052978481925,1.4907761852287782,42.007771209348576,1,v,0.8743106000001717,correct,v
327,2F4K,328,1,33.6922612480228,47.9266514021349,1.0074916189688268,50.53930903318217,1,c,0.6240019999995638,correct,c
328,2F4K,329,2,48.08600532555824,56.3715772279886,1.3590326907917525,57.75907327918717,2,v,1.3790478999999323,incorrect,b
329,2F4K,330,2,66.30517541816809,49.88487672675279,1.9850223655774997,52.2476897495565,1,v,2.1609000000007654,correct,v
330,2F4K,331,1,30.125088304417886,43.4120431399364,0.9354630984128016,46.56144966754225,1,c,1.062459900000249,correct,c
331,2F4K,332,1,36.38009226922984,55.162125047435325,1.065405599210683,56.753404073082166,1,c,2.682883800000127,correct,c
332,2F4K,333,2,58.98919931687912,44.12402108671255,1.704886833364744,47.19076463195548,1,v,1.0479334000001472,correct,v
333,2F4K,334,1,41.92662577586191,35.03125842374974,1.195653015777532,39.20231032643054,2,n,5.0,correct,n
334,2F4K,335,2,51.17462529647322,64.26072279618911,1.4491819671588435,63.97127716168148,2,v,0.9882513999991716,incorrect,b
335,2F4K,336,2,50.88615521533592,34.05745468499788,1.4405149732239604,38.36272119793917,1,v,0.873163399999612,correct,v
336,2F4K,337,1,47.3453873190108,60.94264582396062,1.3382629558341714,61.440225974694975,1,n,3.4303382999996757,incorrect,c
337,2F4K,338,2,63.51683406477549,76.35895685683668,1.8732001023059364,71.88068656195539,2,v,1.9474938000003021,incorrect,b
338,2F4K,339,2,57.26507910571248,40.48305712624244,1.6448458362166851,43.97315574941376,1,v,2.5904915999999503,correct,v
339,2F4K,340,1,58.64963024575557,63.18604162286961,1.6928907909044228,63.16598924953422,1,n,2.282186200000069,incorrect,c
340,2F4K,341,2,42.60460539697329,58.52376764699476,1.2126289427767776,59.51754059353117,2,b,1.716562100000374,correct,b
341,2F4K,342,1,52.79821205816881,40.47902046898032,1.4989438711778065,43.96959391724288,2,n,0.8074556000001394,correct,n
342,2F4K,343,2,42.10723930132445,54.01020876894314,1.2001520361092823,55.785095739014864,2,b,0.8427236999996239,correct,b
343,2F4K,344,1,53.88511711298571,44.83668754078512,1.5332080875686098,47.8202771224852,2,n,1.7833004000003712,correct,n
344,2F4K,345,1,47.3426195602483,66.41669983476416,1.3381859357641626,65.54166275197075,1,n,4.17600610000045,incorrect,c
345,2F4K,346,2,37.17126843292172,55.5933073845851,1.0830786814918514,57.11328149384575,2,b,1.2795825000002878,correct,b
346,2F4K,347,2,24.59798889926461,41.2182331895764,0.8338961698380124,44.622224074938245,2,v,0.6801271000003908,incorrect,b
347,2F4K,348,2,51.076025067428425,64.07676447876626,1.4462137039267602,63.83446168867975,2,b,1.601343100000122,correct,b
348,2F4K,349,2,69.48526239986379,49.73005179023593,2.1207254660808705,52.11317950325725,1,b,1.0732525999992504,incorrect,v
349,2F4K,350,2,59.70307415792114,45.57668936078273,1.7303839929795473,48.47325268536433,1,v,0.6679139999996551,correct,v
350,2F4K,351,1,53.9912868551143,66.11053744641943,1.53659674816052,65.32246779009064,1,n,1.948575599999458,incorrect,c
351,2F4K,352,1,57.69446200441379,73.50223796099893,1.6595980418921366,70.22449905149551,1,c,0.8753365999991729,correct,c
352,2F4K,353,1,38.27001675321068,58.018718594027,1.108109539512188,59.10869242817177,1,n,1.4255700000003344,incorrect,c
353,2F4K,354,1,56.94499328733931,36.98857693730222,1.6339341010075212,40.9034969895335,2,n,0.6726650000000518,correct,n
354,2F4K,355,1,43.02568295901791,51.30217638186701,1.2232934179426964,53.47376252065167,1,c,0.6305758999997124,correct,c
355,2F4K,356,1,37.592749466837255,24.91066214233316,1.0926129927668775,30.81028536060501,2,c,4.048385000000053,incorrect,n
356,2F4K,357,1,49.7424773073977,61.24298529322832,1.4066606419978869,61.67461608530614,1,c,2.8113060000005134,correct,c
357,2F4K,358,2,36.77204508038143,26.396173011953,1.0741245960383043,31.9861135477894,1,b,4.4441053000000466,incorrect,v
358,2F4K,359,2,58.33893283914571,66.08042797294553,1.6819886672590625,65.30084148252757,2,v,1.0732757999994647,incorrect,b
359,2F4K,360,1,36.97737221938539,51.59051037321,1.0787205451075303,53.72193715877421,1,c,4.617608700000346,correct,c
360,2F4K,361,2,40.553665889081,57.74158161347999,1.1619999258434062,58.883323373423146,2,v,4.168646899999658,incorrect,b
361,2F4K,362,2,38.3138322117155,52.16879030749767,1.1091196168600277,54.218275359590365,2,b,1.109627900000305,correct,b
362,2F4K,363,2,37.319560915269605,51.9848668018133,1.0864236777619594,54.06062115008233,2,b,1.3729595000004338,correct,b
363,2F4K,364,2,41.81079262725998,52.17577818024395,1.1927765328075377,54.22426127658123,2,b,1.2252826000003552,correct,b
364,2F4K,365,1,42.56262132406112,59.51660560943451,1.211570738165173,60.31401043017827,1,c,2.1548603000001094,correct,c
365,2F4K,366,1,47.38488637805872,43.21628408232955,1.339362602825804,46.38837759907463,2,n,4.084758900000452,correct,n
366,2F4K,367,1,53.8444401331778,34.18399141737629,1.5319117656771644,38.47153198085368,2,n,1.041945900000428,correct,n
367,2F4K,368,2,34.374480446777575,48.89141007616924,1.0218861083356814,51.38281835321992,2,v,5.0,correct,b
368,2F4K,369,1,45.587247576211,60.13009108272594,1.29022030549797,60.801154362236815,1,c,1.1899947000001703,correct,c
369,2F4K,370,2,40.92169996504951,50.4672217950761,1.1709268890932565,52.75264838270563,2,b,0.8252694000002521,correct,b
370,2F4K,371,2,67.02580555151921,53.75814883621901,2.01499207769095,55.571941448951485,1,v,2.135306300000593,correct,v
371,2F4K,372,1,63.98154547726324,49.9484986020313,1.891389331595514,52.30293288993026,2,n,3.2281144999997196,correct,n
372,2F4K,373,2,56.44920730712188,74.06621944974438,1.6171754629746868,70.56265756934299,2,v,1.178768200000377,incorrect,b
373,2F4K,374,1,34.93566426981107,49.31345890103679,1.033880847715242,51.75073520915639,1,c,1.2795478000007279,correct,c
374,2F4K,375,2,49.79197004484279,31.906361750584157,1.4081090837276935,36.52760895317565,1,v,2.798189499999353,correct,v
375,2F4K,376,1,40.19098187370713,29.855534773999658,1.1532693160326686,34.80758127935777,2,n,1.9399883000005502,correct,n
376,2F4K,377,2,52.7421963129866,63.921323964018015,1.4971988958430933,63.71852097024627,2,b,1.33421350000026,correct,b
377,2F4K,378,1,61.92012702693298,56.49536122417899,1.812026194240692,57.8613240921632,2,c,0.9458126000008633,incorrect,n
378,2F4K,379,1,59.18325597069814,44.05316137062916,1.7117804536632597,47.12814656483884,2,n,0.8682339000006323,correct,n
379,2F4K,380,2,41.50656541110599,54.14192352582454,1.185254575456686,55.89630385232612,2,v,1.4434375999990152,incorrect,b
380,2F4K,381,1,44.94048669344316,55.43850620147185,1.2729842775304,56.98424751934838,1,n,0.6548348000014812,incorrect,c
381,2F4K,382,1,79.7749864409862,66.90239994338411,2.6266966427824445,65.88672614658628,2,n,1.166711600000781,correct,n
382,2F4K,383,2,61.19148172692639,51.48409634455346,1.784777772780004,53.63039720585055,1,v,1.15821330000108,correct,v
383,2F4K,384,1,31.183052191887736,47.362061453260615,0.9562710898704342,50.044245697433794,1,c,1.966727600000013,correct,c
384,2F4K,385,1,29.84476290123117,45.35151686801494,0.9300259567170424,48.274649862251145,1,c,1.0186410999995132,correct,c
385,2F4K,386,1,61.99303236206678,50.310190971111226,1.8147753524906187,52.61664096743005,2,n,0.8732916999997542,correct,n
386,2F4K,387,1,45.32253046380382,31.0461867246588,1.2831376219751498,35.80235787580823,2,n,1.680208699999639,correct,n
387,2F4K,388,2,61.24341800991557,72.85086162041945,1.7867063465945905,69.82725511920682,2,v,1.1342172999993636,incorrect,b
388,2F4K,389,1,70.21065926012336,59.92897297782103,2.152957406330776,60.64188665336066,2,n,1.9775121999991825,correct,n
389,2F4K,390,2,38.1826548290166,47.390956565812914,1.1060983306140568,50.06960570282407,2,b,1.4376674000013736,correct,b
390,2F4K,391,2,52.04726108847336,42.77467072315996,1.4757187921749604,45.99791894226619,1,v,0.945987500001138,correct,v
391,2F4K,392,1,52.94003090032391,39.54886881834575,1.5033708409351842,43.14959977965101,2,n,1.225057800000286,correct,n
392,2F4K,393,1,23.756957339193427,35.80937090744631,0.8194391463441189,39.87658657625985,1,c,1.110994300001039,correct,c
393,2F4K,394,1,54.86010526663471,39.60916599754,1.564610072762786,43.20270612950156,2,n,0.9758670999999595,correct,n
394,2F4K,395,1,48.70309344323127,65.645132702907,1.3765841493677022,64.98680770284061,1,c,0.9349904000009701,correct,c
395,2F4K,396,1,69.63382277484517,59.14060374782278,2.127286996458946,60.013531974913775,2,n,1.0966105000006792,correct,n
396,2F4K,397,2,62.67940568754694,68.92964642370757,1.84086288215022,67.29046666468335,2,v,1.1352897000015219,incorrect,b
397,2F4K,398,2,43.1158718859852,56.50634214009472,1.2255897668838758,57.87038853015011,2,v,1.0539774999997462,incorrect,b
398,2F4K,399,1,50.13326420694268,38.07883167300637,1.4181379971856216,41.85758482857633,2,n,1.9716678999993746,correct,n
399,2F4K,400,1,65.47073950805034,57.975591503120114,1.9508761403547887,59.07366826851637,2,n,0.680072499999369,correct,n
