,condition,trial,sub_task,x,y,xt,yt,cat,resp,rt,acc,correct_resp
0,4F4K,1,2,48.6508340750359,63.75586073901688,1.375089023752652,64.13281152624074,2,b,5.0,NA,b
1,4F4K,2,1,53.34485212398993,37.50633878740741,1.5160796643059071,41.49034016145811,2,n,4.472280899999532,correct,n
2,4F4K,3,1,50.54316028350684,69.05644156582558,1.4302772274801965,67.98295362168562,1,n,1.5284130000000005,incorrect,c
3,4F4K,4,2,60.40926566894515,52.720223985538105,1.755981894979855,55.06609363787671,1,b,5.0,incorrect,v
4,4F4K,5,2,40.90712313203456,60.65347439612995,1.1705720153606982,61.70841863708678,2,v,1.498067199999241,incorrect,b
5,4F4K,6,1,61.15336475481284,76.6583990838598,1.7833636824417411,72.73750671960724,1,n,2.093105999999352,incorrect,c
6,4F4K,7,2,57.4251433602544,68.69217903556772,1.650329732526466,67.7313720620208,2,v,1.5471537000003082,incorrect,b
7,4F4K,8,1,43.61416903753149,56.549009718475695,1.2383551021409342,58.34034203420088,1,c,2.55052650000016,correct,c
8,4F4K,9,1,62.85069423948313,43.89957965443287,1.8474314421171176,47.22900476490136,2,n,1.6366106999994372,correct,n
9,4F4K,10,2,48.35677945740224,59.77276485947976,1.3667064299384013,61.00006574426174,2,b,1.1110508000001573,correct,b
10,4F4K,11,1,69.80503267981437,49.04017973061623,2.134874082452445,51.83125058530943,2,n,1.8560709999992469,correct,n
11,4F4K,12,1,39.66399628388625,25.301441385752327,1.1407003721030358,31.06567904141431,2,c,2.256642400000601,incorrect,n
12,4F4K,13,1,52.06633278902913,43.69563827249471,1.4763041559770884,47.045469641107815,2,n,2.6949838000000454,correct,n
13,4F4K,14,1,53.18438445516181,64.15043299073895,1.511029193099372,64.43269258425094,1,n,1.2737767999997232,incorrect,c
14,4F4K,15,2,42.36544478461203,59.70592053491119,1.206613261311754,60.94596371541721,2,b,5.0,incorrect,b
15,4F4K,16,1,37.12872033111224,48.10184797006477,1.0821208374470366,50.99650406020002,1,c,0.9943397000006371,correct,c
16,4F4K,17,1,39.05083113402662,51.22832719370179,1.1262483044001823,53.763244343729774,1,c,2.4933608000001186,correct,c
17,4F4K,18,2,40.54743943957354,57.389980578104506,1.161849485203591,59.04366805932283,2,v,1.6741743000002316,incorrect,b
18,4F4K,19,2,58.81713961301094,44.89291186084604,1.6987978505502392,48.12243961555398,1,b,3.1562118000001647,incorrect,v
19,4F4K,20,2,66.69353306961821,50.48436438034519,2.001117654459037,53.10893754581747,1,b,1.4483556999994107,incorrect,v
20,4F4K,21,1,33.84783721637767,47.20103387122441,1.0107562443709677,50.1923107135336,1,n,4.011915399999452,incorrect,c
21,4F4K,22,2,70.58093086679526,59.855634757373394,2.169598259166991,61.0670729296495,1,b,2.215536400000019,incorrect,v
22,4F4K,23,1,48.568584665680376,59.19825203129332,1.3727391800371764,60.533548307021725,1,c,2.3980842999999368,correct,c
23,4F4K,24,2,53.78272281024732,72.14769482772746,1.5299470084474232,70.03378003176388,2,v,1.5223703000001478,incorrect,b
24,4F4K,25,1,52.360058245179225,61.81664195583146,1.4853487925866524,62.63074621310795,1,n,2.056408000000374,incorrect,c
25,4F4K,26,2,48.40578288733506,64.99510535259914,1.368099810423378,65.06783457846305,2,v,5.0,incorrect,b
26,4F4K,27,2,53.172023257088185,63.49181944747133,1.5106408421947617,63.93102545461903,2,v,2.3476727999996,incorrect,b
27,4F4K,28,1,42.86588481670735,25.3228310431637,1.2192352714505337,31.0828391713461,2,n,2.713126900000134,correct,n
28,4F4K,29,2,46.28763843516364,56.15492197831232,1.309148861131198,58.00862397952194,2,b,3.2168857999995453,correct,b
29,4F4K,30,1,33.97451440630546,48.50396867900046,1.0134222661921988,51.354630949433655,1,n,3.2714775999993435,incorrect,c
30,4F4K,31,2,60.98792904187172,45.53979742798125,1.7772392041623224,48.70360663694832,1,b,1.1596684000005553,incorrect,v
31,4F4K,32,1,35.965243492853375,49.07150388034842,1.056254366026326,51.85905893480358,1,c,4.096819399999731,correct,c
32,4F4K,33,1,50.58062928214799,61.09158539656926,1.4313920564015472,62.05762005416902,1,n,1.8445056000000477,incorrect,c
33,4F4K,34,2,36.36749801079279,45.06202937044829,1.0651266164137143,48.27443672907098,2,v,2.183850899999925,incorrect,b
34,4F4K,35,2,37.08097643334548,55.12313255303616,1.081047034034346,57.134018073019945,2,b,1.7421909000004234,correct,b
35,4F4K,36,1,33.61402881396786,45.3345412005606,1.0058539663132475,48.51927353806754,1,c,3.866285600000083,correct,c
36,4F4K,37,2,62.826643730328506,44.76819268068987,1.8465077425776255,48.01032178515535,1,b,5.0,correct,v
37,4F4K,38,1,63.78859903868764,53.304401567717335,1.8838158867166437,55.572522937000855,2,n,1.4070206000005783,correct,n
38,4F4K,39,1,46.57905607877392,62.419297842390144,1.3171062051908793,63.10244636765872,1,c,3.969447399999808,correct,c
39,4F4K,40,1,42.27907757139989,57.35594629813428,1.2044481821105548,59.01532787970378,1,n,1.4616501000000426,incorrect,c
40,4F4K,41,2,62.836258955965455,42.12755533504208,1.8468769757797885,45.63394120920778,1,b,5.0,incorrect,v
41,4F4K,42,2,43.00492235407736,66.21040460820689,1.2227654304694056,65.96482163471316,2,v,1.2363107000001037,incorrect,b
42,4F4K,43,1,72.4490623121576,61.68075244088777,2.255538433709704,62.52379356539414,2,n,1.3220677000008436,correct,n
43,4F4K,44,2,51.90839729983316,68.79157010609002,1.471463665908084,67.80021842524965,2,b,3.5021043999995527,correct,b
44,4F4K,45,2,45.90056179651905,61.16308282051075,1.2986537738135993,62.11440323182825,2,b,2.635380300000179,correct,b
45,4F4K,46,1,36.514056121735926,45.66519809103428,1.0683776372695022,48.81618857856634,1,c,1.1282780000001367,correct,c
46,4F4K,47,2,51.416185124931424,41.44683203778712,1.45647965962073,45.02139613032063,1,v,5.0,correct,v
47,4F4K,48,2,49.9790757519778,59.428735961829005,1.4135983612865146,60.721118149421606,2,v,0.8716217000001052,incorrect,b
48,4F4K,49,2,53.36773533262463,36.82140618429159,1.516801251787918,40.88095964398943,1,b,2.6767760000002454,incorrect,v
49,4F4K,50,1,46.21542358614029,55.41968972207789,1.3071844326870534,57.38627841602104,1,c,1.8381293000002188,correct,c
50,4F4K,51,2,60.70320917690047,51.96562015696481,1.7667479993484554,54.40874078345751,1,v,2.2155088999998043,correct,v
51,4F4K,52,2,55.7184829942799,40.92292875850332,1.592788257044177,44.55024347914117,1,v,2.8891615000002275,correct,v
52,4F4K,53,1,46.08634590056233,61.31767984572488,1.3036805299751788,62.236985520247366,1,n,1.4630179000005228,incorrect,c
53,4F4K,54,2,35.03397108502164,46.01930965018962,1.035996502516322,49.13394292947299,2,b,2.590703800000483,correct,b
54,4F4K,55,1,33.756429012153646,46.80765388446783,1.0088368437010744,49.84037896897079,1,n,1.2189053000001877,incorrect,c
55,4F4K,56,2,42.20099104445987,56.76185373631737,1.2024940298685072,58.51894280875821,2,b,5.0,incorrect,b
56,4F4K,57,1,53.65908249172004,41.63069892754098,1.5260185239133963,45.18681437965353,2,c,1.2250027999998565,incorrect,n
57,4F4K,58,2,50.559955432596574,65.44665362087177,1.4307768323270758,65.40347121210563,2,b,1.6259499999996478,correct,b
58,4F4K,59,1,57.38726881910555,69.61209067570867,1.6490304792805686,68.36278515433904,1,n,1.5405713999998625,incorrect,c
59,4F4K,60,1,55.4931764271422,70.05418792831593,1.5853433093970293,68.66155584854323,1,c,0.70910190000086,correct,c
60,4F4K,61,1,47.69734325358085,30.01301737349246,1.3480932536091808,34.95624330349069,2,c,2.39244619999954,incorrect,n
61,4F4K,62,1,65.12031497002764,55.24597256467946,1.9367120216145377,57.23859369119571,2,n,2.719297099999494,correct,n
62,4F4K,63,2,56.25301447829506,40.5934012086069,1.6105912875949415,44.25406629220102,1,b,2.2701563000000533,incorrect,v
63,4F4K,64,2,48.96041576571223,65.95181856929582,1.3839698106611158,65.77566686084066,2,b,2.4097464000005857,correct,b
64,4F4K,65,1,60.50592372624679,76.18250071274981,1.759514876285676,72.4692703090415,1,c,1.8986643999996886,correct,c
65,4F4K,66,1,50.58697987560505,31.06772044986701,1.431581094049996,35.854187122129964,2,n,3.725401900000179,correct,n
66,4F4K,67,2,34.03189236141393,48.84688532138188,1.0146321435166683,51.65956527574722,2,v,1.074663700000201,incorrect,b
67,4F4K,68,1,61.394915330921606,55.35792872170688,1.7923438797242828,57.33380009194735,2,n,0.6666237999997975,correct,n
68,4F4K,69,2,52.87046511360686,39.32265995815813,1.5011976671565466,43.11363626027733,1,v,0.9080137000000832,correct,v
69,4F4K,70,2,40.67816285379303,57.99053143659685,1.1650120568761242,59.54197468642734,2,b,2.57252840000001,correct,b
70,4F4K,71,1,55.67172149717075,48.26485457628487,1.591240217551849,51.141745626296014,2,n,2.5068295000000944,correct,n
71,4F4K,72,1,47.72637078419578,63.58905451101887,1.348907222528049,64.0054373755056,1,c,2.5250968999998804,correct,c
72,4F4K,73,1,38.82983326675888,48.02751832512006,1.1210844804697166,50.93024496834904,1,c,1.0311033999996653,correct,c
73,4F4K,74,2,75.71088539464954,57.55482884101994,2.413834162049153,59.180785615110594,1,b,3.527315400000589,incorrect,v
74,4F4K,75,1,30.587503464109545,46.369093077847616,0.944501572665667,49.44756066350349,1,c,2.609988400000475,correct,c
75,4F4K,76,1,44.47127245978204,64.12138196129334,1.260624121793523,64.41068174945613,1,c,1.2723885000004884,correct,c
76,4F4K,77,2,69.43745903659463,57.03672994763102,2.118618421208918,58.74900510457766,1,b,4.382177700000284,incorrect,v
77,4F4K,78,1,24.404600390838485,45.71368570944183,0.8305494726782923,48.859712064633264,1,n,3.5203734999995504,incorrect,c
78,4F4K,79,1,48.634898248140544,35.36650701624621,1.3746334274622032,39.5928823168863,2,c,1.326954700000897,incorrect,n
79,4F4K,80,2,29.699922591269136,38.65754481750941,0.9272290539021132,42.51812090591988,2,b,1.6122944999997344,correct,b
80,4F4K,81,2,36.94346115479472,22.16345868412513,1.077960141838235,28.60520681914491,1,b,1.1532391000000644,incorrect,v
81,4F4K,82,2,40.73002390412994,48.28137049704422,1.1662691071326108,51.15645643418191,2,b,4.2294959000000745,correct,b
82,4F4K,83,2,73.72131763623952,66.04530944886947,2.3160068640111997,65.84416266556062,1,v,4.200072499999806,correct,v
83,4F4K,84,2,52.281798148134655,42.04294240658249,1.4829335419026692,45.557786576427056,1,b,1.4967440000000352,incorrect,v
84,4F4K,85,2,37.40934176397144,54.81819984860501,1.0884538603953209,56.87391704934652,2,b,1.115753300000506,correct,b
85,4F4K,86,1,51.41627385176865,64.15010638337922,1.4564823468612604,64.43244518731525,1,n,1.809141400000044,incorrect,c
86,4F4K,87,1,34.16738834682055,51.522848596734406,1.017494961450464,54.02146222275893,1,n,3.4414952999995876,incorrect,c
87,4F4K,88,1,54.01535590866795,36.34353040091182,1.5373660102423787,40.45686974078813,2,c,0.6302376000003278,incorrect,n
88,4F4K,89,2,66.23234979458051,59.06114571244338,1.9820185896446616,60.42171176032372,1,b,3.502126800000042,incorrect,v
89,4F4K,90,1,58.81854517441877,52.92205361289751,1.698847503446916,55.24131226106626,2,n,1.5708565000004455,correct,n
90,4F4K,90,1,58.81854517441877,52.92205361289751,1.698847503446916,55.24131226106626,2,many,1.5708565000004455,correct,n
91,4F4K,91,2,63.68639090294755,49.627063307392895,1.8798163544598896,52.35158886147916,1,b,5.0,correct,v
92,4F4K,92,1,46.820115502817934,58.68650741813676,1.3237250252225952,60.11515365645029,1,c,2.177164700000503,correct,c
93,4F4K,93,2,62.30354128235879,45.32042479116332,1.826530998798884,48.50659354965885,1,b,1.6315699999995559,incorrect,v
94,4F4K,94,2,61.6243519561969,47.65818319980698,1.800915584811893,50.60074200971063,1,b,1.9718073000003642,incorrect,v
95,4F4K,95,1,47.321279901755005,62.2984193914548,1.3375922532096252,63.00818109836111,1,n,5.0,incorrect,c
96,4F4K,96,2,49.399574121558814,45.16293425510753,1.3966661636862154,48.3651073024295,1,v,1.6876899999997477,correct,v
97,4F4K,97,1,50.95619917032751,36.25498411104313,1.4426146452940358,40.37839309324071,2,n,1.037049499999739,correct,n
98,4F4K,98,2,54.01722723794466,76.26758150238001,1.537425835234873,72.51752776342782,2,v,1.6133694000000105,incorrect,b
99,4F4K,99,1,49.85420118246029,65.0406896698669,1.4099324410606489,65.10184220418311,1,c,0.5709054999997534,correct,c
100,4F4K,100,1,51.76942935548845,35.96139976598229,1.4672176311968776,40.11843765025577,2,c,2.731440699999439,incorrect,n
101,4F4K,101,1,47.36423043225018,33.23027283306809,1.3387874321947406,37.72069099330557,2,n,0.5503216999995857,correct,n
102,4F4K,102,1,38.075347570997295,21.785067554676715,1.103632943624184,28.3165915532886,2,n,2.1777634000000035,correct,n
103,4F4K,103,1,75.8599294232196,62.88358936380066,2.4213269234056614,63.46287406803654,2,c,1.3780416999998124,incorrect,n
104,4F4K,104,1,54.79092129521509,46.01333778539179,1.5623607800986683,49.12858626104329,2,n,0.061100599999917904,correct,n
105,4F4K,105,1,30.13855804021658,37.22482139125563,0.935725153911462,41.23966710611641,1,c,3.2905893999995897,correct,c
106,4F4K,106,2,53.84209272417077,43.82640880142717,1.5318369902961608,47.163158303353896,1,b,1.03072659999998,incorrect,v
107,4F4K,107,2,50.11574067546952,69.52925184834662,1.4176213337613228,68.30646186497016,2,b,2.1109905999992407,correct,b
108,4F4K,108,2,57.318398824280905,51.29195456525639,1.646670574353175,53.81906900117215,1,v,2.4704476000006252,correct,v
109,4F4K,109,2,50.97166424341476,64.4799520879927,1.4430786462368352,64.68158782197327,2,b,1.4192202999993242,correct,b
110,4F4K,110,2,66.02870296298188,58.74881410041151,1.9736430487346737,60.16623529038633,1,v,1.296997000000374,correct,v
111,4F4K,111,1,54.59555801206193,74.04647345562552,1.5560266185618774,71.21526196607279,1,c,1.2009967000003599,correct,c
112,4F4K,112,2,33.886998904074545,49.81070321821619,1.011579683296688,52.51410268932181,2,b,1.5419068000001062,correct,b
113,4F4K,113,2,78.38890107248412,59.68859776642965,2.552068463231069,60.93193544826521,1,v,1.03683109999929,correct,v
114,4F4K,114,2,45.75878480956007,60.175450205966136,1.2948307604990787,61.32498440121966,2,b,0.7891372999993109,correct,b
115,4F4K,115,2,49.7892881300882,60.13862916254527,1.4080305572937817,61.29534634908018,2,b,0.8420304999999644,correct,b
116,4F4K,116,1,44.7061424007731,32.37772507067486,1.2667960482513396,36.981053835878654,2,n,0.915442699999403,correct,n
117,4F4K,117,1,49.65061165180492,68.85793283261773,1.4039760735478382,67.84610287576156,1,n,2.737495200000012,incorrect,c
118,4F4K,118,2,53.56754733015806,73.32549673942951,1.5231166321037564,70.77389842470036,2,v,0.994170099999792,incorrect,b
119,4F4K,119,1,35.18839077753797,48.00951785239428,1.039328503717769,50.91419615271669,1,n,0.4980554999992819,incorrect,c
120,4F4K,120,1,45.68287746466975,58.63837143846524,1.292788548545187,60.07566334839693,1,c,0.7103217000003497,correct,c
121,4F4K,121,2,25.072412918535,38.29064617420772,0.8421635776789884,42.19011967832653,2,v,2.183716900000036,incorrect,b
122,4F4K,122,1,58.90304859574228,76.22759147409029,1.7018353413454264,72.4948619465184,1,n,0.7115562999997564,incorrect,c
123,4F4K,123,1,53.40055625632587,61.46424264590546,1.5178368097290178,62.35294516159698,1,n,4.6006311999999525,incorrect,c
124,4F4K,124,1,38.4426186938585,54.519332250979886,1.1120938639240698,56.61830129761802,1,c,1.0792664000000514,correct,c
125,4F4K,125,2,42.90723580632429,54.41806351990606,1.220284105729729,56.53153647546973,2,v,1.6683767000004082,incorrect,b
126,4F4K,126,1,63.27182777853016,49.137329164355606,1.863680862401184,51.91748315215262,2,n,2.0638209999997343,correct,n
127,4F4K,127,1,51.88287406336826,32.770606588833225,1.470682907340136,37.32131962046344,2,n,3.738669200000004,correct,n
128,4F4K,128,2,46.130548237227096,64.8717424856184,1.3048793741353002,64.97566177153996,2,b,2.1474427000002834,correct,b
129,4F4K,129,1,41.807484461879845,52.50433710243004,1.1926944829036834,54.87838591267809,1,c,1.438707300000715,correct,c
130,4F4K,130,1,32.68968227744815,43.32832272849448,0.9867048246585371,46.714853952945,1,c,1.067203900000095,correct,c
131,4F4K,131,1,56.00009368072975,39.995521309627215,1.6021428762082215,43.717120017322486,2,n,1.8074061999996047,correct,n
132,4F4K,132,1,49.33038851155566,60.16431074692492,1.3946582606550997,61.31601955211505,1,n,1.2991672000007384,incorrect,c
133,4F4K,133,2,57.79916571937185,42.80047698000852,1.663215342411143,46.23968301248287,1,b,3.7388417000001937,incorrect,v
134,4F4K,134,1,51.26037103992028,62.572773575821785,1.451768210856571,63.2218786695479,1,n,1.667985399999452,incorrect,c
135,4F4K,135,1,34.09768545731232,53.01810834255999,1.0160212411594298,55.32461024120318,1,c,0.4243656999997256,correct,c
136,4F4K,136,1,73.17254092162779,51.481786762265976,2.289727998278284,53.98549044991663,2,n,1.1035680000004504,correct,n
137,4F4K,137,1,63.93612612497191,53.7518698054755,1.889603816547214,55.95889921260867,2,n,0.5647968000002948,correct,n
138,4F4K,138,2,54.38852844145495,35.85070149006133,1.5493422309920044,40.02051828460226,1,b,1.9107718000004752,incorrect,v
139,4F4K,139,2,48.32394522300715,31.31686599953884,1.3657736040408204,36.06755059151627,1,v,0.5816512999999759,correct,v
140,4F4K,140,1,42.81902109167654,28.86786257396125,1.2180477008265411,33.9915946578289,2,c,0.8608726000002207,incorrect,n
141,4F4K,141,1,46.83459989094501,28.802621988089477,1.3241237838147608,33.93697860542497,2,c,1.6012300999991567,incorrect,n
142,4F4K,142,2,58.56314484265437,51.66581411837679,1.6898490094321552,54.14663193555456,1,v,3.6103097999994134,correct,v
143,4F4K,143,1,26.73844838022083,35.27920375981839,0.8718509685191911,39.515895450220846,1,c,1.831871599999431,correct,c
144,4F4K,144,1,52.617953594555296,36.46566062722012,1.4933357930170452,40.56516521263054,2,n,0.7036173999995299,correct,n
145,4F4K,145,1,23.352965996698774,41.35895052868078,0.8125840658976856,44.94234309054634,1,c,0.6011886999995113,correct,c
146,4F4K,146,1,56.00765286114209,40.12300459918204,1.6023947348187055,43.8315596283998,2,n,1.443458799999462,correct,n
147,4F4K,147,1,61.39797637226195,75.27173230023568,1.7924579706410693,71.94450801540647,1,n,0.6012427000005118,incorrect,c
148,4F4K,148,1,36.34480598910344,45.676483540790926,1.0646241365269866,48.82631901687122,1,c,0.8001260999999431,correct,c
149,4F4K,149,2,65.05157389871616,47.62200081013874,1.933945604259831,50.56843845776342,1,v,1.822110000000066,correct,v
150,4F4K,150,2,32.423532695476595,51.44645512736112,0.9812590643146586,53.954531059778446,2,b,0.9943393000003198,correct,b
151,4F4K,151,2,57.40251043256241,34.615432715114494,1.649553206561618,38.931810076482215,1,v,0.6125004000004992,correct,v
152,4F4K,152,1,54.86221547916831,68.61450035203727,1.5646787303542942,67.67746095419045,1,n,0.6122130000003381,incorrect,c
153,4F4K,153,1,53.41345411328534,66.69133900949822,1.5182439533115613,66.31412605834771,1,c,0.7462408000001233,correct,c
154,4F4K,154,2,65.70137658308857,57.16889574346048,1.960254942649998,58.85938316472249,1,v,1.9304078000004665,correct,v
155,4F4K,155,2,51.47420225067319,40.06171230464224,1.4582378639650055,43.77653487512643,1,v,0.7516087999993033,correct,v
156,4F4K,156,2,63.612913896388925,50.1441141244079,1.876946354736816,52.808767622015424,1,v,0.7819801999994525,correct,v
157,4F4K,157,1,53.12652975084082,69.65342594361688,1.509212435291647,68.39084954259107,1,n,0.8065763000004154,incorrect,c
158,4F4K,158,2,36.65530248817278,19.63179493489093,1.0715202201201464,26.71003851122661,1,v,3.731971400000475,correct,v
159,4F4K,159,1,57.59585477679525,43.80320819828304,1.656198556352141,47.14227935991797,2,c,2.31352219999917,incorrect,n
160,4F4K,160,1,42.5981322036925,26.26218192249841,1.2124657263029366,31.84128998839561,2,n,0.824648800000432,correct,n
161,4F4K,161,2,50.33164169584556,67.76644594737212,1.4240001032159844,67.08298538091256,2,b,2.0259705999997095,correct,b
162,4F4K,162,1,49.223070433035154,67.15768944636768,1.391549388176872,66.64969235992382,1,n,3.8781739000005473,incorrect,c
163,4F4K,163,2,60.44588868222903,65.47942897172624,1.7573196796159494,65.42772562081997,2,v,1.2070844999998371,incorrect,b
164,4F4K,164,2,62.01322406400591,43.10614827187396,1.815537490625008,46.514855627762046,1,b,1.2688082000004215,incorrect,v
165,4F4K,165,1,48.895544683987296,37.62997624223642,1.3821041546011514,41.600519036553386,2,n,2.713223100000505,correct,n
166,4F4K,166,2,58.40374855824444,52.87514394696438,1.684257188393996,55.20061085026263,1,b,0.8305243000004339,incorrect,v
167,4F4K,167,1,54.44811158319951,34.30969302128116,1.551263050449081,38.663550464598295,2,n,1.6498006000001624,correct,n
168,4F4K,168,1,61.99482246155717,45.54090692028564,1.814842907077124,48.704602836738125,2,c,1.7589703000003283,incorrect,n
169,4F4K,169,2,57.30094439321097,43.50326764600035,1.646073015994317,46.8723266149072,1,b,1.303765999999996,incorrect,v
170,4F4K,170,2,55.92455533055421,39.0105069651549,1.5996282443750345,42.83400985951313,1,v,0.8755057999997007,correct,v
171,4F4K,171,2,30.454703188669114,51.23850467428736,0.9418969257318608,53.77217521677319,2,v,0.9215410999995584,incorrect,b
172,4F4K,172,2,47.63677789774949,35.85425262196627,1.3463965051125286,40.02365862021491,1,b,0.75184629999967,incorrect,v
173,4F4K,173,2,26.314574370299844,41.53959403477009,0.8642000569478513,45.10484704891685,2,b,1.6463666999998168,correct,b
174,4F4K,174,2,26.378219954930756,40.73297581606201,0.865344559345051,44.3794968592368,2,b,0.7034890000004452,correct,b
175,4F4K,175,1,52.584512394796015,29.18681748224841,1.492297702922196,34.25914640113578,2,n,2.792076600000655,correct,n
176,4F4K,176,2,49.49537267872666,66.00961290294546,1.3994512005060702,65.81802404298688,2,v,4.933016099999804,incorrect,b
177,4F4K,177,2,56.60088080390277,48.85698481300747,1.622284024315365,51.6685393355271,1,v,0.8183435999999347,correct,v
178,4F4K,178,1,47.17879991369698,34.56601007649725,1.3336351158266992,38.88841195282883,2,c,0.6983261000004859,incorrect,n
179,4F4K,179,1,41.23560073817896,56.2952471750351,1.1785949764984691,58.12689292996466,1,n,0.5452691999998933,incorrect,c
180,4F4K,180,2,43.77160332788627,24.865627629223862,1.2424158154142129,30.71713772667284,1,v,1.3584765999994488,correct,v
181,4F4K,181,1,27.621294605690395,35.465318072182455,0.8880044664829739,39.68006158147448,1,n,4.3032586999997875,incorrect,c
182,4F4K,182,1,54.73883805881224,70.82861553581631,1.5606695961456876,69.17744891486846,1,n,0.6366107000003467,incorrect,c
183,4F4K,183,2,43.25602204482171,30.352416099543564,1.229166762689707,35.24424104922915,1,b,1.389027499999429,incorrect,v
184,4F4K,184,2,52.17830854782319,63.38133131910811,1.4797456917743332,63.84632656854623,2,v,3.527450399999907,incorrect,b
185,4F4K,185,2,51.06941644858907,39.73268069858795,1.4460149754737617,43.48126932824348,1,b,0.5087647000000288,incorrect,v
186,4F4K,186,1,52.233865896746245,33.09378210682257,1.4814562040863517,37.601964798349904,2,n,2.074496799999906,correct,n
187,4F4K,187,2,45.858782884981295,57.81573551368688,1.297526034859769,59.39728673864983,2,v,2.080670299999838,incorrect,b
188,4F4K,188,2,58.13787521273244,73.66892887670326,1.6749711614157614,70.9852584868238,2,b,4.200094499999977,correct,b
189,4F4K,189,1,43.33427110989608,65.77598296122994,1.2311684215296106,65.64651315462318,1,c,2.202368299999762,correct,c
190,4F4K,190,2,56.51522116961621,43.273872682651614,1.6193969159259416,46.66583991265083,1,b,1.1036170000006678,incorrect,v
191,4F4K,191,1,44.25747315369838,53.40740977530869,1.2550320391936622,55.66158839944247,1,c,0.4677241999997932,correct,c
192,4F4K,192,1,50.52980449644255,40.76875759729475,1.429880057769925,44.41165703485112,2,c,1.3149524999998903,incorrect,n
193,4F4K,193,1,54.10858315877927,67.70124307251089,1.5403492481981913,67.03683578104281,1,n,0.5162777000005008,incorrect,c
194,4F4K,194,1,45.482095559138585,57.40978790955779,1.2874022244835477,59.06015663824667,1,c,1.971431500000108,correct,c
195,4F4K,195,1,79.21861590192842,58.200958614731846,2.5964824553693586,59.715770120391326,2,n,1.224860900000749,correct,n
196,4F4K,196,2,44.33434684586511,28.72578056208521,1.257039866861443,33.87269946428346,1,b,2.597857499999918,incorrect,v
197,4F4K,197,2,24.07270321552787,34.29975614640006,0.8248370810276455,38.65484026958101,2,v,0.8061858999999458,incorrect,b
198,4F4K,198,1,51.00776213527393,64.79385745508799,1.4441622775947334,64.91736401916654,1,n,1.1278825999997935,incorrect,c
199,4F4K,199,2,55.965443609755326,43.30197192707916,1.6009889032387008,46.69113398366856,1,b,3.5567985000006956,incorrect,v
200,4F4K,200,1,60.23704003451332,43.847956241932685,1.7497043895261906,47.182549210488645,2,c,1.8257764999998471,incorrect,n
201,4F4K,201,1,69.98358641134448,58.098673071093074,2.142815433808907,59.63134376080948,2,n,2.6401340000002165,correct,n
202,4F4K,202,1,52.16460645833746,33.34679053953485,1.4793241324208086,37.82213488496347,2,n,2.0381905000003826,correct,n
203,4F4K,203,1,54.41561977902786,73.07185709758264,1.550215296553728,70.616501151483,1,c,1.03696520000085,correct,c
204,4F4K,204,2,69.44773470459342,51.77774696217087,2.1190711685661894,54.24455101788921,1,b,1.2080847999995967,incorrect,v
205,4F4K,205,2,41.47577248503633,29.859717001721187,1.1844958751160048,34.826466674014526,1,v,2.1014278000002378,correct,v
206,4F4K,206,1,56.57940683566373,65.94969071491501,1.6215597735670464,65.77410648148293,1,c,1.1642939000003025,correct,c
207,4F4K,207,1,49.76409068578658,54.48348137987298,1.407292990226804,56.58759375411973,1,c,1.1118844000002355,correct,c
208,4F4K,208,2,35.78615991291017,54.41277135055516,1.0523282547147734,56.52700017453556,2,b,1.0488676999993913,correct,b
209,4F4K,209,1,41.19426846413322,28.74985362527238,1.177582432319625,33.89283132313613,2,c,0.7649676999999429,incorrect,n
210,4F4K,210,2,48.32698993635004,59.05022089928668,1.3658600780489916,60.41279224897649,2,v,1.8006180000002132,incorrect,b
211,4F4K,211,1,46.28320993398928,62.02125880112944,1.3090283096597637,62.79138293258074,1,n,0.36455430000023625,incorrect,c
212,4F4K,212,1,58.4776015160392,42.115993167707565,1.686845738290321,45.623534639739496,2,n,0.8972545000005994,correct,n
213,4F4K,213,2,36.73587914820512,53.44060042137794,1.073317104936078,55.6902712630191,2,v,1.5830283000004783,incorrect,b
214,4F4K,214,1,52.0952003697826,63.69691616846608,1.477190624469418,64.08784153252172,1,c,0.7394582000006267,correct,c
215,4F4K,215,2,40.17715853654736,47.29808771635904,1.1529378584666858,50.27907295879124,2,b,0.8620739000007234,correct,b
216,4F4K,216,1,42.69162211492809,55.903676812582745,1.2148251348673051,57.79645554103216,1,n,1.2362059000006411,incorrect,c
217,4F4K,217,1,37.977717819135776,52.20647720133616,1.1013946719979486,54.61893220561576,1,c,4.08474010000009,correct,c
218,4F4K,218,1,35.15525472794573,59.714167699789805,1.0386126065080077,60.95264129814015,1,c,0.6544506000000183,correct,c
219,4F4K,219,1,68.21931506738332,52.92265741377291,2.0656265540586003,55.24183605951036,2,n,0.9388918000004196,correct,n
220,4F4K,220,1,50.632590838993465,38.072241069919,1.4329395259946789,41.99505652525972,2,n,1.7066377999999531,correct,n
221,4F4K,221,1,38.44272348618839,61.47040534034681,1.1120962872851556,62.35781564555231,1,n,0.8671097999995254,incorrect,c
222,4F4K,222,1,51.2594885887624,64.75530688638617,1.4517415710730794,64.88847867491896,1,c,2.3112695999998323,correct,c
223,4F4K,223,2,55.0325446216166,41.9074029383652,1.5702304841012766,45.43580432350187,1,b,2.364943000000494,incorrect,v
224,4F4K,224,2,57.0475511875022,35.159688995124256,1.6374223987762888,39.41056395781125,1,b,1.5272718000005625,incorrect,v
225,4F4K,225,2,56.85646324344136,42.8670755766068,1.630928908893815,46.29963701295258,1,v,0.589133700000275,correct,v
226,4F4K,226,2,50.91598918245909,68.51359825366352,1.4414089170311992,67.6072956334406,2,v,0.7226182000003973,incorrect,b
227,4F4K,227,2,36.824439230470425,49.86566907167591,1.0752954986689505,52.562715935376005,2,v,2.349110400000427,incorrect,b
228,4F4K,228,1,60.05383017821858,47.4781035171624,1.743051149081838,50.43992754747755,2,n,0.8487012999994477,correct,n
229,4F4K,229,1,34.581720708034275,53.12752460317007,1.0262993678005097,55.41942197576229,1,n,1.0720612999994046,incorrect,c
230,4F4K,230,2,64.00508979434836,80.84473682621935,1.8923155642037817,74.91523025064774,2,b,0.727341300000262,correct,b
231,4F4K,231,1,48.25068269947211,31.825026309334472,1.363694498511671,36.50413678787949,2,c,0.8621831000000384,incorrect,n
232,4F4K,232,1,32.925914925852766,47.7035214542263,0.991563758879646,50.64121413734345,1,n,0.6059540999995079,incorrect,c
233,4F4K,233,1,40.61226079243082,51.45800192865397,1.163416623800235,53.96464972001712,1,n,1.8708936000002723,incorrect,c
234,4F4K,234,2,42.200269444702606,56.35597068656523,1.2024759862862116,58.17802003780253,2,v,3.9451607000000877,incorrect,b
235,4F4K,235,1,38.00726540153859,57.676991728917656,1.1020716040328138,59.282235939994045,1,c,1.9593254000001252,correct,c
236,4F4K,236,1,51.8522848745122,30.921061058182225,1.469747726490464,35.72880850050722,2,n,2.9802383999995072,correct,n
237,4F4K,237,1,40.71911927011814,57.79703787516943,1.1660046791915832,59.38179259870917,1,n,0.5040890000000218,incorrect,c
238,4F4K,238,1,59.37302841493289,38.75975933544199,1.7185488396834392,42.60956569557674,2,c,0.46670429999994667,incorrect,n
239,4F4K,239,1,44.92211411975792,57.41708243851287,1.272498030686356,59.066228048665245,1,n,3.0701607999999396,incorrect,c
240,4F4K,240,2,35.40521703256457,54.87951181113844,1.0440251824989442,56.92627233846993,2,v,0.5270504999998593,incorrect,b
241,4F4K,241,2,60.53656598872465,74.01232323203759,1.760636375201627,71.19455910215397,2,b,1.7699602000002415,correct,b
242,4F4K,242,2,50.652724390450345,61.63772633028553,1.433539573842401,62.48988478201953,2,b,1.0988809000000401,correct,b
243,4F4K,243,2,66.89622990152579,51.57760361104312,2.0095700904179217,54.06941511347089,1,v,0.9518639999996594,correct,v
244,4F4K,244,1,68.54633713943991,57.84661183185319,2.0797211645402367,59.42286574967436,2,n,1.2310336000000461,correct,n
245,4F4K,245,1,64.52099916542606,52.04885716209173,1.9127256739206928,54.48141902607231,2,c,1.0513079000002108,incorrect,n
246,4F4K,246,2,49.90834878389445,40.803315148793295,1.411520873567952,44.442718540639866,1,b,0.6605631000002177,incorrect,v
247,4F4K,247,1,56.637691597273744,42.279737844220506,1.6235262914990376,45.77091914851041,2,c,1.0611022999992201,incorrect,n
248,4F4K,248,2,53.3954080398786,44.16234743281139,1.5176743276946407,47.465437775344455,1,b,1.218906600000082,incorrect,v
249,4F4K,249,2,54.10436846989368,36.79921133800968,1.5402142548380429,40.861242572145606,1,v,0.3692808999994668,correct,v
250,4F4K,250,1,40.5663276846002,52.182994648208044,1.162305914471668,54.598454617010354,1,c,2.2509618000003684,correct,c
251,4F4K,251,1,58.83853035360091,70.01906382617261,1.699553657414631,68.63793133067159,1,n,0.672975999999835,incorrect,c
252,4F4K,252,1,41.54323279095403,47.38888893755578,1.1861586491119436,50.360221040594205,1,c,0.46162120000008144,correct,c
253,4F4K,253,1,70.27739890535128,60.72721682169957,2.1559473805369285,61.76734572958097,2,n,1.0550990000001548,correct,n
254,4F4K,254,2,54.57256052544084,39.3349148797917,1.5552826745149717,43.12461890207416,1,v,1.6578255000003992,correct,v
255,4F4K,255,2,68.00193448457645,49.92548022571504,2.056310369767959,52.61559894283725,1,v,1.273530600000413,correct,v
256,4F4K,256,2,32.53758374798814,45.70887358251114,0.9835890045885516,48.85539279419541,2,b,2.567540199999712,correct,b
257,4F4K,257,1,41.48450589200288,52.59478120596392,1.1847110063174042,54.957060085793486,1,c,1.2796251999998276,correct,c
258,4F4K,258,1,59.50571531217318,44.30392083549118,1.7232971152149796,47.592799040010725,2,n,1.2237166000004436,correct,n
259,4F4K,259,2,53.71176623326855,32.75572860211177,1.5276912354193763,37.30841570434592,1,b,3.053056900000229,incorrect,v
260,4F4K,260,1,47.24154450957099,64.09331257434957,1.3353762948060397,64.38940429188426,1,c,0.8379064000000653,correct,c
261,4F4K,261,1,70.42392356523068,60.76237778849352,2.162526342681054,61.795421393433735,2,n,0.7515992999997252,correct,n
262,4F4K,262,1,60.73245495598168,67.19377329143518,1.767822771942195,66.67552625019356,1,c,0.8236053999999058,correct,c
263,4F4K,263,2,50.37530318788474,37.3562283213185,1.4252935616454598,41.35664137197293,1,b,1.0432075000007899,incorrect,v
264,4F4K,264,1,33.46237804112916,53.680710392131935,1.0026870128264365,55.89754694785318,1,c,0.7867566000004445,correct,c
265,4F4K,265,2,51.74871042491476,35.83285181814862,1.4665856341686532,40.00473433493463,1,b,2.049380700000256,incorrect,v
266,4F4K,266,1,41.55787456039443,57.012355261283055,1.1865198503044168,58.72863148173281,1,c,0.4432715000002645,correct,c
267,4F4K,267,2,54.8815598377932,39.88757952364694,1.565308256223176,43.620246067775625,1,v,0.7455183000001853,correct,v
268,4F4K,268,1,80.8243312750938,63.81174725293582,2.684642413492532,64.1754075585331,2,n,0.8014972000000853,correct,n
269,4F4K,269,1,57.89615654531571,48.89759624116279,1.6665732124757842,51.70462124250882,2,c,1.716847400000006,incorrect,n
270,4F4K,270,1,31.765871651788142,47.88532482582486,0.9679310250519346,50.803439156308286,1,n,0.533140700000331,incorrect,c
271,4F4K,271,2,30.27976022516633,43.56884634437458,0.9384766834812474,46.93135264978565,2,v,1.152126699999826,incorrect,b
272,4F4K,272,2,47.44729920268863,38.3367054327814,1.3411020072676207,42.231274645421045,1,b,0.6788291000002573,incorrect,v
273,4F4K,273,1,22.55442128369831,38.17876828881424,0.7992022990991491,42.090180613957855,1,c,0.570974400000523,correct,c
274,4F4K,274,2,61.67675680047304,45.8102383694911,1.8028791628222625,48.94636664870328,1,v,2.3551096000001053,correct,v
275,4F4K,275,1,56.17755333947947,40.05473492077827,1.6080659774709287,43.77027140478245,2,c,0.4541879999997036,incorrect,n
276,4F4K,276,2,57.46955894435597,40.23610701450477,1.6518546747492917,43.93311399516318,1,b,0.8756207000005816,incorrect,v
277,4F4K,277,2,52.58679215518829,39.66205248560618,1.4923684488887683,43.41791703218696,1,v,0.6674071000006734,correct,v
278,4F4K,278,2,51.834420266193895,65.79906904651368,1.4692018399990634,65.66349457995703,2,v,1.4092239000001427,incorrect,b
279,4F4K,279,1,65.717890996532,52.42686419031604,1.9609282246417603,54.81095461331768,2,n,0.6241437999997288,correct,n
280,4F4K,280,1,41.72226489006996,50.56263536523585,1.1905827911404372,53.17790875362411,1,c,0.8986350000004677,correct,c
281,4F4K,281,1,25.487793305533277,43.046727413620765,0.8494693500517694,46.46136415466719,1,c,0.8606180999995559,correct,c
282,4F4K,282,2,51.715930450275565,36.62322773744973,1.4655862907707948,40.70497428143479,1,b,1.1049216000001252,incorrect,v
283,4F4K,283,2,39.85599631639262,51.93496816932527,1.1452637544306403,54.38196681154128,2,v,0.43603239999993093,incorrect,b
284,4F4K,284,1,25.28848279408457,45.41372333739872,0.8459559713267653,48.59039246214806,1,n,0.6008978999998362,incorrect,c
285,4F4K,285,2,59.48369453256346,43.26797509035935,1.7225081821880162,46.66053105475004,1,b,2.742598399999224,incorrect,v
286,4F4K,286,1,50.60409714580554,70.56203068041299,1.4320907469159223,69.00094297316303,1,c,2.1792932999996992,correct,c
287,4F4K,287,1,58.96086924187525,46.7936242819537,1.7038827677832296,49.82782002222402,2,n,0.8122417000004134,correct,n
288,4F4K,288,2,39.66875853154888,59.8835591286748,1.1408133391510449,61.08963570933962,2,b,1.1523949000002176,correct,b
289,4F4K,289,1,57.4738343935119,47.058724160218965,1.6520015401871266,50.06504368590704,2,n,0.6484228999997868,correct,n
290,4F4K,290,1,67.97381522072949,54.47740322674474,2.055108347915066,56.58238665389637,2,n,0.9397612000002482,correct,n
291,4F4K,291,2,34.67557941151989,49.25851957106648,1.0283043901186042,52.02500132427158,2,b,1.8015016000008472,correct,b
292,4F4K,292,1,50.45879369601983,47.15303061541531,1.4277702148312317,50.14938787530343,2,n,0.5819725000001199,correct,n
293,4F4K,293,2,58.43793378651308,69.9316486075455,1.6854548882032658,68.57905121370419,2,b,1.7459209999997256,correct,b
294,4F4K,294,1,36.7375015862452,19.90072051225521,1.0733533167443876,26.90725439332089,2,n,0.771147600000404,correct,n
295,4F4K,295,1,57.428754603886375,46.15930895972755,1.6504536665459952,49.25949880615263,2,n,0.7698309999996127,correct,n
296,4F4K,296,1,53.39171818207946,30.167335539215,1.5175578833846166,35.08707527870146,2,n,0.8197397000003548,correct,n
297,4F4K,297,1,61.08662786718802,56.85783799405639,1.780890527813291,58.59935463800888,2,n,1.680096500000218,correct,n
298,4F4K,298,1,47.33441458273526,32.7669664165873,1.3379576370195136,37.318162308390086,2,c,0.8244374999994761,incorrect,n
299,4F4K,299,1,67.23455776405571,49.48605940967511,2.023757928948321,52.226705776033775,2,n,0.41194110000014916,correct,n
300,4F4K,300,1,50.58553474845012,33.38068586773218,1.431538074862213,37.85166081610311,2,n,0.5027918999994654,correct,n
301,4F4K,301,2,61.710478630101406,70.11138057474415,1.804143831443627,68.6999819668719,2,b,1.462208300000384,correct,b
302,4F4K,302,1,50.3785287888559,37.18132707204908,1.4253891656855693,41.20096365519912,2,n,0.514879700000165,correct,n
303,4F4K,303,1,63.27715662820295,56.61405123859792,1.8638873889047725,58.39496135166981,2,n,0.4798222999997961,correct,n
304,4F4K,304,1,66.85131183450862,54.98020216971573,2.007693937974548,57.0121909208066,2,n,0.562377799999922,correct,n
305,4F4K,305,1,31.214021187363585,45.914412611626645,0.9568871097211398,49.03984140423614,1,c,0.6254813000005015,correct,c
306,4F4K,306,2,31.88704204663911,48.88176857516178,0.9703729645698096,51.69055965086281,2,b,1.255070600000181,correct,b
307,4F4K,307,2,59.999618669311126,71.27580843431642,1.741087320500715,69.47095575862006,2,v,1.030791300000601,incorrect,b
308,4F4K,308,1,49.71386009885181,32.00779358000875,1.4058238180364606,36.66161106392353,2,n,0.5041323999994347,correct,n
309,4F4K,309,1,32.702387650950264,48.04656392224671,0.9869655473170628,50.94722441071887,1,c,0.7093611999998757,correct,c
310,4F4K,310,2,59.47942739937765,43.099473683561165,1.7223553464425123,46.50884709764966,1,v,0.8122982999993837,correct,v
311,4F4K,311,1,69.84239855099017,60.62981458498119,2.1365335273170825,61.68949948389989,2,n,0.4423401999993075,correct,n
312,4F4K,312,2,53.74992133128642,66.09749914760285,1.528903806413232,65.88234637792064,2,b,0.6302026000003025,correct,b
313,4F4K,313,1,72.64195686408561,61.31476754031637,2.264603859477722,62.23467882767128,2,n,0.4070560000000114,correct,n
314,4F4K,314,2,43.47051169177959,32.13063334308373,1.2346613203541337,36.76758168495856,1,b,1.2748529000000417,incorrect,v
315,4F4K,315,2,60.77290468582791,52.7641807673251,1.7693103635738765,55.10427690910191,1,b,0.8852434000000358,incorrect,v
316,4F4K,316,1,43.714204098743565,59.59322924087444,1.24093377314839,60.85464802425327,1,c,0.5587717999997039,correct,c
317,4F4K,317,2,33.65123046711916,40.98154596211013,1.0066323825405123,44.6029432143383,2,v,1.2977897000000667,incorrect,b
318,4F4K,318,1,39.20354767636555,47.49191580546894,1.1298305611933568,50.45226566498996,1,c,0.6012178000000858,correct,c
319,4F4K,319,2,56.186475975095775,33.695622708909895,1.6083643673078931,38.12633081893232,1,b,0.2371080000002621,incorrect,v
320,4F4K,320,2,71.62043294627334,58.7228022339743,2.217006482122052,60.14491436818342,1,v,2.0516602999996394,correct,v
321,4F4K,321,1,47.78209436398419,57.7804965819268,1.3504711602168515,59.36808261012182,1,n,1.358266299999741,incorrect,c
322,4F4K,322,2,43.28267067122079,29.848698174695254,1.2298480851222553,34.81714611884742,1,v,1.5587362999995094,correct,v
323,4F4K,323,2,36.43441050623678,50.23338643583143,1.0666096717471076,52.88757770089272,2,v,0.5344902999995611,incorrect,b
324,4F4K,324,1,39.546266858799626,49.89607445391486,1.1379112223718275,52.58960138336637,1,c,0.7637276999994356,correct,c
325,4F4K,325,2,58.649425625429735,44.17633258235293,1.6928835877370498,47.47801978452804,1,v,0.6365091999996366,correct,v
326,4F4K,326,2,70.63127663340082,61.83554713109182,2.1718708243631646,62.645608548826914,1,v,2.2385170999996262,correct,v
327,4F4K,327,2,38.19338806261368,50.15731101925996,1.106345229710349,52.82042028553882,2,b,1.3902278000005026,correct,b
328,4F4K,328,2,58.4540183119578,68.979176509452,1.686018713726616,67.92975929886401,2,v,0.5209734000000026,incorrect,b
329,4F4K,329,2,57.14050505119937,47.610147000536585,1.640590468164407,50.55785452309103,1,b,0.5041095999995377,incorrect,v
330,4F4K,330,1,43.65966799172134,56.90389924236536,1.2395272942470523,58.6379139953207,1,n,0.38741790000040055,incorrect,c
331,4F4K,331,1,35.25735343445207,51.874040253603226,1.0408200096106175,54.32873107825357,1,c,0.3827568999995492,correct,c
332,4F4K,332,1,46.95217091759455,61.70266422359708,1.3273649896115245,62.54105392218973,1,c,0.5323178999997253,correct,c
333,4F4K,333,1,59.2682866036873,75.36131844324595,1.7148098367680225,71.99678539563122,1,c,0.8062730999999985,correct,c
334,4F4K,334,2,60.35065418761745,48.08643819957225,1.7538430228723685,50.9827689841607,1,v,3.8117393000002266,correct,v
335,4F4K,335,1,29.38111607117789,42.31933597492052,0.9211024164364788,45.80656254544801,1,c,0.37057850000019243,correct,c
336,4F4K,336,1,67.69457967442524,53.31403995483646,2.043209857155046,55.580859735994494,2,c,1.0975287999999637,incorrect,n
337,4F4K,337,1,43.87761352048352,54.06569440843404,1.245157642624286,56.22904860730011,1,n,0.24315020000085497,incorrect,c
338,4F4K,338,2,49.80573688766987,35.05661611600466,1.4085122456757997,39.31978007009508,1,v,1.0307508000005328,correct,v
339,4F4K,339,1,46.87599814675568,66.06057062418893,1.3252641498956672,65.85533217395918,1,n,2.2797380000001795,incorrect,c
340,4F4K,340,1,74.5949062614147,57.93599325707505,2.358463359748584,59.49686160845796,2,c,0.6315580000000409,incorrect,n
341,4F4K,341,1,41.929215192089046,46.14966280285995,1.1957173979218243,49.250849151580674,1,n,0.3645308000004661,incorrect,c
342,4F4K,342,1,74.62825548051363,63.20884687038664,2.360099468297012,63.71379600917732,2,c,0.29172579999976733,incorrect,n
343,4F4K,343,1,45.37917938932035,35.41578286564201,1.2846500247026365,39.63635167238418,2,n,0.27956600000015897,correct,n
344,4F4K,344,1,43.16986793228688,56.1349181228544,1.226966651800035,57.99175075380584,1,n,0.26741539999966335,incorrect,c
345,4F4K,345,1,35.30064403042486,44.96835733059044,1.0417573803756977,48.19025232491296,1,n,0.625560299999961,incorrect,c
346,4F4K,346,1,43.9815178832158,34.1330959316087,1.2478508766762284,38.50883538354325,2,c,0.23031379999974888,incorrect,n
347,4F4K,347,1,46.73450018526816,64.27392832901738,1.321370467007411,64.5261379951625,1,n,0.522337399999742,incorrect,c
348,4F4K,348,1,58.2671907497172,64.84635314002917,1.6794812887767512,64.95666645537533,1,c,0.5090430000000197,correct,c
349,4F4K,349,2,51.25285987600655,38.10934619100202,1.4515414765056684,42.02818579726785,1,b,0.431315299999369,incorrect,v
350,4F4K,350,1,49.31770413228136,66.4674947476196,1.394290448172299,66.15195368236283,1,c,0.47122639999997773,correct,c
351,4F4K,351,1,63.87017889326519,57.333485378947394,1.887014314280428,58.99661897281122,2,c,0.455580299999383,incorrect,n
352,4F4K,352,2,38.30669769423322,62.44954760156986,1.1089550821637857,63.126008725202965,2,b,0.7028013999997711,correct,b
353,4F4K,353,2,33.89359009018741,51.01694803018874,1.0117183397705056,53.57763104417495,2,b,0.6315637000006973,correct,b
354,4F4K,354,2,46.4673808463605,33.524116850159004,1.3140511419112662,37.97667945528944,1,v,0.7459622000005766,correct,v
355,4F4K,355,1,57.96461337760332,54.05682668613365,1.668947301837114,56.221424609419856,2,n,0.9882512000003771,correct,n
356,4F4K,356,2,37.881962296309766,58.32769088615024,1.099203778778069,59.82023466630802,2,v,2.815204900000026,incorrect,b
357,4F4K,357,2,56.008417543548425,40.60645044294942,1.6024202148980513,44.26579197120999,1,b,0.6240043000007063,incorrect,v
358,4F4K,358,2,62.47646220371041,45.02797727223225,1.8331106421529364,48.243835048074416,1,v,0.2917148999995334,correct,v
359,4F4K,359,2,60.93165354478309,46.02531127235707,1.775160666701761,49.13932621595743,1,v,0.44816480000008596,correct,v
360,4F4K,360,2,47.86841331398147,38.92742725075325,1.3528973680801126,42.75962732023379,1,b,1.4798539000003075,incorrect,v
361,4F4K,361,2,50.007126304519424,31.92197288984126,1.4144231464427042,36.58763791028234,1,v,0.7405978999995568,correct,v
362,4F4K,362,1,53.21332896032426,63.93561847459648,1.5119389312424956,64.2696783127754,1,c,0.2734737999999197,correct,c
363,4F4K,363,1,66.86157204451806,52.24012259986522,2.0081223353523674,54.648266365930056,2,n,0.82438589999947,correct,n
364,4F4K,364,1,51.0356894815971,58.6227420829879,1.4450011936264375,60.06283623218768,1,n,0.42391090000000986,incorrect,c
365,4F4K,365,1,68.02879149761564,51.1167461472614,2.0574590902600787,53.66529401524967,2,n,0.23104030000013154,correct,n
366,4F4K,366,1,56.63060003524612,46.4522237489278,1.6232868960299622,49.522056059140255,2,n,0.5405424000000494,correct,n
367,4F4K,367,2,32.487305406998225,39.85525019431651,0.982561191105764,43.59123597324152,2,b,0.9384656000001996,correct,b
368,4F4K,368,1,36.25280930690465,46.88831794852072,1.0625894390401396,49.91257755509263,1,c,0.6255549999996219,correct,c
369,4F4K,369,1,69.15809999761252,49.016291050603584,2.106346816234543,51.810040513450325,2,c,0.6192775999998048,incorrect,n
370,4F4K,370,2,51.3053229011508,34.46274085953017,1.453125882259268,38.797773249073735,1,b,0.26744520000011107,incorrect,v
371,4F4K,371,2,60.48218759716516,46.44893290101379,1.7586466311097304,49.51910735544557,1,v,0.6360927999994601,correct,v
372,4F4K,372,2,25.95997007157149,36.05323282934033,0.8578510648229869,40.19971107477494,2,b,0.7905750999998418,correct,b
373,4F4K,373,1,58.676383255840655,40.30212233457454,1.6938328304168488,43.99239911579477,2,n,0.9095413000004555,correct,n
374,4F4K,374,2,54.739508960714176,39.676766779991695,1.5606913692191604,43.43111465541735,1,b,0.6544808999997258,incorrect,v
375,4F4K,375,2,60.8635984390378,46.99538700746961,1.772650296147667,50.00838364009541,1,v,0.8669158000002426,correct,v
376,4F4K,376,1,56.680557185758616,50.921674463853535,1.6249740909377974,53.493893564665925,2,n,1.1400121999995463,correct,n
377,4F4K,377,1,63.08554655269442,50.06671538032858,1.8564756551651156,52.74040921949111,2,n,0.3998415999994904,correct,n
378,4F4K,378,1,52.77562393836693,72.79805104310691,1.4982399724546034,70.44535907924094,1,n,0.3160194000001866,incorrect,c
379,4F4K,379,1,31.05855964392702,48.7325680926274,0.9537987448394132,51.557959509657394,1,c,0.34632930000043416,correct,c
380,4F4K,380,1,43.715026017886,29.773740927162564,1.2409549825358888,34.75376828649684,2,c,3.034838600000512,incorrect,n
381,4F4K,381,1,64.05763593488933,41.724663619002136,1.8943843636502269,45.27136161249398,2,n,0.5947640000003958,correct,n
382,4F4K,382,1,42.0682306579448,47.94320568381265,1.199178913194531,50.855064409163454,1,n,0.4324843000003966,incorrect,c
383,4F4K,383,2,47.323166346121255,63.36631217971121,1.337644724649343,63.834801229194966,2,b,0.40593470000021625,correct,b
384,4F4K,384,2,58.42273154098809,41.9085574469846,1.6849221633629066,45.43684330777735,1,b,0.5466388999993796,incorrect,v
385,4F4K,385,2,46.20288034840549,29.08769185750315,1.3068435251528336,34.17590072739465,1,v,0.581642500000271,correct,v
386,4F4K,386,2,45.15770883112797,59.14054511291974,1.2787473630433093,60.48650057608835,2,v,0.47374330000002374,incorrect,b
387,4F4K,387,2,46.92836728989856,57.466380541517005,1.3267081297208674,59.10724720576325,2,b,1.6256931999996596,correct,b
388,4F4K,388,2,43.1846556588549,57.201847188731726,1.2273440046735071,58.886877969133295,2,b,0.5769021000005523,correct,b
389,4F4K,389,1,60.7397016311529,45.39729117356711,1.7680891858891945,48.57563445175568,2,c,2.131903199999215,incorrect,n
390,4F4K,390,1,53.42180812572586,41.981929739556456,1.5185077207102222,45.50287534591144,2,n,0.5223226000007344,correct,n
391,4F4K,391,2,53.05760710641111,43.31133512607544,1.5070509721044458,46.6995623958413,1,b,2.2701514000000316,incorrect,v
392,4F4K,392,1,42.69824821280732,52.66251037642421,1.2149925320913355,55.0159418693523,1,n,0.3524187000002712,incorrect,c
393,4F4K,393,1,52.094615747627,68.6838265491746,1.4771726665553755,67.72557960559396,1,n,0.5998640999996496,incorrect,c
394,4F4K,394,2,52.35953857505072,37.17552211937467,1.485332741642993,41.195798638891056,1,v,0.5344828000006601,correct,v
395,4F4K,395,1,52.06716034643258,36.23643233798545,1.476329561282677,40.36195528806029,2,n,2.2155456999998933,correct,n
396,4F4K,396,2,50.17152984154245,59.36020754726928,1.4192668749724402,60.66540630739463,2,b,2.0503320999996504,correct,b
397,4F4K,397,1,70.73002531212255,55.43635296084319,2.176335171649377,57.400431954750985,2,n,0.8304941000005783,correct,n
398,4F4K,398,1,46.48957311622105,35.03040918874596,1.31465768396929,39.29670619376179,2,c,2.597877000000153,incorrect,n
399,4F4K,399,2,61.24045458793208,38.37297931169474,1.7865962484467457,42.263690542535535,1,b,1.0128199000000677,incorrect,v
400,4F4K,400,1,63.21264064190734,41.01473681794471,1.8613885259398653,44.6327852855257,2,c,0.5830264999995052,incorrect,n
