,condition,trial,sub_task,x,y,xt,yt,cat,resp,rt,acc,correct_resp
0,4F4K,1,2,67.52573751044586,57.745588019450736,2.0360487788069697,59.244958329330885,1,v,0.9690482000000884,correct,v
1,4F4K,2,2,55.47182490997103,43.28851673090151,1.5846395853821127,46.65578106705189,1,v,0.9456141000000571,correct,v
2,4F4K,3,1,23.97774702909033,40.58939119680821,0.8232099989641651,44.24083058404117,1,n,1.1595796000001428,incorrect,c
3,4F4K,4,2,47.68188319463664,31.22718330576872,1.3476599343527391,36.02734642385892,1,v,0.7165410999996311,correct,v
4,4F4K,5,2,40.33827368758429,50.47998486293889,1.1568070186436537,53.0458278545234,2,v,0.643717899999956,incorrect,b
5,4F4K,6,2,66.48720517552883,59.11983494386385,1.992550315404032,60.36909050907816,1,b,1.1883766000000833,incorrect,v
6,4F4K,7,2,56.28865181860863,44.28081315668198,1.6117852709544744,47.543767416429375,1,b,0.9577500999998847,incorrect,v
7,4F4K,8,2,45.724200511913466,57.17877643021714,1.2938999044403097,58.77608838221752,2,v,0.6600681999998415,incorrect,b
8,4F4K,9,2,34.665316272670246,54.69699664108755,1.028084956953039,56.6905474011925,2,v,2.258049999999912,incorrect,b
9,4F4K,10,2,45.77112150694397,37.930908946700825,1.2951629717546127,41.87262035253038,1,b,1.0503435000000536,incorrect,v
10,4F4K,11,2,57.07644788233731,40.492156195599016,1.63840660498955,44.153956042270174,1,v,0.7211849000000257,correct,v
11,4F4K,12,2,52.323884374503336,45.79361925134776,1.484231911815738,48.89558992569973,1,v,0.5208306999998058,correct,v
12,4F4K,13,2,59.469667132863016,41.04828514658077,1.722005814332465,44.65100624421272,1,v,0.5686529999998129,correct,v
13,4F4K,14,2,52.17269244975695,64.41853737719539,1.4795728920188145,64.5114473803661,2,b,0.6603405999999268,correct,b
14,4F4K,15,1,58.83238954229074,74.74951403009142,1.6993366474776066,71.47384001120159,1,n,0.7575263999997333,incorrect,c
15,4F4K,16,1,56.81922361042776,61.606950098817975,1.629666444912802,62.35391518557046,1,c,0.696797499999775,correct,c
16,4F4K,17,1,36.84685027659073,50.92569264352127,1.0757967296106763,53.43597799370352,1,n,0.654710900000282,incorrect,c
17,4F4K,18,1,42.16869618249447,23.73703215665122,1.201686762756756,29.895718040875305,2,c,0.9213637000002564,incorrect,n
18,4F4K,19,1,70.14422057418068,60.16445053700465,2.1499850339182807,61.21087148623556,2,c,0.9759471000002122,incorrect,n
19,4F4K,20,1,58.14895912431639,48.8253952811038,1.675357259060512,51.58942600919681,2,n,0.5746725000003607,correct,n
20,4F4K,21,2,40.804632203642505,49.25464697366344,1.1680799032842577,51.968388414065856,2,v,0.854620199999772,incorrect,b
21,4F4K,22,1,48.39702072449758,30.496016534359978,1.3678505597995796,35.40652085391909,2,c,0.9568487999999888,incorrect,n
22,4F4K,23,1,54.53445967348223,43.858367039774485,1.554050935477861,47.16580293354603,2,n,0.5208188999999948,correct,n
23,4F4K,24,1,71.5183217187086,53.3536975327594,2.2123040105436163,55.54184037161628,2,c,0.6361274000000776,incorrect,n
24,4F4K,25,1,51.30683893582076,34.46068428254655,1.4531716928542986,38.81690077086049,2,n,0.5511153000002196,correct,n
25,4F4K,26,2,69.30576654617472,57.06327723562895,2.112824588444816,58.68018875175351,1,v,0.8485679000000346,correct,v
26,4F4K,27,1,50.91733386274498,39.796492279460985,1.4414492220408843,43.53287288668516,2,c,0.6118494000002102,incorrect,n
27,4F4K,28,2,47.21976817421363,31.951880974570766,1.334771738371214,36.646573504750805,1,b,0.8121249999999236,incorrect,v
28,4F4K,29,2,56.15201629186598,38.58823013097995,1.607212276138391,42.45654781673898,1,v,0.6777781999999206,correct,v
29,4F4K,30,1,46.62424394033624,62.08190614792192,1.31834441249244,62.72510650065992,1,c,0.7696246999998948,correct,c
30,4F4K,31,1,58.32975298632561,44.02179637429816,1.6816676236353003,47.312040295865074,2,n,0.5511271999998826,correct,n
31,4F4K,32,2,70.18595039484019,52.484542496248224,2.1518514871552306,54.792070592821474,1,v,0.6118905999996969,correct,v
32,4F4K,33,1,32.39792259359188,53.21368792137423,0.9807366367690876,55.42139285431403,1,n,0.5996765999998388,incorrect,c
33,4F4K,34,1,45.96585379982131,57.22489783105812,1.3004181652763005,58.81434975881249,1,c,0.6846905000002153,correct,c
34,4F4K,35,1,43.14150191766967,50.5452656891246,1.226243133170356,53.103033483783584,1,c,0.5208309000004192,correct,c
35,4F4K,36,2,54.71949336270891,39.82709366374002,1.560041924876203,43.560175016910094,1,v,0.6609115000001111,correct,v
36,4F4K,37,1,46.24612889971997,57.758849489681246,1.3080193352142422,59.25589282638611,1,c,0.5754292000001442,correct,c
37,4F4K,38,2,58.74063228621613,43.55879936585577,1.6960973390745415,46.89770543224443,1,b,0.5330509000000347,incorrect,v
38,4F4K,39,2,46.32095934576816,52.83063606231704,1.310056270119946,55.091204720562985,2,v,0.5451217999998335,incorrect,b
39,4F4K,40,2,46.72387256539847,51.55308957950373,1.3210784828175413,53.98341545032187,2,b,0.7027252000002591,correct,b
40,4F4K,41,1,50.76887257500359,60.90017728834541,1.437006091327001,61.796758038736336,1,n,1.7799663999999211,incorrect,c
41,4F4K,42,2,44.963282013417945,68.45416125880237,1.2735878346585945,67.42561086451977,2,v,0.6877540999998928,incorrect,b
42,4F4K,43,1,35.11231071702347,54.94415384242093,1.0376855440103765,56.900469061151774,1,c,0.6179044000000431,correct,c
43,4F4K,44,2,50.77440712635968,63.69767907796589,1.437171482656298,63.96762865601462,2,b,0.5450862000002417,correct,b
44,4F4K,45,1,52.34562134632702,61.5136997107485,1.484902947597921,62.28073027211465,1,n,0.623961700000109,incorrect,c
45,4F4K,46,1,42.60319537571733,54.610735488216825,1.2125933883289548,56.61717349520543,1,c,0.5208201999998892,correct,c
46,4F4K,47,2,39.373535345631744,52.00539973198329,1.133831346530541,54.37672991857031,2,v,0.47768290000021807,incorrect,b
47,4F4K,48,1,41.79041748134964,26.090852843386585,1.1922712732591143,31.76293738689499,2,n,0.9036316000001534,correct,n
48,4F4K,49,1,72.1424279403649,62.35410676652171,2.2412022378380865,62.93664435490681,2,c,0.5389861000003293,incorrect,n
49,4F4K,50,2,52.65496002030663,41.07958037303347,1.4944853974842522,44.67898870664423,1,v,0.5268859999996494,correct,v
50,4F4K,51,1,44.43620524485715,30.303646658313056,1.259705206944946,35.24386717879311,2,n,0.8606744999997318,correct,n
51,4F4K,52,1,41.02407779757264,55.83447923136119,1.1734223156332544,57.65271819539841,1,c,0.6422093000001041,correct,c
52,4F4K,53,1,42.21219041078817,53.25944410405816,1.2027741044310647,55.460770312893175,1,c,0.5989322999998876,correct,c
53,4F4K,54,2,36.75253713577451,56.73876973938732,1.073688958989981,58.41011384694105,2,v,0.617894399999841,incorrect,b
54,4F4K,55,1,66.43632041495613,53.39682026084321,1.99044307540805,55.57891168496994,2,n,0.6300679999999375,correct,n
55,4F4K,56,2,21.33791237896857,41.903719310979454,0.7792387741354322,45.41623329812951,2,b,0.696874800000387,correct,b
56,4F4K,57,1,41.53792110735004,58.480236206478914,1.186027641144352,59.84818778519404,1,c,0.6723928999999771,correct,c
57,4F4K,58,1,51.47488706334296,39.48085886206205,1.4582586298270934,43.25138056235416,2,n,0.4300588000000971,correct,n
58,4F4K,59,2,59.72051331400148,49.2330023561516,1.7310116081279798,51.94929732192175,1,v,0.6422572999999829,correct,v
59,4F4K,60,2,71.42642387824031,53.764979398906064,2.208080418779992,55.894893766373805,1,v,0.5450711000003139,correct,v
60,4F4K,61,2,40.6738538065078,51.94117626420535,1.164907671673536,54.32095480059176,2,v,0.4299445999999989,incorrect,b
61,4F4K,62,2,56.34174127302293,68.81435123221952,1.613565606674891,67.6742944702863,2,b,0.862398000000212,correct,b
62,4F4K,63,1,41.60765112641781,56.67639384158046,1.1877486226800915,58.35809478355584,1,c,0.793907499999932,correct,c
63,4F4K,64,2,43.562324920267066,60.12456288955728,1.237020790363554,61.17893961241429,2,v,0.5026173999999628,incorrect,b
64,4F4K,65,2,61.12137258416073,75.00327480012544,1.7821776791603725,71.62306415998572,2,b,0.4968487000001005,correct,b
65,4F4K,66,1,47.34614241786162,55.22860348641242,1.3382839691888646,57.14148519941377,1,n,0.7696508000003632,incorrect,c
66,4F4K,67,2,49.752432121384594,34.57367962330359,1.4069518572738209,38.91552198511764,1,v,0.7391833000001498,correct,v
67,4F4K,68,1,62.15148232534946,51.58252946853464,1.8207646708747396,54.00905071542973,2,n,0.40807059999997364,correct,n
68,4F4K,69,2,32.40163814577241,43.27795452331358,0.9808124140918372,46.64632655759496,2,v,0.7817481000001862,incorrect,b
69,4F4K,70,2,54.125988760088205,41.67799025089952,1.5409068620384003,45.2142473728978,1,b,0.5633280000001832,incorrect,v
70,4F4K,71,1,45.32146700486204,29.85723289382527,1.2831092469745211,34.86755243730002,2,c,1.4068781000000854,incorrect,n
71,4F4K,72,1,37.83310570520048,52.12462268337856,1.0980876160934645,54.48020545568078,1,n,0.49052549999987605,incorrect,c
72,4F4K,73,1,58.53875242607154,43.72023166454518,1.6889920913490415,47.042185121761165,2,n,0.7150160999999571,correct,n
73,4F4K,74,1,47.80873445146111,71.27473311826672,1.3512194812876055,69.31930114002,1,n,0.8302973999998358,incorrect,c
74,4F4K,75,2,38.89393390147036,57.93497409903904,1.1225798098330029,59.40095680841897,2,b,0.3569567999998071,correct,b
75,4F4K,76,2,50.697912597919824,72.26029620244324,1.4348872500998937,69.95103629784602,2,b,0.6057910999998057,correct,b
76,4F4K,77,1,50.68163480128345,39.29922297507314,1.4344016412294007,43.08948888332828,2,c,0.7216748999999254,incorrect,n
77,4F4K,78,1,60.7309049417012,41.60459346831833,1.7677657930317896,45.14857878803819,2,n,0.7331911000001128,correct,n
78,4F4K,79,2,53.678087216445945,34.667296569317244,1.5266217136208773,38.9972813044818,1,b,0.4784264999998413,incorrect,v
79,4F4K,80,1,56.69989511533564,69.1153406020832,1.6256276584460083,67.88059662018159,1,n,0.6724892999995973,incorrect,c
80,4F4K,81,2,31.830816892681625,42.161743435602105,0.9692390973495838,45.647155424083394,2,v,1.0063595000001442,incorrect,b
81,4F4K,82,1,64.77654471115109,51.09739080941303,1.9229167990164635,53.58600277387982,2,n,1.6980693999998948,correct,n
82,4F4K,83,2,34.18063213339427,46.68461261886095,1.0177752148952437,49.689880038484894,2,v,0.81517440000016,incorrect,b
83,4F4K,84,2,51.93099309962791,64.20265116953529,1.4721552197698218,64.34928290297448,2,v,0.6598936000000322,incorrect,b
84,4F4K,85,2,43.31531092777964,58.2508888559048,1.2306831094770567,59.66042222513856,2,b,0.4479946999999811,correct,b
85,4F4K,86,2,59.71165299701343,74.63081746048152,1.730692707078948,71.40365205693207,2,b,0.6725507999999536,correct,b
86,4F4K,87,1,64.08308368966608,59.38643549623312,1.895387082548944,60.58500096929796,2,n,0.563291300000401,correct,n
87,4F4K,88,1,26.407675593039137,46.02216183368586,0.8658747563022218,49.099489699791874,1,c,0.5208251000003656,correct,c
88,4F4K,89,1,42.98275887410477,58.27320089296167,1.2222020163256089,59.67871132506317,1,c,0.8849360999997771,correct,c
89,4F4K,90,2,41.425611134712526,32.33129420314163,1.183261000094282,36.97223584897257,1,b,0.5754173000000264,incorrect,v
90,4F4K,91,2,62.91179187293396,46.05324700558799,1.849780076138987,49.12721500305563,1,v,0.5572117000001526,correct,v
91,4F4K,92,2,75.01325558799397,66.41009346771116,2.37906991170688,65.97812797807516,1,b,0.4166800999996667,incorrect,v
92,4F4K,93,1,64.73808742398478,53.461356966036185,1.921379663298921,55.63436861553294,2,n,0.636075300000357,correct,n
93,4F4K,94,1,46.14546728927418,55.928227353842935,1.3052842535338902,57.731556661659866,1,c,0.8737895999997818,correct,c
94,4F4K,95,2,40.67844421350152,51.412222953902265,1.165018873044524,53.86068703360571,2,v,0.630724900000132,incorrect,b
95,4F4K,96,2,52.722909261661286,30.516432000337325,1.49659854522332,35.423799727384825,1,v,1.1155373000001418,correct,v
96,4F4K,97,2,57.08057547461386,38.77876779726742,1.6385472368865557,42.62604148154774,1,v,0.595958100000189,correct,v
97,4F4K,98,2,41.61438989247287,28.174235579110054,1.1879150720132925,33.4639839445093,1,v,0.757583699999941,correct,v
98,4F4K,99,2,27.1238502165979,40.8959997018852,0.8788662350319614,44.51485773292409,2,v,0.5329473000001599,incorrect,b
99,4F4K,100,1,39.38391351213207,48.684886641729854,1.1340760627034876,51.46522248841319,1,c,0.9275456000000304,correct,c
100,4F4K,101,2,51.40334537540016,31.71775732244228,1.4560908386182922,36.44611392458715,1,v,0.806261799999902,correct,v
101,4F4K,102,2,42.85580824184291,29.901684583495744,1.2189798239426597,34.90495154057176,1,v,0.44253959999969084,correct,v
102,4F4K,103,2,62.825305643905246,45.41612646908075,1.846456364722364,48.55858719820897,1,b,0.6724983999997676,incorrect,v
103,4F4K,104,1,51.7349425594234,65.20153243482777,1.4661658185516957,65.0944688349398,1,c,1.3212944000001698,correct,c
104,4F4K,105,2,70.55138809677065,53.854071506965575,2.1682658308275333,55.97121918781093,1,b,0.6133775999996942,incorrect,v
105,4F4K,106,1,61.04406892769777,46.06539024968143,1.7793151577853632,49.13804519272587,2,n,0.39941369999996823,correct,n
106,4F4K,107,1,41.94994658852684,53.96364943350794,1.1962329795523303,56.065018684318005,1,c,0.5996175999998741,correct,c
107,4F4K,108,1,65.20681729666136,55.47081073948912,1.940198847073468,57.34621012195717,2,n,0.5936624999999367,correct,n
108,4F4K,109,2,59.26041611964019,69.75758503996258,1.71452921032823,68.31614969124759,2,b,0.7262145999998211,correct,b
109,4F4K,110,2,59.964190903892565,52.16907438634817,1.7398051343948502,54.518764317154975,1,b,0.8721587,incorrect,v
110,4F4K,111,1,48.51446982372955,30.607574947094577,1.3711953239678365,35.50097929610485,2,c,0.8683963999997104,incorrect,n
111,4F4K,112,1,36.61354987694166,24.230783641612067,1.0705903073536105,30.282252786502088,2,c,0.8484940000003007,incorrect,n
112,4F4K,113,2,55.05023780034709,37.1956089565587,1.570808308505135,41.22105593270229,1,v,1.1026324999997996,correct,v
113,4F4K,114,2,56.4191152265805,75.82598291181391,1.616163836463014,72.09901710603468,2,b,0.6431357999999818,correct,b
114,4F4K,115,1,62.64373923815991,47.88570218028954,1.8394980884979075,50.757421561974986,2,n,0.6446704999998474,correct,n
115,4F4K,116,2,71.96536563647155,50.48543351151432,2.232965512136472,53.05060330858988,1,b,0.5451766000001044,incorrect,v
116,4F4K,117,1,45.70013516722645,58.19822339428756,1.2932525668577046,59.617233535812815,1,n,0.666499400000248,incorrect,c
117,4F4K,118,1,42.96793197780003,57.35719572478493,1.22182524918996,58.923994695767774,1,c,0.5699991000001319,correct,c
118,4F4K,119,1,65.41932225595802,52.94739589953278,1.948791394473676,55.19195143819663,2,n,1.0062864999999874,correct,n
119,4F4K,120,1,63.99708356565479,50.94306021420417,1.892000548563065,53.45116024939717,2,n,0.496484799999962,correct,n
120,4F4K,121,2,32.3450498170523,48.48306344263819,0.979658950101966,51.286690363013314,2,v,2.160721000000194,incorrect,b
121,4F4K,122,2,54.54293855791886,45.12711109780656,1.5543249597087525,48.300410568217536,1,v,0.6817058999999972,correct,v
122,4F4K,123,2,49.48354478563273,32.45921855793443,1.399107042039399,37.08225658974711,1,v,0.6968186000003698,correct,v
123,4F4K,124,2,45.04759123405668,66.66905975356977,1.2758225975032655,66.16483988848336,2,b,0.5875183999996807,correct,b
124,4F4K,125,1,51.44441114627275,37.16569783179638,1.4573347819846525,41.194591089883694,2,n,2.5614660000001095,correct,n
125,4F4K,126,1,60.497470532821815,41.616304639579866,1.7592056173221955,45.159056564017526,2,n,0.5877083000000312,correct,n
126,4F4K,127,2,51.76486980166182,73.2496944400176,1.467078526110044,70.56898043450835,2,b,0.8363200999997389,correct,b
127,4F4K,128,2,62.988748406281125,45.515667032362,1.8527425863007927,48.6474753004861,1,b,0.6361208000002989,incorrect,v
128,4F4K,129,2,50.09462716478579,44.741943881077226,1.416999073488758,47.95615386062021,1,v,0.49652199999991353,correct,v
129,4F4K,130,1,36.88027903182368,50.48323935912506,1.0765448096992487,53.048680266830985,1,c,0.9093824999999924,correct,c
130,4F4K,131,2,71.67067381717679,60.20449293121618,2.2193238645935183,61.24291008493681,1,v,1.1034349000001384,correct,v
131,4F4K,132,2,50.3303073649361,37.600435297716174,1.4239605925583887,41.57955314633798,1,v,0.5222141999997802,correct,v
132,4F4K,133,2,48.9462778133408,26.68513489866228,1.3835629965497762,32.24377710555058,1,v,0.6179145000000972,correct,v
133,4F4K,134,1,49.611130061856784,61.6172362983604,1.4028238870245835,62.36198188824228,1,n,0.805270500000006,incorrect,c
134,4F4K,135,1,35.36985088077686,47.44864650720617,1.0432576693716658,50.36944463715873,1,c,0.520597799999905,correct,c
135,4F4K,136,2,42.46281417873041,56.78181557233549,1.2090588139684468,58.44599257652743,2,v,1.0062720999999328,incorrect,b
136,4F4K,137,1,50.46353624969413,38.14059961783829,1.4279110265187571,42.05875743639908,2,n,0.7150065000000723,correct,n
137,4F4K,138,1,38.71507971566725,48.46057394097316,1.1184125009240102,51.26678698706245,1,c,0.5632838999999876,correct,c
138,4F4K,139,2,54.85724651598173,47.097681715126924,1.5645170656407608,50.05747890223492,1,v,0.6664985000002162,correct,v
139,4F4K,140,1,52.47376988713323,65.71313873999196,1.4888651552034335,65.47098281526142,1,n,0.6482359000001452,incorrect,c
140,4F4K,141,2,44.95340149175212,25.71799755124987,1.2733261905993254,31.46312649592305,1,v,1.2794216999996024,correct,v
141,4F4K,142,2,33.44162268697045,48.67682169413054,1.0022543510415565,51.45809116035402,2,b,0.7408212000000276,correct,b
142,4F4K,143,1,48.17466200040825,31.57770730321572,1.3615404650739362,36.326386395198384,2,c,0.7589413999999124,incorrect,n
143,4F4K,144,1,47.62654754843175,63.718277187802045,1.346110111082542,63.98326011020971,1,n,1.1762628999999833,incorrect,c
144,4F4K,145,1,59.794238640705295,42.13261513387445,1.7336674141254766,45.62108495603209,2,n,0.9532258999997794,correct,n
145,4F4K,146,1,54.50037516954831,38.66257275357272,1.5529498651867233,42.52266798534824,2,n,0.5102102000000741,correct,n
146,4F4K,147,2,40.96663938207405,60.093251896152736,1.1720216187077557,61.153861812793615,2,b,0.878904700000021,correct,b
147,4F4K,148,2,64.18633196236468,48.89120382073392,1.89946082644644,51.64757191409628,1,b,0.5773054999999658,incorrect,v
148,4F4K,149,1,56.70180163793442,46.39217445606141,1.625692107769327,49.42937552763959,2,n,1.2674859999997352,correct,n
149,4F4K,150,2,57.66673632444317,52.58437368309953,1.6586414941573089,54.87843297105362,1,v,1.3098449999997683,correct,v
150,4F4K,151,2,33.008252875230376,53.00905771105161,0.9932629383551864,55.24512125560689,2,v,0.8135321999998268,incorrect,b
151,4F4K,152,2,40.649160126983496,58.91479908780207,1.1643096560499362,60.202548923243576,2,b,0.49814939999987473,correct,b
152,4F4K,153,2,48.16604887632781,64.0541345042519,1.3612966283689234,64.23737384301779,2,b,0.46616949999997814,correct,b
153,4F4K,154,1,36.30468600269535,46.70917571868989,1.063736321168285,49.71175149823375,1,c,0.48437879999983124,correct,c
154,4F4K,155,2,66.86938271587722,52.91897007032106,2.008448517746771,55.16743213324938,1,b,0.5449389000000338,incorrect,v
155,4F4K,156,2,69.58082070139577,60.86251353300148,2.1249437047575013,61.766909453486505,1,b,1.2855025999997451,incorrect,v
156,4F4K,157,1,47.7355893279144,69.16041873485034,1.349165825041719,67.91137473312016,1,c,0.8363897000003817,correct,c
157,4F4K,158,1,59.28875019612956,49.63800811377663,1.715539692402623,52.30619701537682,2,n,0.4492022999997971,correct,n
158,4F4K,159,1,54.73003400772203,67.86023580814448,1.560383902562473,67.0113111548106,1,n,0.7092591999999058,incorrect,c
159,4F4K,160,2,46.43869803824949,64.40068724867164,1.3132676200075577,64.49806207509222,2,b,1.0250562000001082,correct,b
160,4F4K,161,1,56.62379335498624,45.66908905739046,1.623057150741352,48.78444509426761,2,c,1.6888601999999082,incorrect,n
161,4F4K,162,2,47.30101681587391,31.942799191938107,1.3370287653650612,36.63879042912935,1,v,1.3355837999997675,correct,v
162,4F4K,163,1,65.4541774783955,42.80676018147248,1.950204378733934,46.22452849422337,2,n,0.8309367000001657,correct,n
163,4F4K,164,2,51.59729356186003,36.548703722917935,1.46197516787814,40.64944199884698,1,v,0.9213423000001058,correct,v
164,4F4K,165,1,44.94468618281577,32.02071208426956,1.2730954469158364,36.70558024411664,2,c,1.2128993999999693,incorrect,n
165,4F4K,166,2,55.578926681058505,39.11107806861154,1.5881726987380376,42.92187572786628,1,b,0.21872940000002927,incorrect,v
166,4F4K,167,1,61.76443405211796,43.70056528563082,1.8061691653020924,47.024584706905216,2,n,1.3765134000000216,correct,n
167,4F4K,168,1,36.91134618876478,45.6161142935137,1.0772405074965297,48.73715580427033,1,c,0.552654000000075,correct,c
168,4F4K,169,1,49.698031923530905,30.00858891777956,1.4053611846237974,34.99496082385411,2,c,0.7817626999999447,incorrect,n
169,4F4K,170,2,47.73234876853017,63.08047227692925,1.349074913839807,63.49677516823245,2,b,1.0785562999999456,correct,b
170,4F4K,171,1,37.61088534764434,48.890897723715455,1.0930251221921592,51.6473014972986,1,c,0.6421923999996579,correct,c
171,4F4K,172,2,39.120452753674165,56.725568481181554,1.1278800009644674,58.39910734390698,2,v,1.382601700000123,incorrect,b
172,4F4K,173,2,39.37120328191802,51.156454709927054,1.1337763639579148,53.63757523478224,2,b,0.7590095000000474,correct,b
173,4F4K,174,2,49.28293457898732,60.64585279404587,1.3932827230436144,61.59490024088508,2,b,0.8842124000002514,correct,b
174,4F4K,175,2,57.0990634181916,41.46317743140322,1.639177290886212,45.02206546009364,1,v,0.9997926000000916,correct,v
175,4F4K,176,1,45.90444116465916,58.45557651056104,1.2987585393906984,59.82802351554284,1,n,0.8623730000003889,incorrect,c
176,4F4K,177,2,48.82785538893872,64.3916804923488,1.380160129502712,64.49130658969955,2,b,0.7149082999999337,correct,b
177,4F4K,178,2,49.66524653211017,34.96308832103885,1.4044034018742595,39.25590762324765,1,v,0.6543079000002763,correct,v
178,4F4K,179,2,71.55608972950405,59.44067149874349,2.214042156268961,60.6288357267862,1,b,0.4782201999996687,incorrect,v
179,4F4K,180,2,69.85417603341162,60.78524299185222,2.1370568409810344,61.70562311710571,1,v,0.5693813999996564,correct,v
180,4F4K,181,1,63.20955470374622,44.74526726240143,1.8612690839491848,47.95912507585256,2,n,0.6786099000000831,correct,n
181,4F4K,182,2,56.04889933577346,45.43443790046828,1.6037696924624782,48.57494025760089,1,v,0.7453500000001441,correct,v
182,4F4K,183,1,52.01751568386186,57.8997416511176,1.4748062858207855,59.37196114355712,1,n,1.091440799999873,incorrect,c
183,4F4K,184,2,34.677557772419206,49.49926005804748,1.0283466942574515,52.184007675429406,2,v,0.6057696000002579,incorrect,b
184,4F4K,185,1,59.66045769933424,47.51523571195422,1.728851233031058,50.42859413872061,2,n,2.0562245000000985,correct,n
185,4F4K,186,1,75.07387357754985,58.62715992938195,2.382070657424784,59.96820423056137,2,n,0.5706643999997141,correct,n
186,4F4K,187,2,49.10778558623432,62.54555714202815,1.388217448667444,63.08489911502275,2,b,0.8303397999998197,correct,b
187,4F4K,188,1,38.16725718057347,47.70387418113669,1.105744231103204,50.59608393585844,1,c,0.6117970999998761,correct,c
188,4F4K,189,2,36.249422837530005,47.79464381497849,1.062514614497305,50.67663781131419,2,b,0.95169339999984,correct,b
189,4F4K,190,2,51.690984110409154,38.301860677492925,1.4648262230211324,42.20199609806753,1,v,0.95775440000034,correct,v
190,4F4K,191,2,47.18544954193064,68.98536744221119,1.333819537148338,67.79168059873484,2,b,0.4782197999998061,correct,b
191,4F4K,192,1,43.71140179918342,57.54657364667744,1.2408614633375794,59.08066843820566,1,c,2.2155517999999574,correct,c
192,4F4K,193,2,54.310066975965775,44.15632063181206,1.546816446749999,47.4323982778604,1,v,0.807539099999758,correct,v
193,4F4K,194,2,66.81178809972823,54.91567860473884,2.0060445465032477,56.8763074420613,1,v,0.9517132999999376,correct,v
194,4F4K,195,2,46.2470391455909,59.50439502428843,1.3080440936787827,60.68029975599731,2,b,0.5754587999999785,correct,b
195,4F4K,196,1,54.448178101673705,60.19856176660883,1.5512651961774495,61.2381655454944,1,n,0.6300197999999,incorrect,c
196,4F4K,197,1,41.88991791522261,35.64382588644995,1.1947406999452626,39.85276837583522,2,c,0.7029130000000805,incorrect,n
197,4F4K,198,2,25.223530905654037,40.64663055840066,0.8448141635293384,44.29197757181542,2,v,1.3583133000001908,incorrect,b
198,4F4K,199,2,65.80435106585064,51.789142623503125,1.9644569223658843,54.18882539545504,1,v,0.6846867999997812,correct,v
199,4F4K,200,2,52.10199926092952,46.97687650294227,1.4773994829175423,49.95001810997561,1,v,0.642399899999873,correct,v
200,4F4K,201,2,41.05184950507014,28.15048626010513,1.1741001585297426,33.44435776629044,1,b,2.4110866999999416,incorrect,v
201,4F4K,202,1,38.765694942501945,53.888879962232906,1.1195902654966816,56.00102461664909,1,c,0.6179234000001088,correct,c
202,4F4K,203,1,40.33782697650244,57.08612306417688,1.1567962730023358,58.69916725047937,1,c,0.46622370000022784,correct,c
203,4F4K,204,1,69.7793326460586,62.72795453412808,2.133733473877164,63.22573320351096,2,n,0.4123003999998218,correct,n
204,4F4K,205,1,53.94700904326881,43.76671624395375,1.5351826066942886,47.08378560265364,2,n,1.7163666999999805,correct,n
205,4F4K,206,2,57.59979380756257,43.443715937906525,1.656334220870457,46.794699961922376,1,v,0.8013735999998062,correct,v
206,4F4K,207,2,60.52235577206889,47.2896169432377,1.760116196074572,50.22812991752786,1,b,0.5685181000003467,incorrect,v
207,4F4K,208,1,66.55190252480541,52.05649908750453,1.995232784149732,54.42109012290635,2,n,0.5693913999998585,correct,n
208,4F4K,209,1,55.33029503397395,72.10871037465458,1.57998279779885,69.85491316405835,1,n,0.6543340999996872,incorrect,c
209,4F4K,210,1,45.9078736690987,66.64857955120921,1.298851244087715,66.15010833537889,1,c,2.0456481000001077,correct,c
210,4F4K,211,2,68.09768662447645,51.08104616801853,2.0604087882904123,53.57172796434914,1,b,2.587293199999749,incorrect,v
211,4F4K,212,2,40.41186525525934,50.49907188160762,1.158578628250457,53.06255598563317,2,v,1.4247169999998732,incorrect,b
212,4F4K,213,1,35.03442599147593,21.499361461577543,1.036006302585872,28.18074715099232,2,c,0.7514077999999245,incorrect,n
213,4F4K,214,1,50.736289588833614,33.1806427438677,1.436032786022289,37.7047063651938,2,n,1.1641177999999854,correct,n
214,4F4K,215,2,25.37648958141085,41.38100550707522,0.8475055302466589,44.94856114725669,2,v,1.2368913000000248,incorrect,b
215,4F4K,216,1,34.02042897087999,46.52664226804338,1.0143903099064835,49.54918495502408,1,n,0.8924465999998574,incorrect,c
216,4F4K,217,2,65.99175710956352,55.09272881635558,1.9721273453812127,57.02643585082592,1,b,0.5450643999997737,incorrect,v
217,4F4K,218,2,42.64045927898941,49.53109068451409,1.2135333681482496,52.21204684475396,2,v,0.8485259999997652,incorrect,b
218,4F4K,219,2,63.20057799901637,53.73140062402864,1.8609216819715344,55.86611243449479,1,v,0.6966293000000405,correct,v
219,4F4K,220,1,44.52288544079303,64.06869710369666,1.2619778277778109,64.24835947916657,1,c,1.1419680999997581,correct,c
220,4F4K,221,2,60.68869274121825,50.56027911245788,1.766214767879553,53.11618678889998,1,b,0.7332078999997975,incorrect,v
221,4F4K,222,1,39.261984764972205,51.592125993833264,1.131204326362676,54.017406001463605,1,c,0.7567715999998654,correct,c
222,4F4K,223,2,35.12183877248418,50.20936961739142,1.037891161372362,52.808467159034166,2,v,0.982028899999932,incorrect,b
223,4F4K,224,1,57.42905455396773,70.64170942590643,1.650463960930631,68.9051989110518,1,n,0.520816300000206,incorrect,c
224,4F4K,225,2,80.97894103487006,63.37247699776748,2.693287480980534,63.720131787619856,1,b,0.5996981999996933,incorrect,v
225,4F4K,226,1,36.21551561538086,50.205677246527046,1.0617657198226436,52.80522610562783,1,c,0.6536498999998912,correct,c
226,4F4K,227,1,58.786619392148175,44.583590352070296,1.6977200502867005,47.81456527488266,2,n,1.067584800000077,correct,n
227,4F4K,228,2,52.54022205495093,72.48978724356563,1.4909239417939597,70.09583268774742,2,b,0.7225761999998213,correct,b
228,4F4K,229,1,20.03636244428441,35.44128325766653,0.7584315437173482,39.674948558565205,1,c,0.7333410000001095,correct,c
229,4F4K,230,1,38.31985284505844,43.35032969789978,1.1092584823938612,46.71111082834173,1,c,0.7471624999998312,correct,c
230,4F4K,231,2,60.5022879821429,48.887192361470056,1.7593818564060824,51.64402802200374,1,v,0.6907211000002462,correct,v
231,4F4K,232,2,56.42716053191038,71.96243726206117,1.6164342391232691,69.76179787286664,2,b,0.46068230000037147,correct,b
232,4F4K,233,2,50.6181823780754,62.12446528501744,1.4325102593815044,62.75823874863666,2,b,0.5026363000001766,correct,b
233,4F4K,234,2,41.5470792804981,66.57006579987303,1.1862535284007558,66.09357791707926,2,b,0.5754179999998996,correct,b
234,4F4K,235,1,60.9778628497978,51.22586918967007,1.7768672303541744,53.69816172289595,2,c,0.9754754000000503,incorrect,n
235,4F4K,236,2,47.42757755825835,62.848700719496826,1.3405521340038435,63.31874283968983,2,b,0.801507500000298,correct,b
236,4F4K,237,1,56.24971031865381,42.27579215198082,1.6104806307804893,45.74923504774185,2,n,0.7514194000000316,correct,n
237,4F4K,238,1,72.3676313954924,52.21031853239309,2.2517223435592446,54.55453032192314,2,n,0.41309110000020155,correct,n
238,4F4K,239,1,57.21672086973447,63.6543614991824,1.643192641438488,63.9347383916131,1,n,0.5086458000000675,incorrect,c
239,4F4K,240,1,48.46060180599002,63.91257745150926,1.369660234054184,64.13044541124309,1,c,1.206591799999842,correct,c
240,4F4K,241,2,63.498951056294736,41.79818370942199,1.8725036510534128,45.32179401063478,1,v,1.9477464999999938,correct,v
241,4F4K,242,2,50.474209437556446,63.310526150586654,1.4282279761215524,63.67283357422819,2,b,0.9190880999999536,correct,b
242,4F4K,243,1,37.70459093086786,47.06073165890309,1.0951570157602477,50.024614621937694,1,c,0.5683949999997822,correct,c
243,4F4K,244,2,50.45553670616399,29.34348611587974,1.4276735192267354,34.43650604137217,1,v,0.69077070000003,correct,v
244,4F4K,245,1,37.09663411838134,49.75275640296554,1.0813990720476887,52.40718748053242,1,c,0.587555500000235,correct,c
245,4F4K,246,1,46.987023419460485,28.410714254950985,1.328327329345431,33.65968943422303,2,c,0.7817481000001862,incorrect,n
246,4F4K,247,2,58.10428140629952,72.48151240776977,1.673801496177955,70.09062699236581,2,b,2.8535486999999193,correct,b
247,4F4K,248,1,35.66438858330899,47.2769791793626,1.0496669582396758,50.21689678037796,1,c,0.708904099999927,correct,c
248,4F4K,249,1,58.09043237395629,36.234105110381066,1.6733195399863927,40.37206182588472,2,n,0.5026302999999643,correct,n
249,4F4K,250,1,72.96105183408652,64.32911017490768,2.2796803608404472,64.44434683553723,2,n,0.611247800000001,correct,n
250,4F4K,251,1,34.94067696403916,42.57930189517498,1.033988620983816,46.02091354409144,1,c,0.5937856999998985,correct,c
251,4F4K,252,1,56.95571638105823,41.95219432147467,1.6342984770165625,45.45961385659782,2,c,0.7149765000003754,incorrect,n
252,4F4K,253,2,30.9739760402462,37.94108802217178,0.95212261456813,41.88165288105545,2,v,0.59425229999988,incorrect,b
253,4F4K,254,2,66.42847914143869,54.792641245867344,1.990118550770028,56.77183755105998,1,v,2.245879699999932,correct,v
254,4F4K,255,2,57.07975722181391,43.25236489602209,1.6385193570972711,46.62342048556231,1,v,0.5056682999997975,correct,v
255,4F4K,256,1,40.16468528567416,61.417556934378766,1.152638855186916,62.205170903628925,1,c,0.6006820000002335,correct,c
256,4F4K,257,2,65.30954517549529,52.81594302011055,1.944347864164615,55.078520602081056,1,v,0.5450322000001506,correct,v
257,4F4K,258,2,67.88969602110276,56.8031340409527,2.051516674911948,58.46375552539734,1,v,1.3583261000003404,correct,v
258,4F4K,259,2,34.99695980957262,48.8120222619628,1.0351994775148214,51.57760808129535,2,v,0.5954578000000765,incorrect,b
259,4F4K,260,1,38.09203701398953,48.47582215714545,1.104016022828296,51.2802819713344,1,c,0.5694582999999511,correct,c
260,4F4K,261,2,58.17957427378076,36.78394683635074,1.6764241715031405,40.85711840508387,1,v,0.6968140000003586,correct,v
261,4F4K,262,1,46.0592493456553,64.11816314830492,1.302946168939768,64.28565499610205,1,c,0.587550800000372,correct,c
262,4F4K,263,2,52.66764320788319,37.76410719082913,1.494879604254472,41.724654137908566,1,v,0.9759841000000051,correct,v
263,4F4K,264,2,43.94038780514395,30.58656542640392,1.2467840761271831,35.483182766143486,1,v,0.6899967999997898,correct,v
264,4F4K,265,1,45.84699585327383,27.295383776978856,1.2972080444476028,32.74123734522179,2,c,0.8303500000001804,incorrect,n
265,4F4K,266,1,54.51978579741139,48.78622377437542,1.553576812990339,51.55480765354136,2,c,0.9941826999997829,incorrect,n
266,4F4K,267,1,52.121561302707015,64.54864469571696,1.4780005835361771,64.60888563074543,1,n,0.6361185999999179,incorrect,c
267,4F4K,268,2,37.85589476440036,55.23108410870582,1.0986081068401403,57.14358428089663,2,v,0.7699711000000207,incorrect,b
268,4F4K,269,1,44.00297328439228,37.03773163222115,1.2484077327078034,41.08140606751373,2,c,0.8061487999998462,incorrect,n
269,4F4K,270,2,32.93276385467836,41.22248190896451,0.9917049869223792,44.806777376722735,2,v,0.9880958000003375,incorrect,b
270,4F4K,271,1,57.48892306708029,48.38769049102216,1.652519953756519,51.20227208319329,2,c,0.8796216000000641,incorrect,n
271,4F4K,272,2,55.286535385893565,43.60394194890741,1.578545736427717,46.93810873259847,1,v,0.7999328000000787,correct,v
272,4F4K,273,1,56.680011708826704,63.83592754753538,1.6249556591660914,64.0724393062287,1,n,1.097324899999876,incorrect,c
273,4F4K,274,2,36.61639771876303,47.51342322149768,1.0706537087387005,50.42698432497576,2,v,1.1959154000001035,incorrect,b
274,4F4K,275,2,53.90287477962197,40.15904321481298,1.5337743449839412,43.85644974101914,1,v,1.3357092000001103,correct,v
275,4F4K,276,1,41.23436593325694,58.83099189991417,1.1785647140489717,60.13435461117009,1,c,0.9107558999999128,correct,c
276,4F4K,277,1,65.93528697114161,45.12059736401583,1.9698129073347024,48.29459039649148,2,n,0.570604099999855,correct,n
277,4F4K,278,1,54.41811769498687,42.41074644966512,1.550295821016422,45.8700325157522,2,n,1.212604199999987,correct,n
278,4F4K,279,1,54.24690365421375,69.39146733295702,1.5447861230754905,68.06863875456877,1,n,0.9773734999998851,incorrect,c
279,4F4K,280,2,66.22623452406107,50.756369440875794,1.9817665652966487,53.2878790173225,1,v,0.7635508000003028,correct,v
280,4F4K,281,1,40.543684731622825,55.78087334954378,1.161758775072647,57.60760536282722,1,c,2.245670400000108,correct,c
281,4F4K,282,1,68.85739418012272,57.5043111367708,2.093216919453892,59.04573285543528,2,c,0.5587602000000516,incorrect,n
282,4F4K,283,1,51.27200410970214,61.67264089058908,1.4521194402560138,62.40541060043813,1,n,0.3386942000001909,incorrect,c
283,4F4K,284,1,30.607265628618784,41.182852550664464,0.9448897884144876,44.771336863908274,1,c,0.6780948000000535,correct,c
284,4F4K,285,2,37.842784930211295,51.09913624201401,1.0983086546328953,53.58752708728531,2,v,0.7392737000000125,incorrect,b
285,4F4K,286,2,56.08780825519657,39.54294866160614,1.605067808725022,43.30673776792983,1,v,0.8606911999995646,correct,v
286,4F4K,287,1,48.585292515270766,62.60085293394695,1.373216193622202,63.12763697093908,1,n,3.3056194999999207,incorrect,c
287,4F4K,288,2,64.79573407144426,51.06423451485961,1.923684256557607,53.55704381491976,1,b,0.5929998999999953,incorrect,v
288,4F4K,289,2,35.05821345705603,49.98708942250219,1.036518886179658,52.61324266844333,2,v,0.5390171999997619,incorrect,b
289,4F4K,290,2,79.49290921980565,59.916014209417085,2.611334508096746,61.01171059141349,1,v,0.9031217000001561,correct,v
290,4F4K,291,2,52.5829128119614,38.72264738604071,1.4922480663595905,42.57610917895684,1,v,0.5624811999996382,correct,v
291,4F4K,292,1,47.99095405825494,64.61559624308671,1.3563491672942516,64.65893981574966,1,c,1.0184862000000976,correct,c
292,4F4K,293,2,58.879205482110265,43.3486926975603,1.7009917743791367,46.70964553857471,1,v,0.5088542999997117,correct,v
293,4F4K,294,1,53.602053871404586,46.56360025062186,1.5242099265155489,49.58210669279861,2,c,0.6725177999996959,incorrect,n
294,4F4K,295,1,65.38731115444905,72.89120112694465,1.947494608958128,70.34698257923203,1,n,1.4493399000002682,incorrect,c
295,4F4K,296,1,52.14023159495501,68.21078099960258,1.478574510653175,67.2564724119669,1,c,1.2202793999999813,correct,c
296,4F4K,297,1,52.16065407345109,40.02432893084981,1.4792025554156665,43.7361887802218,2,n,1.2810685999997986,correct,n
297,4F4K,298,1,46.07205534182034,30.992323313559616,1.3032931808512471,35.82748781392315,2,c,0.8014994000000115,incorrect,n
298,4F4K,299,1,44.24332303701207,33.24476822720864,1.2546628086180989,37.76019332055555,2,n,0.6376458999998249,correct,n
299,4F4K,300,1,41.66931590858022,60.601700253685614,1.1892726295575955,61.55978360943022,1,c,0.8573971000000711,correct,c
300,4F4K,301,1,69.33768467777713,52.91641873331842,2.114227375507557,55.16523116931933,2,c,0.54207150000002,incorrect,n
301,4F4K,302,2,57.403193784649936,69.79210767119558,1.649576646726119,68.3393809914264,2,b,0.8675567999998748,correct,b
302,4F4K,303,2,59.15070062082072,47.53526476874613,1.710622022713264,50.44638284368586,1,v,0.6179546999997001,correct,v
303,4F4K,304,1,51.317207061803785,39.466777002821566,1.4534850291670238,43.23882680818752,2,c,0.9213737000000037,incorrect,n
304,4F4K,305,1,50.475735601790895,35.82739223584811,1.4282733026454888,40.01409254517942,2,n,0.6014652999997452,correct,n
305,4F4K,306,1,65.30297630541597,53.59555025899235,1.944082292525272,55.749591804828185,2,n,1.8134712999999465,correct,n
306,4F4K,307,1,46.41861740963612,37.3566266820128,1.3127193599765612,41.36357724732928,2,n,2.5082635999997365,correct,n
307,4F4K,308,1,36.714288645797794,45.04293286925321,1.0728353346313215,48.22519064042032,1,c,0.8788878999998815,correct,c
308,4F4K,309,2,46.016504468678335,30.07493417778325,1.301788553628273,35.05086765620955,1,v,0.7336608000000524,correct,v
309,4F4K,310,2,51.6751216869768,69.84286377149908,1.464343130030115,68.3735025029832,2,b,0.5511274999998932,correct,b
310,4F4K,311,2,50.9871454419497,63.56936367119434,1.4435432804681538,63.87013225122665,2,b,0.5693350000001374,correct,b
311,4F4K,312,2,57.72335416234756,44.462633469750656,1.6605954205648672,47.70639513873495,1,v,0.738789099999849,correct,v
312,4F4K,313,1,57.99628972674361,74.2517309304876,1.6700469848121662,71.177840205482,1,c,1.3886416000000281,correct,c
313,4F4K,314,1,55.88206823966412,45.19762756018215,1.5982156061911883,48.36341463334136,2,n,0.6126322999998592,correct,n
314,4F4K,315,2,48.93865637404255,36.55743078849053,1.383343742191321,40.65714243165152,1,v,0.5207955000000766,correct,v
315,4F4K,316,1,40.18971710529429,51.82230596747324,1.153238985310368,54.21765833628206,1,c,0.7453841999999895,correct,c
316,4F4K,317,2,45.65866627562973,24.43859610125253,1.2921378482389747,30.445778295531834,1,v,0.6231575000001612,correct,v
317,4F4K,318,1,34.32941779592494,44.69466639880216,1.020928996945184,47.91388474659833,1,c,0.8546244999997725,correct,c
318,4F4K,319,2,51.30179966336817,40.12327823136695,1.4530194248238475,43.82451878564451,1,v,0.5632988000002115,correct,v
319,4F4K,320,2,27.89694262034442,45.472342275710105,0.8931090698680718,48.608789053794176,2,v,1.0852292000004127,incorrect,b
320,4F4K,321,1,62.68713439044294,43.06390617681457,1.8411587581023072,46.454720769002165,2,n,3.095300199999656,correct,n
321,4F4K,322,2,57.78344609351628,70.67829783160943,1.662671758712715,68.92930906710106,2,b,0.8970997999999781,correct,b
322,4F4K,323,1,55.25964986929808,67.32427806217248,1.5776634677189283,66.63298702335342,1,c,1.2119419000000562,correct,c
323,4F4K,324,2,33.26074625348011,46.99687646246243,0.9984917326877818,49.96781153966579,2,v,1.1034288999999262,incorrect,b
324,4F4K,325,2,27.31258425010384,46.37102664393429,0.8823222229438634,49.41052924853126,2,v,1.4796830000000227,incorrect,b
325,4F4K,326,1,33.95586002481235,41.74727700395722,1.0130292288795206,45.276242462838816,1,c,1.9500168999998095,correct,c
326,4F4K,327,1,48.218774622272775,41.58161222197236,1.3627899739443934,45.12801820098275,2,c,1.4330418000004101,incorrect,n
327,4F4K,328,1,56.89504475718477,70.13215653757622,1.6322378955950234,68.5672134832246,1,c,1.9364066000002822,correct,c
328,4F4K,329,2,53.31878676488719,38.2599036395931,1.5152581507025176,42.16472067774728,1,v,0.4692340999999942,correct,v
329,4F4K,330,1,66.51464456665576,52.62262429159023,1.9936875613308265,54.91150660023896,2,n,2.3915154000001166,correct,n
330,4F4K,331,1,45.20163712534537,30.722632188021837,1.279915985365121,35.598501383673195,2,c,0.6322666999999456,incorrect,n
331,4F4K,332,1,67.50052630296598,46.487949343119205,2.0349816552534428,49.51471428259948,2,n,1.7649514999998246,correct,n
332,4F4K,333,1,60.68258154819802,56.17351567782679,1.765990333887721,57.93749002987605,2,n,0.6990170000003673,correct,n
333,4F4K,334,1,30.82756329605622,48.40265852591123,0.9492282213945672,51.21552302693713,1,c,0.6302565000000868,correct,c
334,4F4K,335,1,29.27440768860973,36.866996228447846,0.9190608128156024,40.93048784506083,1,c,0.5572486999999455,correct,c
335,4F4K,336,1,59.02964928225236,38.51912301589576,1.7063214738729178,42.39509774953641,2,c,1.0427584999997634,incorrect,n
336,4F4K,337,2,40.72198854986095,63.90597176368154,1.1660742509303206,64.12544939445,2,b,0.866765100000066,correct,b
337,4F4K,338,2,56.71608239498056,37.84741649157944,1.6261749449768013,41.79854477428126,1,v,0.5088952000000972,correct,v
338,4F4K,339,2,43.27767936951249,60.90900121236815,1.2297204443363254,61.80374873004102,2,b,0.6966821999999411,correct,b
339,4F4K,340,1,64.20607022732545,46.73147125132154,1.9002406119581168,49.73160257307224,2,n,2.7003709000000526,correct,n
340,4F4K,341,1,39.102026494253295,51.16365330692434,1.127447921532992,53.6438595234393,1,c,0.7994259000001875,correct,c
341,4F4K,342,1,54.8101257631276,43.52787347838456,1.5629848267293465,46.87002575360237,2,c,2.2336362999999437,incorrect,n
342,4F4K,343,2,48.48463146685143,65.19830642283956,1.370344800665701,65.0920834489838,2,b,0.6983224999999038,correct,b
343,4F4K,344,2,56.10453229656286,39.09917779102512,1.6056260948727723,42.91127693058901,1,v,0.836204700000053,correct,v
344,4F4K,345,1,52.51967546900867,39.66771171955735,1.490287074274985,43.41799717535155,2,c,1.1642486999999164,incorrect,n
345,4F4K,346,2,45.492512782038105,57.31399470583333,1.2876811318386276,58.88820830411656,2,b,0.8276134000002457,correct,b
346,4F4K,347,1,51.774046538974005,40.64536164003928,1.467358507918141,44.29084366183816,2,c,1.0017438999998376,incorrect,n
347,4F4K,348,1,43.13260177225437,54.21159306857961,1.2260162092807296,56.27694600256778,1,c,0.9288585999997849,correct,c
348,4F4K,349,2,57.08074071947867,35.985941957308825,1.6385528672236849,40.15355393220657,1,v,0.6136538999999175,correct,v
349,4F4K,350,2,56.35205632843121,48.81912686096756,1.6139117464340405,51.583886602321314,1,v,0.9107404000001225,correct,v
350,4F4K,351,1,37.963438422506606,59.71969032058244,1.1010676815489833,60.85386366891422,1,c,0.5521745999999439,correct,c
351,4F4K,352,2,45.65077566992617,52.455756627839584,1.2919258509650569,54.76715698568061,2,v,0.6482466000002205,incorrect,b
352,4F4K,353,2,23.51911431608824,38.14792275890972,0.815396364433821,42.065260454816936,2,v,0.51493070000015,incorrect,b
353,4F4K,354,2,23.443130291145845,37.043781708360896,0.81410902010414,41.08675593704909,2,b,0.9334734999997636,correct,b
354,4F4K,355,1,60.071624951982216,74.88520154387255,1.7436962529886686,71.55377209770283,1,n,1.1397266999997555,incorrect,c
355,4F4K,356,2,32.56430788504278,47.25632312017558,0.9841357494982902,50.198535562702986,2,b,0.41153429999985747,correct,b
356,4F4K,357,2,48.3652021719129,60.40638181648255,1.3669458232799134,61.4041816842174,2,v,1.7588713000000098,incorrect,b
357,4F4K,358,1,29.4898982023688,42.74954832950556,0.923188364510592,46.17331342215426,1,n,0.7653368999999657,incorrect,c
358,4F4K,359,1,38.32252420737325,55.59609025226606,1.1093201027681123,57.4519191385474,1,c,0.42427020000013727,correct,c
359,4F4K,360,2,43.25504455693133,57.8557844029582,1.229141778544461,59.33576873336381,2,v,0.48468800000000556,incorrect,b
360,4F4K,361,1,62.26734623607227,46.02479471050244,1.825156768648564,49.10183807663972,2,n,2.239635200000066,correct,n
361,4F4K,362,2,70.94522202660949,57.23812995985743,2.186095854581542,58.82532332272733,1,v,1.0260590999996566,correct,v
362,4F4K,363,1,37.13061172631196,51.33556467309543,1.0821633985916133,53.79385360343901,1,c,0.6725255000001198,correct,c
363,4F4K,364,1,38.067185031465016,60.74076340897736,1.1034456341209158,61.67031460410959,1,c,0.5389839999998003,correct,c
364,4F4K,365,2,42.50772166442006,52.55645053220736,1.2101883905412028,54.854283303619525,2,v,0.5700114000001122,incorrect,b
365,4F4K,366,1,62.09082831456021,80.24765346851315,1.818469652290936,74.44502710645409,1,n,0.7393133000000489,incorrect,c
366,4F4K,367,2,40.02084453281043,51.96936985665068,1.1491963660783886,54.34544259504383,2,v,0.5450964999999997,incorrect,b
367,4F4K,368,2,40.7566610573144,56.10381953231168,1.166915287234121,57.879027202795456,2,b,0.7999727000001258,correct,b
368,4F4K,369,2,34.574390886200526,47.66705002738253,1.0261429518282688,50.56339682200421,2,b,0.4661815000004026,correct,b
369,4F4K,370,2,45.998667539836696,64.83237532413553,1.3013057987124816,64.8206033430599,2,b,0.4967223000003287,correct,b
370,4F4K,371,2,44.200637561664536,60.56057329258858,1.2535496395432917,61.52705413358469,2,b,0.4540249000001495,correct,b
371,4F4K,372,2,54.08911701779164,40.24844290242335,1.539725860990812,43.93627542176407,1,v,0.6846307000000706,correct,v
372,4F4K,373,1,73.77264440795837,58.47286590165519,2.318480081401135,59.84216169743205,2,n,0.44190859999980603,correct,n
373,4F4K,374,1,57.47922204182326,69.9917549772705,1.6521866292387448,68.4733643051829,1,c,0.6118203999999423,correct,c
374,4F4K,375,1,37.64269577703397,26.175686508648223,1.093748374848584,31.831354920506698,2,c,0.6421706000000995,incorrect,n
375,4F4K,376,2,40.06862897197461,56.24176806431912,1.1503388319594794,57.994702254890186,2,b,0.7340830000002825,correct,b
376,4F4K,377,2,52.91494856811276,31.5490789214064,1.5025869285953417,36.30192949340557,1,v,1.0914316000003055,correct,v
377,4F4K,378,2,45.68872118496702,61.30025549154162,1.2929456535499864,62.11283986130197,2,b,0.6057604000002357,correct,b
378,4F4K,379,1,64.57547931872617,49.11194352798213,1.9148937960874128,51.84248516620431,2,n,0.9698471000001518,correct,n
379,4F4K,380,2,63.60139491289275,50.17569280466593,1.876496822625921,52.77890427393397,1,v,0.739647800000057,correct,v
380,4F4K,381,2,57.34071829792226,64.6758582615709,1.6474350051502251,64.70394248407135,2,v,0.521182299999964,incorrect,b
381,4F4K,382,2,43.37766126177486,34.63373682462077,1.232279772657295,38.967966957491264,1,v,0.9093049000002793,correct,v
382,4F4K,383,1,48.59685703710338,40.54957741195184,1.3735464608890229,44.20525727662215,2,c,1.0791117999997368,incorrect,n
383,4F4K,384,2,61.09269783815154,69.72892419443804,1.781115328670151,68.29684884667357,2,b,0.8485086000000592,correct,b
384,4F4K,385,1,51.66158437128851,70.07806521529326,1.4639309746238314,68.53109370334965,1,c,1.8195980000000418,correct,c
385,4F4K,386,2,54.03489364684174,33.35561700184811,1.5379907318116068,37.85616877688287,1,v,0.7104598000000806,correct,v
386,4F4K,387,1,45.11658340630802,57.0076268455022,1.2776542723982218,58.6339393424418,1,c,1.7300963999996384,correct,c
387,4F4K,388,1,55.565195299911295,35.343457682860446,1.587719282925094,39.58913342631342,2,n,0.49801990000014484,correct,n
388,4F4K,389,1,40.310223580194936,23.342128039540327,1.156132466531814,29.588620645699397,2,c,0.5663415999997596,incorrect,n
389,4F4K,390,1,54.49835349151472,69.16680408427571,1.5528845811478529,67.9157319582652,1,c,1.0915981999996802,correct,c
390,4F4K,391,2,64.02087279367632,49.64222410010095,1.8929367207757577,52.30990854478362,1,v,0.6676140999998097,correct,v
391,4F4K,392,2,34.30047871936438,46.914873117067934,1.0203148161149178,49.8948486154471,2,v,1.6617875000001732,incorrect,b
392,4F4K,393,1,52.92492106286896,60.876824029238456,1.502898555660744,61.77825240267136,1,c,1.2202496999998402,correct,c
393,4F4K,394,1,46.030129340112445,56.01948169782142,1.3021574302238996,57.8082282995636,1,c,1.7194081999996342,correct,c
394,4F4K,395,1,53.97259832325875,61.400247450682045,1.5359997164120498,62.191556016191385,1,c,0.6573152999999365,correct,c
395,4F4K,396,1,61.63579695682047,71.3902358327287,1.8013442394953745,69.39416041170469,1,c,0.49029309999968973,correct,c
396,4F4K,397,2,54.79112994582451,42.76085095539831,1.562367558833471,46.18343132544896,1,v,0.6968166000001474,correct,v
397,4F4K,398,1,31.24513551688488,43.47707245144878,0.9575064201161438,46.824556284348304,1,c,0.9704968999999437,correct,c
398,4F4K,399,1,58.12489167227512,52.36814642431912,1.6745190051430336,54.6913008709388,2,c,0.514706599999954,incorrect,n
399,4F4K,400,2,39.65380992136853,46.93699853711072,1.1404587751616602,49.91453657885943,2,v,0.5511381000001165,incorrect,b
