,condition,trial,sub_task,x,y,xt,yt,cat,resp,rt,acc,correct_resp
0,2F4K,1,2,33.544086385507455,52.754985877155775,1.004392103655164,55.173263888937285,2,b,1.9409297999998216,correct,b
1,2F4K,2,2,38.79480822888576,51.29742090812345,1.1202682636769543,53.89539149456478,2,b,1.2494386999999278,correct,b
2,2F4K,3,2,77.50780035344863,58.309951046644194,2.505735284046834,59.902749010256976,1,v,1.1217145999999047,correct,v
3,2F4K,4,1,40.20589639089982,52.72166322234037,1.153627044910076,55.14419329944727,1,n,1.2188141000001451,incorrect,c
4,2F4K,5,1,44.88344890535466,59.18756551731708,1.271475327337026,60.62504414387153,1,n,1.8257582999999613,incorrect,c
5,2F4K,6,2,72.83476992908332,55.34942212173573,2.273701868137239,57.41308778807105,1,b,1.32805889999986,incorrect,v
6,2F4K,7,2,43.50140040240574,51.03067228152117,1.2354546137201778,53.66021490784162,2,b,1.9348595000001296,correct,b
7,2F4K,8,1,23.110589806130086,42.739681843322,0.8084988877965725,46.22378869973235,1,n,3.374647300000106,incorrect,c
8,2F4K,9,2,55.76988152896631,36.173590061002415,1.5944915431628113,40.31996088076925,1,b,2.051701699999967,incorrect,v
9,2F4K,10,2,42.74728251445798,24.66608366950461,1.2162320184444897,30.53021193577177,1,b,1.0975171000000046,incorrect,v
10,2F4K,11,2,61.03929428407827,47.69453793907242,1.7791385056074909,50.69106767130983,1,v,1.6072621000000709,correct,v
11,2F4K,12,1,21.51242314198147,38.49228624443464,0.7820716511492506,42.39284478524614,1,n,2.4508659999999054,incorrect,c
12,2F4K,13,2,62.17453671032247,49.902430729772135,1.821637759197579,52.66149055066239,1,b,3.770078499999954,incorrect,v
13,2F4K,14,2,39.71224001544172,59.19307815873054,1.1418452971375053,60.629556583159975,2,b,0.922202999999854,correct,b
14,2F4K,15,1,52.28260315969961,41.26899171740501,1.4829583660396344,44.89460002173381,2,c,2.1352861000000303,incorrect,n
15,2F4K,16,2,26.27752775798542,36.9501994310794,0.8635345658727352,41.01203783441776,2,b,1.6427887999998347,correct,b
16,2F4K,17,2,37.26825043676689,52.93738834667091,1.085265112951507,55.33226517612992,2,v,1.0052439999999478,incorrect,b
17,2F4K,18,1,72.3537018557915,56.27845367479101,2.2510702116937384,58.20263060557793,2,c,1.3816507000001366,incorrect,n
18,2F4K,19,2,47.96786549821576,60.808497078042045,1.3556981225789393,61.93802744845196,2,b,1.4437871999998606,correct,b
19,2F4K,20,2,70.72688622282342,59.17373664546415,2.176193114860767,60.61372298077078,1,v,2.2762376999999105,correct,v
20,2F4K,21,2,63.95369619167059,57.33791344087823,1.890294326944848,59.0939889931201,1,v,0.9337711999996827,correct,v
21,2F4K,22,2,44.57793276935429,58.55288263434901,1.2634232118852626,60.10345571062927,2,b,1.2272436999996899,correct,b
22,2F4K,23,1,45.97932265449281,26.34411419562291,1.3007824334509357,31.885614694323493,2,c,2.1972952999999507,incorrect,n
23,2F4K,24,1,37.30672412567208,57.42391839150324,1.0861337135509013,59.16590508524728,1,n,1.2554098000000522,incorrect,c
24,2F4K,25,1,61.48193036022881,44.79254551140652,1.7955899303962313,48.07895649216704,2,c,3.0711114000000634,incorrect,n
25,2F4K,26,1,38.366226299252034,46.999590104876,1.1103286660993494,50.067358392254974,1,n,0.7262834999996812,incorrect,c
26,2F4K,27,1,45.86023945284425,58.27075153337019,1.2975653355427004,59.87030875241258,1,n,1.4863697999999204,incorrect,c
27,2F4K,28,2,43.82372341772704,57.95352295942929,1.2437630840806173,59.60723343793058,2,b,1.2192245999999614,correct,b
28,2F4K,29,1,72.67001734162105,63.98610568041951,2.2659256442016407,64.42444146835507,2,c,5.0,correct,n
29,2F4K,30,2,46.62509261817971,31.18526659760836,1.31836767852304,35.949846740365565,1,b,1.152089100000012,incorrect,v
30,2F4K,31,1,62.70661137144407,53.40424282152746,1.841904601320004,55.73823192944376,2,n,0.7262743000001137,correct,n
31,2F4K,32,1,47.29354012049477,36.739461117886485,1.3368209089688958,40.82399630589443,2,n,1.5152766999999585,correct,n
32,2F4K,33,1,39.67748004872663,48.16789276373484,1.1410202545101331,51.115041199425086,1,n,0.7515555999998469,incorrect,c
33,2F4K,34,2,24.63546588749545,45.37869999043055,0.8345462884712347,48.60793194546764,2,b,1.0549697000001288,correct,b
34,2F4K,35,1,45.94506218415453,68.62116929675383,1.2998560516649087,67.81292999937372,1,c,1.1899161999999706,correct,c
35,2F4K,36,2,45.872403511989184,59.43761643538838,1.2978935890696497,60.82941094724499,2,b,1.1763842000000295,correct,b
36,2F4K,37,1,45.31565211119555,27.09442163291896,1.2829541062299497,32.50127404428829,2,c,1.2916685999998663,incorrect,n
37,2F4K,38,1,62.441420602066,38.173243959732034,1.8317753966507149,42.10653627960436,2,n,0.800060300000041,correct,n
38,2F4K,39,1,38.8743658964798,48.48025872113199,1.1221231191645038,51.39440055455472,1,c,0.8318881000000147,correct,c
39,2F4K,40,2,33.906759398128294,50.86940435720337,1.0119954348144322,53.51785107366038,2,b,0.8548515000002226,correct,b
40,2F4K,41,1,26.9800732421856,49.28398524337823,0.8762425615865453,52.11151190471319,1,c,3.362400699999853,correct,c
41,2F4K,42,2,50.94602327200156,69.40489983630623,1.4423094176506217,68.354859180101,2,v,0.7350295999999616,incorrect,b
42,2F4K,43,2,64.13629740813388,55.2373636945712,1.8974855804826016,57.31737896339051,1,b,1.3948537000001124,incorrect,v
43,2F4K,44,2,28.19021479574864,45.25196078880389,0.8985722686773328,48.4935995035122,2,b,0.8001394999996592,correct,b
44,2F4K,45,1,40.7644973914315,55.403804982589726,1.167105453892405,57.45949997822556,1,n,1.6304414000001088,incorrect,c
45,2F4K,46,1,40.35269776478536,33.614579526548155,1.1571540436746577,38.0596366489824,2,n,0.8302669999998216,correct,n
46,2F4K,47,2,45.59925210577139,36.26026880551087,1.2905424197499566,40.39708055200381,1,b,1.249315099999876,incorrect,v
47,2F4K,48,2,39.884062668504825,55.56502202672535,1.1459323522254588,57.59694841550365,2,b,1.2263880999998946,correct,b
48,2F4K,49,2,31.128824197965837,50.98071019040745,0.9551933686357004,53.616124042892125,2,b,0.6604826000002504,correct,b
49,2F4K,50,2,62.25730007940102,43.75351638842963,1.8247755260037333,47.14029985556569,1,v,0.7211770000003526,correct,v
50,2F4K,51,1,59.5225072713243,40.13369052071642,1.723898959403552,43.869957825051685,2,c,0.9032591000000139,incorrect,n
51,2F4K,52,1,56.01255471269883,35.99764498455032,1.6025580770615702,40.16352003463132,2,n,0.7636646000000837,correct,n
52,2F4K,53,1,18.762123786265978,34.40431485038189,0.7385992555777974,38.7535193082392,1,c,0.551287499999944,correct,c
53,2F4K,54,1,53.07756203560088,65.0307334744661,1.5076764543070489,65.21417925869918,1,n,0.7758064000004197,incorrect,c
54,2F4K,55,2,42.53607541850733,58.562477462421406,1.2109021276919114,60.11137088855619,2,b,0.7991167000000132,correct,b
55,2F4K,56,2,38.56006585713223,51.052591278621854,1.114813188994449,53.67955396062902,2,b,0.8379088000001502,correct,b
56,2F4K,57,2,58.76944509866525,43.69140026997163,1.6971138528072738,47.08415698233918,1,v,0.7090463999998065,correct,v
57,2F4K,58,1,39.25277219448465,52.0730952121349,1.1309876422855167,54.57700696708252,1,c,0.8061273999996956,correct,c
58,2F4K,59,1,61.36409396782286,43.60100965773187,1.7911955126555668,47.00245484779056,2,n,0.8608217000000877,correct,n
59,2F4K,60,2,53.55268793765351,42.11874486853085,1.5226460733729752,45.66245430018634,1,b,0.7760757000000922,incorrect,v
60,2F4K,61,1,62.93882728207696,41.7921086916049,1.850820288097696,45.36723607489751,2,c,0.6255370000003495,incorrect,n
61,2F4K,62,2,56.35939889999276,49.12257112819656,1.614158184528259,51.967698645985806,1,b,1.9835062000001926,incorrect,v
62,2F4K,63,1,36.07426682967692,50.59500734423232,1.058651691970694,53.27531061751492,1,n,0.8000722000001588,incorrect,c
63,2F4K,64,1,44.622604081472126,57.73693499454673,1.2645973684297418,59.42706566065435,1,n,1.1109903999999915,incorrect,c
64,2F4K,65,1,48.433330678844165,34.79681004171353,1.3688837375314382,39.09966425322892,2,n,1.5162171000001763,correct,n
65,2F4K,66,1,46.7218766048182,63.99609863147833,1.321023652812985,64.4320639049077,1,n,0.7212142999997013,incorrect,c
66,2F4K,67,2,58.51418901719047,42.97265909999208,1.688129605339293,46.43441894996511,1,b,2.2141586000002462,incorrect,v
67,2F4K,68,2,60.96601405507363,52.85363048337359,1.776429484171251,55.259279556052434,1,b,0.4798101000001225,incorrect,v
68,2F4K,69,1,67.33562917774833,52.1603168050604,2.028015776247946,54.65343352866341,2,c,0.7278984999998102,incorrect,n
69,2F4K,70,1,65.43323934821987,48.28576394412923,1.9493554520263476,51.22049803842522,2,n,0.673945200000162,correct,n
70,2F4K,71,1,33.47699838171281,50.56647137206341,1.0029918975149572,53.25006567632938,1,n,0.6596942000001036,incorrect,c
71,2F4K,72,2,54.95597810135334,40.61945154007131,1.5677324213490538,44.30814626972946,1,v,1.2067078000000038,correct,v
72,2F4K,73,2,36.30374228932391,43.89150382715205,1.0637154466457068,47.26500975301242,2,b,1.5244638999997733,correct,b
73,2F4K,74,1,51.145358523576114,33.37805532166519,1.448300284439937,37.85253024147775,2,n,1.400930999999673,correct,n
74,2F4K,75,2,57.97920710486643,48.83869506118168,1.66945385083911,51.71452117615355,1,v,0.8000728999995772,correct,v
75,2F4K,76,2,41.96057734497367,34.1415945783186,1.1964974484830349,38.52229229197516,1,b,0.8000308999999106,incorrect,v
76,2F4K,77,2,47.9309232872329,40.31350891828452,1.354657086467259,44.03212093410071,1,b,1.7092360999999983,incorrect,v
77,2F4K,78,2,50.40169687109679,36.13092454589818,1.426076036200344,40.282012538678856,1,b,0.5587455999998383,incorrect,v
78,2F4K,79,1,46.664777846869086,55.85236638864594,1.3194560856057638,57.84140434001424,1,c,1.6609323999996377,correct,c
79,2F4K,80,1,42.1002009276614,32.74747867610067,1.1999763960720318,37.3020764042568,2,c,1.3596996999999647,incorrect,n
80,2F4K,81,2,40.76949841380713,52.81453677512985,1.1672268313940544,55.22519826876185,2,b,2.3539535999998407,correct,b
81,2F4K,82,2,44.68460815547893,39.425703147270994,1.26622891405024,43.232078329132925,1,b,1.2494289000001118,incorrect,v
82,2F4K,83,1,71.21663014246137,58.45194854746766,2.1984685651223184,60.0201358193675,2,c,0.8060018999999556,incorrect,n
83,2F4K,84,1,60.50969116751428,49.42789532676037,1.759652725140073,52.23963814296259,2,n,0.940208900000016,correct,n
84,2F4K,85,2,56.115228340033205,40.52167022002398,1.6059832546892705,44.21991094906116,1,b,0.7029781999999614,incorrect,v
85,2F4K,86,1,50.432628455546194,37.17316347849835,1.4269935893753374,41.21117397704107,2,n,1.5343607999998312,correct,n
86,2F4K,87,1,57.33287946129576,44.181896082565366,1.6471664884983792,47.52741553878439,2,c,1.3159675000001698,incorrect,n
87,2F4K,88,2,24.93901937870285,39.32421422232403,0.8398307869776274,43.14072582787642,2,b,0.6727753000000121,correct,b
88,2F4K,89,2,68.56538489722044,54.65969404952098,2.080545078192243,56.82243492907872,1,v,0.745675200000278,correct,v
89,2F4K,90,2,47.447684537055935,58.30231105518107,1.3411127532967375,59.89642757375216,2,b,0.485975199999757,correct,b
90,2F4K,91,2,46.41792707666176,60.90052137263683,1.312700515932666,62.01170939572101,2,v,0.5443476999998893,incorrect,b
91,2F4K,92,2,54.9168626699716,38.59373608637914,1.5664577736451797,42.48394754580863,1,b,0.5089747000001807,incorrect,v
92,2F4K,93,1,45.10787169160623,59.71822648729445,1.2774228398831902,61.057978153664415,1,c,2.239877500000148,correct,c
93,2F4K,94,1,61.011823749970965,45.36453165307884,1.7781224919580148,48.595151864286485,2,n,0.9700424999996358,correct,n
94,2F4K,95,1,41.05904463232892,53.619871947985416,1.1742758387356218,55.92524310321312,1,c,1.8439855999999963,correct,c
95,2F4K,96,1,58.39496450828316,39.36786986958214,1.68394957144581,43.18001840390683,2,n,0.8732290000002649,correct,n
96,2F4K,97,1,56.23087942840534,41.51689327951818,1.6098501264892806,45.11854934913152,2,n,0.9759381999997458,correct,n
97,2F4K,98,2,40.2264988051801,28.519362711000888,1.1541213821096237,33.68569396378262,1,b,1.0062738999999965,incorrect,v
98,2F4K,99,2,40.9647689779213,55.873288043371225,1.1719760350311563,57.85917671542764,2,b,1.3463252000001376,correct,b
99,2F4K,100,2,48.62755566545235,60.22392862100555,1.3744235579719215,61.46778056460623,2,v,0.8789978999998311,incorrect,b
100,2F4K,101,2,72.57762533313903,56.92150847380881,2.261576441453565,58.74484368192041,1,v,1.5092337000000953,correct,v
101,2F4K,102,1,48.745709424684456,62.723505898314926,1.3778045837092148,63.451147572449365,1,n,1.2687535999998545,incorrect,c
102,2F4K,103,1,38.75320258928987,54.88456082705158,1.1192994659821078,57.01540591393245,1,c,2.1487692999999126,correct,c
103,2F4K,104,2,61.46239176486736,56.093507693632375,1.7948605417591232,58.0460258129913,1,b,2.355154799999582,incorrect,v
104,2F4K,105,1,51.68075209949912,37.82725500501016,1.464514587025669,41.796397592584704,2,n,2.1595587000001615,correct,n
105,2F4K,106,1,34.353360941664604,51.58825329868765,1.0214374274300388,54.1513581739319,1,c,1.619371400000091,correct,c
106,2F4K,107,2,66.02563076314475,53.48347655831972,1.9735169673660125,55.80698688010295,1,v,0.8182896000002984,correct,v
107,2F4K,108,1,46.96900548196994,60.85096430290811,1.3278297348777997,61.97204187999901,1,c,3.622489500000029,correct,c
108,2F4K,109,2,49.812539587477374,30.945860699982767,1.4087115053276336,35.744174655338256,1,v,1.1763777999999547,correct,v
109,2F4K,110,2,45.398117598573705,61.73503149322486,1.2851560310603518,62.675483848426126,2,v,0.7758025000002817,incorrect,b
110,2F4K,111,1,55.34377690137636,70.36778613921484,1.5804258042023829,69.0075438288099,1,c,0.7103901000000405,correct,c
111,2F4K,112,1,52.66751566112988,69.84918109165835,1.4948756394500915,68.65783094207983,1,c,1.5344303000001673,correct,c
112,2F4K,113,1,49.13221919923016,55.97640656707519,1.3889229571483903,57.94671989220584,1,c,1.734708199999659,correct,c
113,2F4K,114,1,36.64209740232686,20.17918288020032,1.0712260295892957,27.06971311228922,2,n,0.7391232999998465,correct,n
114,2F4K,115,2,50.29098421302066,67.68966484944517,1.422796693122253,67.1566744214431,2,v,1.95921989999988,incorrect,b
115,2F4K,116,1,60.86207784326072,73.12896283729282,1.7725942460082442,70.79557927410644,1,c,2.038226300000133,correct,c
116,2F4K,117,2,49.35194126742882,61.55922881679239,1.3952834544414692,62.53631647821857,2,b,0.4069666000000325,correct,b
117,2F4K,118,2,35.55856176723256,49.83385802148222,1.0473595937512274,52.60059282079233,2,v,1.2977447999996912,incorrect,b
118,2F4K,119,1,70.43986081131776,53.4423710364376,2.1632431350394263,55.77132296341483,2,c,0.8550869000000603,incorrect,n
119,2F4K,120,2,40.608890968617246,51.81686834650056,1.163335101962823,54.35223190851143,2,b,0.5697993999997379,correct,b
120,2F4K,121,1,68.40106364565703,55.91189955110146,2.0734480618277025,57.891966593390805,2,n,2.2872557000000597,correct,n
121,2F4K,122,1,45.10197167823239,63.13641860549357,1.2772661259004912,63.77164927561625,1,c,1.376953500000127,correct,c
122,2F4K,123,1,41.48324102336851,54.64052279710669,1.1846798462168269,56.805965200788975,1,c,0.6301598999998532,correct,c
123,2F4K,124,1,61.82443065049928,39.63537567949049,1.8084239376874904,43.42088163967029,2,n,0.8657835999997587,correct,n
124,2F4K,125,2,37.05889739587814,46.33047902724175,1.0805508169085924,49.46560234057296,2,b,1.114932299999964,correct,b
125,2F4K,126,2,53.14968489112759,71.86679623687019,1.5099392924423691,69.99395564682126,2,v,1.2127715000001444,incorrect,b
126,2F4K,127,1,67.45935557574248,78.75615348402266,2.033240209857334,74.02738411937001,1,n,0.6058787000001757,incorrect,c
127,2F4K,128,2,64.45356626781295,56.50795219220868,1.9100454765881345,58.39655381270423,1,v,2.0855507000001126,correct,v
128,2F4K,129,1,43.95039719001917,57.807248863452365,1.2470436079094147,59.48560467628936,1,n,1.3152548000002753,incorrect,c
129,2F4K,130,2,37.45799154999828,50.27026161459799,1.0895555452231036,52.98778000051168,2,b,0.6061500000000706,correct,b
130,2F4K,131,1,58.14794655559895,52.31658034596643,1.675321983487155,54.79024249969376,2,c,1.1338710999998511,incorrect,n
131,2F4K,132,2,45.7909592293752,32.97006206710935,1.2956973546196031,37.496090169601366,1,v,1.7336860999998862,correct,v
132,2F4K,133,1,41.30184591038657,54.72435198774545,1.180219644758072,56.87796105429115,1,n,1.2552380000001904,incorrect,c
133,2F4K,134,2,51.93413039783415,45.43266844943439,1.4722512637803111,48.65660936980864,1,b,3.3504665000000386,incorrect,v
134,2F4K,135,2,51.29988650979539,35.81974999874413,1.4529616206324427,40.00548560276134,1,v,0.7636864999999489,correct,v
135,2F4K,136,2,56.966736645023474,73.15898075734295,1.6346730356840509,70.81431495985191,2,b,2.2693481999999676,correct,b
136,2F4K,137,1,62.40081973812222,50.42945272820731,1.8302295340369243,53.12879288048677,2,c,2.616155599999729,incorrect,n
137,2F4K,138,1,24.306258524395943,41.791664277559136,0.8288527663210832,45.36683445285021,1,c,1.540595200000098,correct,c
138,2F4K,139,1,60.2003855821697,49.16850537925774,1.7483712591280496,52.00863506977456,2,n,0.654466500000126,correct,n
139,2F4K,140,2,59.7890439331645,50.13202158472415,1.7334801519140073,52.865226855225856,1,v,2.9671562000003178,correct,v
140,2F4K,141,2,44.27106539907622,60.45886096681591,1.255386815094401,61.657220637894,2,b,0.478321799999776,correct,b
141,2F4K,142,1,63.38615269892375,45.81081974170332,1.8681166985903288,48.99754378673497,2,c,0.8547205999998368,incorrect,n
142,2F4K,143,1,35.044678897966904,43.25127995707192,1.0362272059893105,46.68630861064104,1,c,1.2006075999997847,correct,c
143,2F4K,144,2,66.55787588231276,48.02900167072564,1.9954806323495224,50.99071672975633,1,v,2.16479900000013,correct,v
144,2F4K,145,2,57.26775034499954,44.71873486820724,1.6449372047747,48.01231252785733,1,v,1.0787282999999661,correct,v
145,2F4K,146,2,47.97203517954632,32.58347840059658,1.3558156749527774,37.15933235429195,1,b,0.6315880000001926,incorrect,v
146,2F4K,147,1,45.22662273690933,26.34300878760008,1.280581152815478,31.8847119073283,2,c,0.8000818000000436,incorrect,n
147,2F4K,148,2,47.004865444207766,30.22992836847075,1.3288202494460464,35.131763476386055,1,b,0.7019896000001609,incorrect,v
148,2F4K,149,2,61.88326639304724,39.05599217806239,1.8106378167789392,42.89940910972736,1,b,0.8000354999999217,incorrect,v
149,2F4K,150,1,39.00427310509394,61.971615004799766,1.1251584581399063,62.86219426034345,1,c,0.6740426999999727,correct,c
150,2F4K,151,1,59.062106324865,38.36283020943576,1.7074735020041902,42.27663485417577,2,n,0.9217657999997755,correct,n
151,2F4K,152,1,55.73850887747172,68.91327316562521,1.593451674460459,68.01601729393143,1,n,0.8063932999998542,incorrect,c
152,2F4K,153,2,46.46433484871886,56.456775558347545,1.313967912889052,58.35334960631584,2,b,2.488572000000204,correct,b
153,2F4K,154,2,48.019522344908246,56.86270397487512,1.3571551605741543,58.695411750950434,2,v,1.0867586999997911,incorrect,b
154,2F4K,155,2,56.01139168997975,38.86753828666035,1.602519320660625,42.72996494956149,1,b,0.7272788999998738,incorrect,v
155,2F4K,156,2,39.06910108103389,57.198239778645394,1.126676261911398,58.97705136909698,2,b,1.510208899999725,correct,b
156,2F4K,157,2,62.38786760712633,41.53545885416618,1.8297366610460724,45.13532340867256,1,v,0.9228760999999395,correct,v
157,2F4K,158,1,52.13871486244006,43.14357838582144,1.478527877790216,46.58894164479752,2,c,3.1030476999999337,incorrect,n
158,2F4K,159,1,41.47060525765468,54.9830602302518,1.184368608496264,57.09981166326176,1,n,2.477625199999693,incorrect,c
159,2F4K,160,1,53.94469856738338,38.471091482880446,1.5351088506248736,42.37381539688267,2,n,0.9578607000003103,correct,n
160,2F4K,161,2,60.870233089525854,70.83528822133451,1.772894874374097,69.31910776640163,2,v,2.3421103000000585,incorrect,b
161,2F4K,162,1,47.95149832308856,57.5907291433678,1.3552367948741937,59.305194803131776,1,n,2.079690000000028,incorrect,c
162,2F4K,163,2,45.223030501594735,61.55097995116565,1.280485498982153,62.52977774542429,2,b,0.7575831000003745,correct,b
163,2F4K,164,1,67.45112253690642,49.959517813699385,2.0328921464284258,52.71217179073245,2,n,1.0973830000002636,correct,n
164,2F4K,165,1,34.50814485767707,46.927522317126446,1.024730364411626,50.00259984999092,1,c,2.823521900000287,correct,c
165,2F4K,166,1,45.07094877687841,59.19117806179504,1.2764424232805829,60.62800127107997,1,c,2.055166399999962,correct,c
166,2F4K,167,1,34.711883098418255,18.867926016596996,1.029080964530525,26.10849173807013,2,c,0.7818462999998701,incorrect,n
167,2F4K,168,2,39.230394554095774,22.78313118203664,1.1304614822906451,29.047379969269723,1,b,3.7813249999999243,incorrect,v
168,2F4K,169,2,61.83012378720466,45.9736670778788,1.8086380414416936,49.14428115002757,1,v,2.5870386000001417,correct,v
169,2F4K,170,1,55.58126810956952,71.96795658480221,1.5882500265847397,70.05919237207054,1,n,2.5493532999998934,incorrect,c
170,2F4K,171,1,40.84678782904522,58.62823002816366,1.1691042929061473,60.16558839132144,1,n,1.3525424999997995,incorrect,c
171,2F4K,172,2,32.982765338155986,45.265137582032665,0.9927366500317444,48.50548758636339,2,b,2.6525136000000202,correct,b
172,2F4K,173,1,44.96958588501166,53.80287729568364,1.2737547942761145,56.08370817250906,1,c,0.5031050000002324,correct,c
173,2F4K,174,1,65.53260478406217,47.07427459558772,1.9533874643564464,50.13445344314662,2,n,0.8416108000001259,correct,n
174,2F4K,175,2,18.66168236650269,37.13603926171463,0.7370582118398982,41.17800423284311,2,b,0.8243741999999656,correct,b
175,2F4K,176,1,65.50329036508168,53.57871199712302,1.9521970886863127,55.88957048437002,2,n,0.564795199999935,correct,n
176,2F4K,177,2,46.85419545084886,61.006607038804006,1.324663445350627,62.0965318082943,2,b,2.6704451000000518,correct,b
177,2F4K,178,1,38.78423503261235,25.46245416730164,1.120021984722578,31.16965491589657,2,c,0.9692185000003519,incorrect,n
178,2F4K,179,2,62.06526076741509,73.88052875639792,1.8175030976843265,71.25999546369493,2,v,2.701100399999632,incorrect,b
179,2F4K,180,2,67.00642959205842,54.21229828650253,2.0141803772392417,56.43736900816078,1,v,0.8234190000002855,correct,v
180,2F4K,181,2,36.263997218569045,49.31563711275208,1.0628366750688842,52.13969972916355,2,v,2.140815300000213,incorrect,b
181,2F4K,182,2,46.2570598084423,57.39615604195545,1.3083166842306506,59.14269805717954,2,b,0.745456699999977,correct,b
182,2F4K,183,1,48.12195568649185,62.19238770132786,1.360049038275923,63.035829260395886,1,n,3.0711545000003753,incorrect,c
183,2F4K,184,1,50.44154093920743,62.62480772942519,1.4272580784450375,63.37422758697122,1,n,0.8721427000000403,incorrect,c
184,2F4K,185,1,45.24641098224962,64.72892447314817,1.2811082011722377,64.98749574732078,1,c,0.787952199999836,correct,c
185,2F4K,186,1,32.31096006859429,43.925615641987946,0.9789647390850852,47.29583731496847,1,c,1.91673690000016,correct,c
186,2F4K,187,2,52.29633376979449,47.12832033336792,1.4833818407798691,50.18299750356591,1,v,0.7149537999998756,correct,v
187,2F4K,188,2,27.360923525525017,40.36060319859115,0.8832095676482405,44.07460033848001,2,b,0.8364487000003464,correct,b
188,2F4K,189,2,51.85931317490997,31.043805468931943,1.4699625449335263,35.82826602127526,1,v,0.8911410000000615,correct,v
189,2F4K,190,1,68.36762859172607,52.54429867986046,2.072006972375753,54.98934274692749,2,n,2.0264916999999514,correct,n
190,2F4K,191,1,37.7824759599192,47.76612453075817,1.0969321402887582,50.75523321411476,1,c,0.7393882000001213,correct,c
191,2F4K,192,1,43.96228351154761,63.8924869126767,1.2473518766608565,64.35296820073063,1,c,0.927552900000137,correct,c
192,2F4K,193,1,42.253732954636206,59.44243613004147,1.2038135732558033,60.83334372171359,1,c,0.9821575000000848,correct,c
193,2F4K,194,2,44.32606328018007,37.68394145862702,1.2568233579960424,41.6680470524325,1,b,3.229118499999913,incorrect,v
194,2F4K,195,1,35.049817982944205,23.502809080906324,1.0363379475680894,29.609151980049536,2,c,0.636265000000094,incorrect,n
195,2F4K,196,1,25.615392359344003,39.39946458209196,0.8517262805114484,43.20845815914695,1,n,0.9335852999997769,incorrect,c
196,2F4K,197,1,48.741088695489765,68.7743714047632,1.377672203216484,67.9196075899916,1,c,0.799966200000199,correct,c
197,2F4K,198,1,53.34943625887545,41.474018823369214,1.5162241905863778,45.079813293263314,2,c,0.5588142000001426,incorrect,n
198,2F4K,199,1,43.67338417633295,35.593642797781875,1.2398808826952836,39.80483052822122,2,n,1.84391050000022,correct,n
199,2F4K,200,2,52.856127475212695,37.7687137912449,1.5007501625808508,41.74396028370129,1,v,2.840719799999988,correct,v
200,2F4K,201,2,55.01995809100093,38.235706143501645,1.5698195621666715,42.1625660410714,1,v,1.7466254000000845,correct,v
201,2F4K,202,2,35.67334683195642,21.534333455450284,1.0498625100343928,28.087895303203112,1,b,1.2434640999999829,incorrect,v
202,2F4K,203,1,42.369489007497606,35.917103974392305,1.2067147384366272,40.09195310994915,2,c,0.8546379999997953,incorrect,n
203,2F4K,204,1,71.73003969530087,60.80620175461706,2.222065264453982,61.93618841715772,2,c,4.303254299999935,incorrect,n
204,2F4K,205,1,37.05196410218424,55.46291453957885,1.0803950410324803,57.50991920070745,1,c,0.8476458999998613,correct,c
205,2F4K,206,2,69.17875000011395,58.61150496554637,2.107251485742021,60.15180149887637,1,v,0.6787466000000677,correct,v
206,2F4K,207,2,48.00277933972564,32.886718831477296,1.356682734314355,37.42340708748608,1,b,0.6600994000000355,incorrect,v
207,2F4K,208,2,69.1080444252994,47.71049533264095,2.104155510255008,50.70537224311232,1,v,0.5936151999999311,correct,v
208,2F4K,209,2,52.55106990375861,34.279769454816204,1.4912602944117024,38.643855876318845,1,v,0.5943480999999338,correct,v
209,2F4K,210,1,48.353333476136896,63.82174157298326,1.36660849913771,64.29888276892291,1,c,1.4191463999995904,correct,c
210,2F4K,211,2,45.9088171699534,59.30529461742157,1.2988767272129595,60.72134474671936,2,b,0.6362168999999085,correct,b
211,2F4K,212,2,60.61732933208806,73.13611353751335,1.7635957189133278,70.80004378539836,2,v,0.6601221999999325,incorrect,b
212,2F4K,213,1,48.06815691923235,56.24814854001824,1.358528383238875,58.17698936533798,1,c,2.7799417000001085,correct,c
213,2F4K,214,1,58.86187200727316,45.15129074061339,1.700378780274927,48.40276628580576,2,n,1.067640499999925,correct,n
214,2F4K,215,1,38.17604664171215,54.503498037744286,1.1059463483330445,56.68816881077263,1,c,3.022779299999911,correct,c
215,2F4K,216,2,51.57614182511468,41.48192406849771,1.4613322770375474,45.08695537165589,1,v,1.4191593000000466,correct,v
216,2F4K,217,1,62.45686346436701,48.51802780822136,1.8323637205211265,51.428154915524765,2,n,2.354250100000172,correct,n
217,2F4K,218,2,64.79839548516605,44.646857581996656,1.9237907210813656,47.94740783089835,1,v,0.9396865999997317,correct,v
218,2F4K,219,1,75.76466551918357,56.40695199168207,2.41653512615551,58.31126590787241,2,n,0.8568869000000632,correct,n
219,2F4K,220,2,64.35243639272343,51.930746169909305,1.9060329924621051,54.45217879823607,1,v,1.6982405999997354,correct,v
220,2F4K,221,2,61.60950753559696,67.88823330193416,1.8003597620911584,67.29765730223576,2,v,0.49664809999967474,incorrect,b
221,2F4K,222,2,53.085377477726055,57.36932884432913,1.5079214981023417,59.12026599040615,2,b,0.8368348999997579,correct,b
222,2F4K,223,2,45.95644794708619,61.25245825479898,1.3001638423880413,62.29261574998585,2,b,0.5700265999998919,correct,b
223,2F4K,224,1,67.20576160702103,49.95478206945084,2.0225464669621336,52.70796802247548,2,c,0.7090711000000738,incorrect,n
224,2F4K,225,1,55.54129525790161,66.98493751356784,1.586930402491579,66.65163968828554,1,c,1.7411050999999134,correct,c
225,2F4K,226,2,44.3782447876704,33.913600251055534,1.2581878570061351,38.32194328504723,1,b,0.5452279000000999,incorrect,v
226,2F4K,227,1,60.27784021017306,48.75978681415735,1.7511894962835877,51.64408983279085,2,n,1.1823727999999392,correct,n
227,2F4K,228,2,51.60465004328439,70.90296685857271,1.4621988287805108,69.3639192698614,2,b,0.8789529999999104,correct,b
228,2F4K,229,2,48.941877816279415,32.03882719975552,1.3834364127370216,36.6865654998248,1,v,1.4616553999999269,correct,v
229,2F4K,230,1,66.99323604247135,81.36719194746928,2.013627858316217,75.32666365863204,1,n,0.7080544000000373,incorrect,c
230,2F4K,231,2,59.77303465367736,46.96600889178385,1.732903166162376,50.03718477709976,1,v,0.8184529000000111,correct,v
231,2F4K,232,1,44.14244004377912,58.04838717576361,1.252033532193631,59.68600516794356,1,c,1.0430160999999316,correct,c
232,2F4K,233,1,52.215235904675694,65.26710014681157,1.4808823994106677,65.39085416163005,1,n,0.8971317000000454,incorrect,c
233,2F4K,234,2,47.922869367249305,38.09660519432697,1.354430232158239,42.03780613877983,1,v,1.922826299999997,correct,v
234,2F4K,235,2,54.24170283980754,44.29726761039363,1.5446190667411983,47.63164879975035,1,v,0.7468714999999975,correct,v
235,2F4K,236,2,52.1510765455045,63.660173874584025,1.4789079881075755,64.1751221980528,2,v,0.5391555999999582,incorrect,b
236,2F4K,237,1,42.61438897505265,27.56812814464152,1.2128756696976124,32.8928668413427,2,c,1.473702300000241,incorrect,n
237,2F4K,238,2,56.74727801645487,66.31330726681759,1.6272301782897245,66.16364296510906,2,v,0.8244024999999056,incorrect,b
238,2F4K,239,2,38.516221542411714,29.047182576786685,1.1137972581674511,34.129200197294445,1,b,0.4858526000002712,incorrect,v
239,2F4K,240,1,50.00958293225086,33.8719730843807,1.414495402874865,38.28539580492608,2,n,1.0792719999999463,correct,n
240,2F4K,241,1,58.73778591498785,42.34042512795197,1.695996952374806,45.86284265483632,2,n,3.192476700000043,correct,n
241,2F4K,242,1,56.98521570088528,41.94483317775582,1.635301297748292,45.50526268917967,2,n,1.588026400000217,correct,n
242,2F4K,243,2,41.35000725130042,57.58935900723024,1.1814022113704803,59.3040517707692,2,b,2.390177500000391,correct,b
243,2F4K,244,1,37.08720088051396,53.32821850174296,1.0811869670510827,55.67222190380619,1,c,1.8757031000000097,correct,c
244,2F4K,245,1,72.45337678006675,53.04731845615271,2.255740802563787,55.42798780327968,2,n,1.2309261000000333,correct,n
245,2F4K,246,1,47.2585060251092,54.77641057837101,1.3358473715059138,56.92264418862404,1,c,3.9452359000001707,correct,c
246,2F4K,247,1,64.84824830675325,50.099885830965306,1.9257860725845064,52.83672474862169,2,n,0.4714603000002171,correct,n
247,2F4K,248,2,46.835627540059626,54.44135560600683,1.3241520797983466,56.63470039434517,2,b,2.379393799999889,correct,b
248,2F4K,249,2,44.376763753871735,61.0359875853793,1.2581491088994037,62.12000100659514,2,v,1.0056393999998363,incorrect,b
249,2F4K,250,1,69.01979589752588,56.56132160073538,2.1002977645399925,58.4415849678167,2,n,0.6497452999997222,correct,n
250,2F4K,251,2,66.72911285223688,53.14743557469612,2.002598750763133,55.515096709908576,1,v,1.1763933000001998,correct,v
251,2F4K,252,1,61.31136352360176,42.43962227118767,1.789232545385265,45.952517928255936,2,n,0.6301777000003312,correct,n
252,2F4K,253,1,40.74335154233225,52.56720663184101,1.166592372265158,55.00935397473153,1,c,1.0614425999997366,correct,c
253,2F4K,254,1,68.23419607891282,55.84537732802618,2.066265844444171,57.83546651479178,2,n,0.8304078999999547,correct,n
254,2F4K,255,1,45.31183823648226,57.01806011712743,1.282852362644559,58.825939368098496,1,c,0.751558599999953,correct,c
255,2F4K,256,2,52.98878351552261,37.899042070229015,1.5048957042421327,41.86071495998676,1,v,2.4036842000000433,correct,v
256,2F4K,257,1,49.35158646126435,67.79729478490445,1.3952731600965684,67.23316389473148,1,n,1.1763468999997713,incorrect,c
257,2F4K,258,2,56.91649274084919,40.6064868508629,1.6329660332545557,44.29644645453851,1,v,0.5820083000003251,correct,v
258,2F4K,259,1,44.96273946110816,59.92387851018151,1.273573466047683,61.224961374952606,1,c,0.5477135999999518,correct,c
259,2F4K,260,2,49.30054627023988,54.43119990744974,1.3937930712091595,56.6259595264525,2,b,0.9340457999996943,correct,b
260,2F4K,261,1,43.00011985631284,53.362145215936415,1.2226433249335311,55.70168445288506,1,c,0.44202839999979915,correct,c
261,2F4K,262,2,41.61990362641024,46.56583139975383,1.1880512800744965,49.67738900628261,2,b,0.6365896000002067,correct,b
262,2F4K,263,1,57.52167559839722,70.18755849931904,1.6536458184479994,68.88649529812011,1,n,0.9943085999998402,incorrect,c
263,2F4K,264,2,60.17307381646537,52.017125121752095,1.7473785847018186,54.527940176437696,1,v,1.121727600000213,correct,v
264,2F4K,265,2,52.18121246274319,64.20975303957474,1.4798350492312928,64.5947256971494,2,v,2.1524451000000226,incorrect,b
265,2F4K,266,1,40.59284097590869,53.63973237619612,1.1629469034057538,55.942451604117416,1,c,0.9639295000001766,correct,c
266,2F4K,267,2,48.11538959927882,36.049207662249216,1.3598633526517607,40.20935265453621,1,v,0.5223210999997718,correct,v
267,2F4K,268,1,58.638235281170765,47.68552531529935,1.692489705197617,50.68298819492212,2,n,2.1534987,correct,n
268,2F4K,269,2,35.44480700291867,49.04470103937775,1.0448850304195425,51.898281533654206,2,b,0.8377844999999979,correct,b
269,2F4K,270,1,43.78840720928318,51.50091904595244,1.2428500247669485,54.0745432181483,1,c,2.974185900000066,correct,c
270,2F4K,271,1,54.61731697324722,39.98660453522002,1.5567308252582777,43.73735590643192,2,n,0.5453836000001502,correct,n
271,2F4K,272,2,66.5798112884522,46.0296648925321,1.9963910464273136,49.19472695613005,1,v,0.6244011999997383,correct,v
272,2F4K,273,2,33.862024991832655,46.04116794555836,1.011054488237471,49.20508871725698,2,b,1.0185247000003983,correct,b
273,2F4K,274,2,34.15292734932633,54.218258695778594,1.0171890385855786,56.4425087376992,2,v,0.8243635999997423,incorrect,b
274,2F4K,275,2,60.75381276897633,42.65289077813692,1.7686080774853112,46.14532319279171,1,v,0.806137999999919,correct,v
275,2F4K,276,2,49.240212354716405,30.979176499540287,1.392045503056596,35.772770053196844,1,v,0.6787008999999671,correct,v
276,2F4K,277,2,45.07232627973595,50.933093609550056,1.2764789866890378,53.57409083893247,2,b,1.6318529999998646,correct,b
277,2F4K,278,1,40.4739897698303,53.662764489598295,1.160076297067267,55.962404857114,1,c,1.3887620000000425,correct,c
278,2F4K,279,2,53.86392154554992,40.16154628615264,1.532532475870093,43.89507493225667,1,b,0.897086500000114,incorrect,v
279,2F4K,280,2,52.82077396740006,37.770612514603386,1.499647283246428,41.74566085577997,1,v,0.7087555000002794,correct,v
280,2F4K,281,2,36.78551164615409,47.740865006651056,1.0744254245830709,50.73259408591423,2,b,1.4437458000002152,correct,b
281,2F4K,282,1,35.88212047225245,51.88921726991732,1.054430213009669,54.41573897867003,1,c,1.0911949999999706,correct,c
282,2F4K,283,2,60.59934505358333,47.73378997628756,1.762936305819583,50.72625264729419,1,v,0.6839820000000145,correct,v
283,2F4K,284,2,63.63360291382675,51.87250785377692,1.877754020856245,54.40107434486752,1,v,0.6061905999999908,correct,v
284,2F4K,285,2,59.06504205080759,74.07215769228438,1.707577740816707,71.37684114163184,2,v,0.7651103000002877,incorrect,b
285,2F4K,286,1,49.04723616573517,34.79325768700117,1.3864706581471662,39.0965277369082,2,c,0.7211720000000241,incorrect,n
286,2F4K,287,2,62.71788201581124,46.25741843590525,1.842336332572576,49.3998313390134,1,b,0.709560700000111,incorrect,v
287,2F4K,288,2,49.43282096607409,65.60034190833731,1.397632080871755,65.63864797888901,2,v,0.6497628000001896,incorrect,b
288,2F4K,289,2,45.20860770209328,65.48631212247149,1.2801015214413896,65.55402809293017,2,b,0.7444275000002563,correct,b
289,2F4K,290,1,72.99424407852007,52.3564865208668,2.2812543697278613,54.82515662196625,2,n,0.80616450000025,correct,n
290,2F4K,291,1,39.03614057304584,60.32578310177302,1.1259043087797609,61.54998599923095,1,c,1.8626656000001276,correct,c
291,2F4K,292,2,49.29405396388363,37.900591542009664,1.3936049166671356,41.86210338808255,1,b,0.9714336000001822,incorrect,v
292,2F4K,293,1,49.13164683639964,38.47070515047835,1.3889064263545268,42.37346854621829,2,n,2.5129718000002867,correct,n
293,2F4K,294,1,57.86964645614134,43.19465242879402,1.6656547474957215,46.635115150751446,2,n,0.8234203000001799,correct,n
294,2F4K,295,2,45.59287085458873,66.61221580472542,1.2903711833747211,66.38162090764959,2,v,1.0843553999998221,incorrect,b
295,2F4K,296,2,36.13287420919711,23.98831905769701,1.0599426638452785,29.991650260738872,1,b,0.6291787000000113,incorrect,v
296,2F4K,297,2,53.38110847498115,62.47286136542515,1.517223112662817,63.25557677706768,2,b,0.8183113999998568,correct,b
297,2F4K,298,2,46.879931291968,38.05104197210402,1.3253725443108637,41.99695336151457,1,v,1.437309599999935,correct,v
298,2F4K,299,1,23.11124150930361,35.42755309397235,0.8085098444751417,39.6575900224317,1,c,0.9882443000001331,correct,c
299,2F4K,300,1,52.17243771442804,40.84788178255892,1.4795650546350627,44.51432917383419,2,n,1.7590092000000368,correct,n
300,2F4K,301,1,39.7101384215546,60.48951351389484,1.141795397971135,61.68189303289381,1,c,0.6483800999999403,correct,c
301,2F4K,302,1,67.46824205133717,53.58079151366863,2.033615965131516,55.891373045899904,2,n,0.6679678999998941,correct,n
302,2F4K,303,2,58.35298356651012,49.56739997704568,1.6824801768932451,52.36375777311788,1,v,0.69688670000005,correct,v
303,2F4K,304,1,36.15442264454151,46.180567985048974,1.0604177169214206,49.33063583390932,1,n,0.7211875000002692,incorrect,c
304,2F4K,305,2,37.84254912139974,58.9940082372468,1.0983032690825971,60.46640839452774,2,b,1.1885010000000875,correct,b
305,2F4K,306,1,58.600077520965726,43.87489025637361,1.6911473008876368,47.24999543450706,2,n,0.5587516999999025,correct,n
306,2F4K,307,2,63.01527602715444,50.83244133318174,1.8537648899042525,53.48520180981992,1,v,0.7382666999997127,correct,v
307,2F4K,308,1,54.57636701040632,69.34479696985393,1.5554057856560737,68.31363572729352,1,n,1.4373288000001594,incorrect,c
308,2F4K,309,2,31.523555501567657,45.51938739888262,0.9630660593837016,48.73481614451836,2,v,0.558733900000334,incorrect,b
309,2F4K,310,1,57.60046984525401,42.99961232405641,1.6563575054635653,46.45878673343668,2,n,0.6183387999999468,correct,n
310,2F4K,311,1,52.00656866064215,61.84621022545151,1.474470603626673,62.76330756935403,1,n,1.2931023999999525,incorrect,c
311,2F4K,312,2,54.916345976469,42.20171253097455,1.5664409431817203,45.73745070487679,1,v,0.9022523999997247,correct,v
312,2F4K,313,1,21.42953476956558,37.54840608068759,0.7807248215667717,41.54672619870368,1,c,0.8841467000002012,correct,c
313,2F4K,314,1,62.27505465516687,41.38184668645991,1.825449350251633,44.996543641579805,2,n,1.7581113999999616,correct,n
314,2F4K,315,1,50.963577530841626,39.39062086789049,1.4428360007551737,43.20049732501177,2,n,1.880353400000331,correct,n
315,2F4K,316,2,61.07086498279298,51.912862553323095,1.780306883234866,54.4364879320946,1,v,0.5087330999999722,correct,v
316,2F4K,317,1,62.19767926594838,43.616329592819184,1.822514607680889,47.01630250112405,2,n,0.5452215000000251,correct,n
317,2F4K,318,2,64.03011659372805,45.00150430182645,1.8933006149437568,48.26758811212129,1,v,0.4859341999999742,correct,v
318,2F4K,319,1,59.43457942222693,77.122323967933,1.7207498481820205,73.1485127141832,1,n,1.1216876999997112,incorrect,c
319,2F4K,320,1,38.200583060017095,48.02064238755976,1.106510768781487,50.98323206195181,1,c,1.274811000000227,correct,c
320,2F4K,321,2,24.815246640808684,42.62478595523557,0.8376720251252205,46.11991456049852,2,b,1.6677463999999418,correct,b
321,2F4K,322,2,74.84354461010841,64.78727077136752,2.370688874665935,65.03141364779144,1,v,0.6550823999996283,correct,v
322,2F4K,323,1,58.70623944319521,38.80593464212112,1.694884759422668,42.67459521786543,2,n,1.0185750000000553,correct,n
323,2F4K,324,2,37.860968296081936,42.03433407551921,1.0987240173460413,45.58615682728836,2,v,0.988097800000105,incorrect,b
324,2F4K,325,2,60.142135302841226,40.29100544578198,1.7462547731915956,44.01182392466781,1,v,0.38954859999967084,correct,v
325,2F4K,326,2,36.772783771719176,54.51340307697249,1.0741410954218793,56.6966886170945,2,b,0.6301639999996951,correct,b
326,2F4K,327,2,55.38855025058066,68.67009695519256,1.5818979221163034,67.84703819465237,2,v,0.581879200000003,incorrect,b
327,2F4K,328,1,48.07791549819663,70.35731143575224,1.3588040891503268,69.00052278165121,1,n,0.4261984999998276,incorrect,c
328,2F4K,329,1,61.47974774617275,44.00872594657105,1.7955084372717267,47.37094238588126,2,n,0.6401879999998528,correct,n
329,2F4K,330,2,41.73561811494791,56.58500481408289,1.1909134291491974,58.46156004903715,2,b,3.738870500000303,correct,b
330,2F4K,331,2,41.09725089756168,28.807044971923997,1.1752091445192234,33.92711344425665,1,v,2.8779159999999138,correct,v
331,2F4K,332,1,45.31224656845544,59.35060069102893,1.2828632554218742,60.75836630424455,1,c,0.5391184000000067,correct,c
332,2F4K,333,1,61.735917314108576,53.13458222306621,1.8050984445360077,55.503917095254366,2,n,0.6727464999999029,correct,n
333,2F4K,334,2,43.470812514401565,58.67752719489727,1.2346690437164545,60.20620910460453,2,v,0.6376385000003211,incorrect,b
334,2F4K,335,2,51.55337555492219,34.98779453169371,1.460640629583725,39.26838833188184,1,b,1.4434022000000368,incorrect,v
335,2F4K,336,1,39.042611670032144,31.12574489757609,1.1260558236736715,35.89867165186564,2,c,0.9821716999999808,incorrect,n
336,2F4K,337,1,57.94421370371815,40.84682907582869,1.6682394857095588,44.51337882954746,2,c,0.6413362000002962,incorrect,n
337,2F4K,338,2,44.40147911842204,61.66300014385783,1.258795890201829,62.61850661586675,2,b,0.8304452999996101,correct,b
338,2F4K,339,2,56.372194542657205,68.23411425489829,1.614587733507151,67.5418279846992,2,v,0.9084504000002198,incorrect,b
339,2F4K,340,1,41.423947281967656,27.0066388963209,1.183220061338366,32.42895086066262,2,n,1.5176248000002488,correct,n
340,2F4K,341,1,32.680720713509764,55.28971768726736,0.9865209688689084,57.36210680066567,1,n,0.9289286000002903,incorrect,c
341,2F4K,342,2,29.15002021255357,49.85230331793568,0.916686674177802,52.61697573535472,2,b,0.7749626999998327,correct,b
342,2F4K,343,2,36.78721042197963,51.12983882787267,1.0744633793855214,53.74768883273938,2,b,1.024643599999763,correct,b
343,2F4K,344,2,45.77526343479806,56.62511310811336,1.295274527609338,58.495377326622894,2,b,0.6787137000001167,correct,b
344,2F4K,345,1,30.848899982921047,43.40548736740098,0.9496494721467578,46.82571349765907,1,c,0.6488179999996646,correct,c
345,2F4K,346,1,70.23511190979458,51.25746888059572,2.154052417373603,53.86019258459036,2,n,0.6364224999997532,correct,n
346,2F4K,347,2,53.91536525257718,44.99213372145706,1.5341727671292704,48.259130351862446,1,v,1.0185936999996557,correct,v
347,2F4K,348,1,43.72552747123328,30.551387749657454,1.2412260014306682,35.40624304299568,2,c,1.0611257000000478,incorrect,n
348,2F4K,349,2,48.94642270486092,36.90622128288049,1.3835671651406858,40.97278190210609,1,v,0.5452172000000246,correct,v
349,2F4K,350,2,66.12463533023953,46.48320990147729,1.9775841149920403,49.60305518323657,1,v,0.6559222999999292,correct,v
350,2F4K,351,2,34.42299407024152,48.1152137147356,1.0229175199166542,51.067894781516856,2,b,1.1580933999998706,correct,b
351,2F4K,352,2,65.15503858019079,54.098042362561365,1.9381109434146735,56.33879493083384,1,v,0.6605107999998836,correct,v
352,2F4K,353,2,66.71665001939675,53.52678789271367,2.002079829875124,55.8445521078396,1,v,0.6852058999998007,correct,v
353,2F4K,354,2,46.4607539684957,59.15054854608417,1.313870075444432,60.594735377623344,2,b,1.0199999999999818,correct,b
354,2F4K,355,1,36.35663231887635,55.15415717104415,1.0648859828086192,57.24624813442564,1,c,2.463343200000054,correct,c
355,2F4K,356,2,51.96499122483412,64.50094677449748,1.4731963590065564,64.81546084804509,2,v,0.7033838000002106,incorrect,b
356,2F4K,357,2,54.76277654524334,42.69996930613412,1.561446670311253,46.18788554748742,1,b,0.4737522000000354,incorrect,v
357,2F4K,358,1,46.68143895289701,41.97106010779712,1.3199133008679158,45.52896706031868,2,n,2.519035299999814,correct,n
358,2F4K,359,1,56.75085063159772,46.10600885522594,1.627351070431701,49.26349117120015,2,n,1.5090777999998863,correct,n
359,2F4K,360,1,46.36576407550646,63.28382967965109,1.3112774028085417,63.88555617744108,1,c,2.335548099999869,correct,c
360,2F4K,361,2,49.2483881185117,66.38873565938606,1.3922821851495624,66.21876835681012,2,b,5.0,correct,b
361,2F4K,362,2,44.7249039730354,54.45639702641789,1.2672903673221152,56.64764492730055,2,b,1.680064399999992,correct,b
362,2F4K,363,1,27.212812668640105,45.09354071646763,0.8804935739382269,48.350652326724095,1,c,0.811282200000278,correct,c
363,2F4K,364,2,61.10419706868509,47.3087139479988,1.7815412794944023,50.34496819169264,1,v,0.8183083999997507,correct,v
364,2F4K,365,2,47.01055832027637,63.28088644533915,1.3289775645381892,63.88328455604999,2,b,1.0124731999999312,correct,b
365,2F4K,366,1,48.881498083098975,61.38057705774589,1.3817005135710223,62.394526104712,1,n,0.7515619999999217,incorrect,c
366,2F4K,367,1,75.51589732130952,54.30530227414663,2.404066693266927,56.51753784695892,2,n,0.8317866000002141,correct,n
367,2F4K,368,1,60.131035943599656,66.12726453266707,1.745851775913989,66.02733427054149,1,c,0.6012020999996821,correct,c
368,2F4K,369,1,55.503686400976704,39.060342362144304,1.5856898220781184,42.903321538224446,2,n,0.5102051999997457,correct,n
369,2F4K,370,2,38.68822303897637,47.875735706347406,1.1177880767109944,50.853449675600295,2,v,0.44453900000007707,incorrect,b
370,2F4K,371,2,30.733578740539144,54.49693780783549,0.9473749051352268,56.6825256345511,2,b,0.4615057999999408,correct,b
371,2F4K,372,1,48.70380758084436,59.69638879616509,1.376604591896237,61.04022026000322,1,c,1.4908719999998539,correct,c
372,2F4K,373,1,54.52787315362828,38.87259410024723,1.5538381028391963,42.73450958612512,2,n,0.872957800000222,correct,n
373,2F4K,374,2,47.9638778889663,63.59229483430738,1.3555857127467812,64.12302752845503,2,v,1.0368008999998892,incorrect,b
374,2F4K,375,2,58.28850086417087,73.62283123633708,1.6802256845457617,71.10185652159261,2,v,0.8976513000002342,incorrect,b
375,2F4K,376,1,58.440212634310114,46.58313433840699,1.6855347592651968,49.692954226316886,2,n,1.6073977000000923,correct,n
376,2F4K,377,2,60.23791094428866,47.298901912654046,1.749736077064001,50.33616061646771,1,v,0.7394779999999628,correct,v
377,2F4K,378,2,38.49219930579646,53.40557371055097,1.113241023780438,55.73938715885775,2,b,0.5526887000000897,correct,b
378,2F4K,379,1,57.38158397030013,73.90138992399068,1.6488355537846182,71.27274662717143,1,n,2.397560599999906,incorrect,c
379,2F4K,380,1,31.14362736268553,52.376047120750926,0.9554874445330224,54.84226673165001,1,c,0.9214248999996926,correct,c
380,2F4K,381,2,55.38855443043214,44.30851737116634,1.5818980596110297,47.64181182537641,1,v,0.5829862000000503,correct,v
381,2F4K,382,2,63.23735512103483,50.88539897022936,1.8623453824409395,53.531976843850885,1,v,1.8377455999998347,correct,v
382,2F4K,383,2,66.473931802167,50.31408035707296,1.9920004234192312,53.026607285931725,1,v,0.9396676999999727,correct,v
383,2F4K,384,1,56.84293097029985,69.20272541458979,1.63047003706209,68.21596821791051,1,n,2.015296000000035,incorrect,c
384,2F4K,385,1,65.20122351512205,81.16641383636619,1.9399731773996955,75.23141219801622,1,n,1.7237758999999642,incorrect,c
385,2F4K,386,1,63.25394757868359,55.6926053837143,1.8629880591847336,57.705572492960535,2,c,0.8607766999998603,incorrect,n
386,2F4K,387,1,59.96721168678368,45.19173510798466,1.7399144244077187,48.43926055147746,2,n,1.8318404000001465,correct,n
387,2F4K,388,2,59.27164521992825,49.29244238137494,1.7149296040603852,52.11904388673614,1,v,2.6767433999998502,correct,v
388,2F4K,389,2,54.4276066104269,38.44978663860656,1.550601750064947,42.35468846669632,1,v,2.026025600000139,correct,v
389,2F4K,390,1,58.45004286446349,46.397727933713,1.6858793411986113,49.52613083013355,2,n,2.458318199999667,correct,n
390,2F4K,391,2,33.880376860002244,45.46588880710563,1.0114403968113728,48.686570395000906,2,b,0.4418009000000893,correct,b
391,2F4K,392,2,40.758544949258045,54.639821085968016,1.16696100137272,56.80536231887312,2,b,0.830495400000018,correct,b
392,2F4K,393,1,42.59108211096595,60.69769448054861,1.2122879887560356,61.84918437679531,1,c,1.6217400999998972,correct,c
393,2F4K,394,2,34.504328255010265,49.5225112189614,1.0246490409162452,52.32382866117165,2,b,0.5209180000001652,correct,b
394,2F4K,395,1,45.39928466603576,61.86534940208988,1.2851872202294734,62.778411573682085,1,c,0.7758192999999665,correct,c
395,2F4K,396,2,35.77545475332976,48.839811730503605,1.0520940245872037,51.71551771161352,2,b,0.4605421999999635,correct,b
396,2F4K,397,1,57.7103058052544,49.39644968234898,1.6601449074198236,52.21164889108504,2,n,0.7333471000001737,correct,n
397,2F4K,398,1,59.42900592063975,48.30433335719182,1.7205504287760764,51.23710724874624,2,n,0.8720272000000477,correct,n
398,2F4K,399,1,80.51332275265506,64.08935593889636,2.667336207596184,64.50313651132788,2,n,1.4334059000002526,correct,n
399,2F4K,400,2,29.006375772754545,51.34661694685179,0.9139526144618976,53.93872267176985,2,b,0.48515790000010384,correct,b
