,condition,trial,sub_task,x,y,xt,yt,cat,resp,rt,acc,correct_resp
0,4F4K,1,2,52.39402860074351,29.46274239917969,1.4863984042703289,34.419016124228165,1,b,1.5646782999997413,incorrect,v
1,4F4K,2,1,36.25451608186604,48.81735771235638,1.0626271524829956,51.281869736858326,1,n,1.2066239999999198,incorrect,c
2,4F4K,3,2,61.14790012823946,39.42787650506146,1.7831610437147078,42.993691815101165,1,v,1.3401223000000755,correct,v
3,4F4K,4,1,66.29309117115842,49.87320067070244,1.9845236221914704,52.20267638909189,2,c,1.2126060000000507,incorrect,n
4,4F4K,5,2,49.59220902499241,62.95454040212432,1.4022720518673368,62.972727873775945,2,v,1.3340238000000681,incorrect,b
5,4F4K,6,1,65.63248177064528,46.18410566948656,1.9574486384801983,48.96857256743527,2,n,1.1150265999999647,correct,n
6,4F4K,7,2,71.10156970441992,52.22847673952948,2.193214764918728,54.23772455321744,1,v,1.3704176999999618,correct,v
7,4F4K,8,1,53.20049687705311,64.08824836015653,1.511535545825674,63.82643818106227,1,n,1.2005047000002378,incorrect,c
8,4F4K,9,2,31.85275152991681,42.291772196688896,0.9696812855454672,45.52558832113108,2,b,1.1094606999999996,correct,b
9,4F4K,10,1,38.08060939394054,53.150476985130425,1.1037537059201967,55.02586445304371,1,c,1.176121200000125,correct,c
10,4F4K,11,1,58.95923846657239,41.81909495211794,1.7038249883618335,45.10709994446962,2,n,0.9031350000000202,correct,n
11,4F4K,12,2,52.37596612209881,35.36492903872658,1.4858402198184328,39.43613558820645,1,b,1.2734929000002921,incorrect,v
12,4F4K,13,1,49.909978859962365,41.10425959010423,1.411568719966392,44.4745189769001,2,n,2.1427370000001247,correct,n
13,4F4K,14,2,38.15856772822396,55.271075989955726,1.1055444499260187,56.81686445107565,2,v,1.036277699999573,incorrect,b
14,4F4K,15,2,46.08730386927632,61.02033453275333,1.303706500070686,61.48068212676978,2,b,2.2887096999997993,correct,b
15,4F4K,16,1,57.432759774550505,68.57655650076582,1.650591130605275,67.03878866075408,1,n,1.172024699999838,incorrect,c
16,4F4K,17,2,30.585322777693648,45.11902560088946,0.9444587441746938,48.02806328160852,2,v,1.2915418000002319,incorrect,b
17,4F4K,18,2,28.78561593959889,51.91929137340383,0.9097666647769614,53.97227666836123,2,b,0.957181700000092,correct,b
18,4F4K,19,1,63.65551983284262,47.93872686144652,1.8786100013889773,50.51235300749994,2,n,1.0366142999996555,correct,n
19,4F4K,20,1,66.63690377281316,48.59718521145475,1.9987625790030583,51.08929812721203,2,n,1.6009014000001116,correct,n
20,4F4K,21,2,50.17732305197841,29.89206388846295,1.4194378592768682,34.77563211419739,1,b,1.3172137999999904,incorrect,v
21,4F4K,22,2,51.52661398890803,34.24037157465381,1.459828022167909,38.46354388969227,1,v,1.6193323000002238,correct,v
22,4F4K,23,1,23.81698471841864,43.1168768647737,0.8204626370057266,46.256254496966,1,c,1.8073955999998361,correct,c
23,4F4K,24,1,69.45633793232658,52.19216349146957,2.119450302385213,54.2065771915446,2,n,1.183857099999841,correct,n
24,4F4K,25,1,39.84792176331709,53.278384972360136,1.145071474363148,55.1347772475585,1,c,4.362455499999669,correct,c
25,4F4K,26,2,48.19345406106238,65.32478481674298,1.3620726180947278,64.73892560756838,2,v,1.7349604000000909,incorrect,b
26,4F4K,27,1,53.97911346560496,39.140057443001375,1.5362078255638991,42.73998394051161,2,n,3.053084099999978,correct,n
27,4F4K,28,2,60.40781091450399,69.50605562389822,1.7559287759820723,67.66794999984602,2,b,1.2484153999998853,correct,b
28,4F4K,29,1,33.56679732504478,40.617446226710165,1.0048665506069143,44.04403592233282,1,c,1.8172977999997784,correct,c
29,4F4K,30,1,42.46918404523301,57.16930508191048,1.2092189736648586,58.390586884036125,1,n,3.861401399999977,incorrect,c
30,4F4K,31,1,63.59295097680224,45.84632077176478,1.8761673636386256,48.67051926579783,2,n,0.8666941999999835,correct,n
31,4F4K,32,2,66.41430614682453,44.969092212868894,1.989532111168542,47.89551642601159,1,b,1.75898559999996,incorrect,v
32,4F4K,33,2,57.113940080806586,70.95306022807605,1.6396844512852708,68.62095256178162,2,v,1.2323796999999104,incorrect,b
33,4F4K,34,1,37.067791885419375,42.8123505559538,1.080750689435814,45.98657723924935,1,c,0.8720675000004121,correct,c
34,4F4K,35,1,53.47384048452962,60.21915243986081,1.52015160863457,60.85028511606899,1,c,1.0366367000001446,correct,c
35,4F4K,36,2,58.00884168907189,48.35221511235349,1.67048294186861,50.87482947331385,1,b,1.8316600000002836,incorrect,v
36,4F4K,37,1,46.542165920106015,52.22574589939793,1.316096228223571,54.23538247096536,1,c,0.7756896999999299,correct,c
37,4F4K,38,2,43.02867367748389,34.70543799873087,1.2233694972222808,38.86497757549303,1,v,2.373348299999634,correct,v
38,4F4K,39,2,43.147504882190205,29.04063998048455,1.226396212371468,34.06989785026018,1,v,0.9714725000003455,correct,v
39,4F4K,40,2,42.3800475342979,35.56902187874169,1.2069797118722805,39.613319648536525,1,v,0.7272803999999269,correct,v
40,4F4K,41,2,40.4723545394162,32.777502636914946,1.1600368508973298,37.20881858056274,1,v,0.799765099999604,correct,v
41,4F4K,42,1,46.43767021897765,57.32837318660159,1.313239551968793,58.52106224929951,1,c,0.9820074999997814,correct,c
42,4F4K,43,1,46.339087684063486,52.51684032805525,1.310550212764978,54.48478606700027,1,c,1.2605735000001914,correct,c
43,4F4K,44,1,34.23952997983626,43.21628957604706,1.01902249495464,46.34428826456414,1,c,0.7271464000000378,correct,c
44,4F4K,45,2,66.97303952025123,77.9384847335736,2.012782362767981,72.73182292080074,2,b,1.7032988000000842,correct,b
45,4F4K,46,1,63.10111988270142,51.055505414966674,1.8570769504293336,53.227835509089374,2,n,0.9656401999995978,correct,n
46,4F4K,47,1,61.035069827790245,46.639613297183146,1.778982223873789,49.37011285956188,2,n,1.5404057999999168,correct,n
47,4F4K,48,2,43.312918675304026,31.574381606572068,1.2306218900632828,36.186995814532914,1,v,0.8306289000001925,correct,v
48,4F4K,49,2,38.087294818397005,59.14058919473284,1.103907159867514,59.99090601972298,2,v,0.9641068000000814,incorrect,b
49,4F4K,50,2,51.57980108273553,35.64251732015768,1.4614434771437126,39.67717253853214,1,v,1.0366314000002603,correct,v
50,4F4K,51,1,49.21890611662468,37.5596645955659,1.3914288928352725,41.35080333912076,2,c,1.564634599999863,incorrect,n
51,4F4K,52,1,44.0417026860412,55.527758530674205,1.2494135494158956,57.03139404310818,1,c,0.9577484999999797,correct,c
52,4F4K,53,1,42.28276338998074,54.826566218530566,1.2045404999080371,56.44414752633973,1,c,1.3819864000001871,correct,c
53,4F4K,54,2,52.41604284897233,41.88415429880309,1.4870789937214306,45.16469344021005,1,v,1.9409249000000273,correct,v
54,4F4K,55,2,60.62528567077968,45.73987020923345,1.7638875253993964,48.57654348725997,1,v,1.6162508000002163,correct,v
55,4F4K,56,1,57.69908468164357,71.51209236967475,1.6597575798665891,68.9802731637998,1,n,0.7059418000003461,incorrect,c
56,4F4K,57,1,26.507327514927557,40.21074025409291,0.8676708852985189,43.68464808429902,1,c,0.9471322999997938,correct,c
57,4F4K,58,1,43.68066725698454,34.24354682243893,1.2400686736568285,38.4662807526266,2,c,2.8836496000003535,incorrect,n
58,4F4K,59,1,43.80034003229045,28.256680270509683,1.24315845896376,33.42559081111483,2,n,1.642983600000207,correct,n
59,4F4K,60,2,53.09783447641325,66.73694869487078,1.5083121546587628,65.75601280643254,2,b,1.1571360999996614,correct,b
60,4F4K,61,2,40.08470151410563,60.832062399936966,1.150723361444129,61.33317205329453,2,b,0.9820201000002271,correct,b
61,4F4K,62,2,44.17815330032718,51.73010924312506,1.252963683073275,53.809584860572514,2,b,0.6911414999999579,correct,b
62,4F4K,63,2,60.3835868649495,51.59525422652618,1.7550444935842933,53.69349002056435,1,b,0.690736300000026,incorrect,v
63,4F4K,64,2,41.71129770401777,55.9821613747987,1.190311302284789,57.4098870398015,2,b,1.9523871999999756,correct,b
64,4F4K,65,2,52.14994641983717,57.85264359213982,1.4788732337307084,58.94947161792195,2,v,0.9314715999998953,incorrect,b
65,4F4K,66,1,50.271468134064925,36.098683276217145,1.4222194031569837,40.0740340223672,2,c,1.500982699999895,incorrect,n
66,4F4K,67,2,43.01131996180459,54.62645369813535,1.2229281112935024,56.275867914633466,2,v,1.7709600000002865,incorrect,b
67,4F4K,68,2,40.36376722516032,52.10490106358776,1.1574204314724763,54.13169686356432,2,b,1.4020479999999225,correct,b
68,4F4K,69,1,69.6602904078259,57.96142513488738,2.1284581327084915,59.0380456498401,2,n,1.0850006000000576,correct,n
69,4F4K,70,2,47.9498609078412,34.26689588495714,1.3551906510762948,38.48640785723507,1,v,2.8404445999999552,correct,v
70,4F4K,71,2,35.0463518791841,23.69978164044251,1.0362632555789644,29.799481588946275,1,v,1.1266654000000926,correct,v
71,4F4K,72,2,58.25354535794027,48.32062437894828,1.6790048070157262,50.84715663248048,1,b,1.1093788999996832,incorrect,v
72,4F4K,73,2,66.6285669989663,53.87029198162521,1.998416106875876,55.63736274029083,1,v,1.7831002000002627,correct,v
73,4F4K,74,1,52.365025004066815,43.32040434658863,1.4855022085912393,46.43648343929339,2,c,1.7117300999998406,incorrect,n
74,4F4K,75,1,44.16665192167397,52.3654751721165,1.252664054540355,54.35516314715896,1,c,1.5039820000001782,correct,c
75,4F4K,76,2,56.34966285398665,62.00949841668943,1.6138314225897614,62.24914892320379,2,b,1.0851847000003545,correct,b
76,4F4K,77,2,64.65754911800671,56.06743659072631,1.91816453150596,57.480729765529226,1,b,0.7392150999999103,incorrect,v
77,4F4K,78,2,74.12328743387506,62.17909060438213,2.335446866668672,62.37977557625862,1,v,1.327917499999785,correct,v
78,4F4K,79,2,71.04773243511275,55.14060660706667,2.190760802973085,56.70762408321632,1,v,0.6604178999996293,correct,v
79,4F4K,80,1,38.73023746496274,53.96436992258238,1.1187650762320502,55.71702356296201,1,c,2.531112000000121,correct,c
80,4F4K,81,2,56.53011984245726,49.06729246126286,1.6198986977006309,51.50024919274633,1,v,2.03903500000024,correct,v
81,4F4K,82,2,33.18150804855353,53.80997953500671,0.9968478604141124,55.58626067636118,2,v,0.7285706000002392,incorrect,b
82,4F4K,83,1,50.2974389245648,37.49177350167236,1.4229876764902674,41.29129753494026,2,c,1.6799692999998115,incorrect,n
83,4F4K,84,1,55.481792412699306,75.89677558989852,1.5849680651220657,71.61813344709554,1,n,1.8043967999997221,incorrect,c
84,4F4K,85,2,53.21158628210147,35.486449395439394,1.5118841426301717,39.541610467024704,1,v,4.0104050999998435,correct,v
85,4F4K,86,2,46.2654682813884,37.83912648491063,1.3085454624604678,41.59591042205432,1,v,1.1757863999996516,correct,v
86,4F4K,87,1,49.400154807576,38.3007343574035,1.3966830285686511,42.00131283697316,2,c,1.4311490999998568,incorrect,n
87,4F4K,88,2,65.9013090399831,48.46485409861081,1.9684216251946136,50.973470345910144,1,v,2.2110296000000744,correct,v
88,4F4K,89,2,40.71877791800158,58.516741722107824,1.1659964026658878,59.488464551932935,2,b,2.1244762999999693,correct,b
89,4F4K,90,2,29.548048310354112,50.34601901884456,0.9243053567708376,52.61345622219354,2,b,1.8430075999999644,correct,b
90,4F4K,91,1,55.47848112371124,45.7398445359274,1.5848589338129464,48.57652082002033,2,n,2.0713857999999163,correct,n
91,4F4K,92,1,62.55094027281928,45.34593251238945,1.8359518313103644,48.22859511438053,2,n,0.7337380000003577,correct,n
92,4F4K,93,1,67.27619046739464,53.96389284205138,2.025510710908982,55.71661974891676,2,n,0.6300304000001233,correct,n
93,4F4K,94,2,40.79717113057748,52.717168085969554,1.1678986913186955,54.65612324978692,2,v,1.1576891999998224,incorrect,b
94,4F4K,95,2,50.86032819453174,36.54022150735003,1.4397415411296377,40.45902198778897,1,v,1.7103112999998302,correct,v
95,4F4K,96,2,73.64332902984461,62.434566395281465,2.312253975941288,62.57591658849515,1,b,1.0804591999999502,incorrect,v
96,4F4K,97,2,48.4127847728128,35.975770171664706,1.3682990204156986,39.96700988517647,1,b,0.909194700000171,incorrect,v
97,4F4K,98,1,29.542363417580997,53.689125757064254,0.9241960973752512,55.48378730166005,1,c,0.7514124999997875,correct,c
98,4F4K,99,1,22.96694716633656,38.86274216459017,0.8060875332481094,42.49572090941116,1,c,0.6907320999998774,correct,c
99,4F4K,100,1,47.0976813494361,61.23486145981144,1.3313874188670085,61.64828375976703,1,n,0.9519144000000779,incorrect,c
100,4F4K,101,2,66.95902379961217,51.679072033097285,2.012195825407012,53.76565955590459,1,b,1.546468300000015,incorrect,v
101,4F4K,102,2,51.8207317225294,67.290332792516,1.4687836981681823,66.14702177723412,2,b,1.3416682000001856,correct,b
102,4F4K,103,1,49.092285172270245,63.49921513470354,1.387770067681819,63.38487321376832,1,n,1.13376530000005,incorrect,c
103,4F4K,104,2,45.37402777480813,65.45020167893756,1.2845124141808355,64.83035198991915,2,b,1.7337601000003815,correct,b
104,4F4K,105,1,44.1086748552958,26.1269041333081,1.2511547537434091,31.70413064828892,2,c,1.6374575999998342,incorrect,n
105,4F4K,106,2,49.56684842691965,71.83779527529184,1.4015327463013898,69.18729706058048,2,b,1.2058216000000357,correct,b
106,4F4K,107,2,34.603688003937144,52.81477932865954,1.026768285443375,54.73951840049521,2,b,1.7012047000002894,correct,b
107,4F4K,108,1,52.03684793688523,44.889095904121234,1.4753992814100694,47.82478406261573,2,n,2.4649728999997933,correct,n
108,4F4K,109,2,52.31220898055875,64.2777218380824,1.4838716092910371,63.96754316394741,2,b,1.2206006000001253,correct,b
109,4F4K,110,2,46.494669487943554,54.47628651531913,1.3147970136076472,56.14939406924532,2,b,1.4796803999997792,correct,b
110,4F4K,111,1,54.401855080818535,44.28818977840029,1.5497716437041846,47.29322240511697,2,c,1.777085100000022,incorrect,n
111,4F4K,112,1,61.41107734487732,50.554822962668425,1.7929463512296278,52.79452845667947,2,n,1.0197789000003468,correct,n
112,4F4K,113,1,47.43439857275948,58.28967522931682,1.3407422900756338,59.304645214018365,1,n,2.543257199999971,incorrect,c
113,4F4K,114,1,52.54134310348304,37.127015488657705,1.4909586979454124,40.971865967398045,2,c,1.4934118000001035,incorrect,n
114,4F4K,115,2,41.60258445986647,22.173930025764733,1.1876234900143712,28.63663661880332,1,v,3.8101096000000325,correct,v
115,4F4K,116,1,71.78038547944084,57.62027205990356,2.224392787497452,58.75989859639816,2,n,1.546530999999959,correct,n
116,4F4K,117,1,68.58333773706975,51.22865203689536,2.0813219298020766,53.37738300609796,2,n,0.5632786999999553,correct,n
117,4F4K,118,1,49.927175345497375,38.822442314051735,1.4120735743047226,42.4602402654757,2,n,0.8678983999998309,correct,n
118,4F4K,119,2,47.166299520958376,41.12096646254799,1.3332884979541388,44.48929779749157,1,v,1.5160984999997709,correct,v
119,4F4K,120,1,51.6617869087543,64.85558340036182,1.4639371401990708,64.39503410488038,1,n,0.8499704000000747,incorrect,c
120,4F4K,121,1,34.003884136520405,50.55727028436006,1.014041378929881,52.79664949217533,1,c,1.160773699999936,correct,c
121,4F4K,122,2,34.81744084070803,23.36138169805897,1.0313422900368612,29.539186767968538,1,b,2.051675900000191,incorrect,v
122,4F4K,123,1,57.06204111708333,73.17528157937674,1.6379158442251671,70.01916592851316,1,n,2.129769899999701,incorrect,c
123,4F4K,124,1,71.34148274663696,53.41050336623565,2.2041837261179187,55.24716233447973,2,c,1.0732270999997127,incorrect,n
124,4F4K,125,2,32.816381557780616,21.123735060068253,0.9893078616834088,27.8529869322557,1,v,1.6632893000000877,correct,v
125,4F4K,126,2,39.93741900839817,54.142170439903296,1.1472044856894932,55.8674075118077,2,b,0.9835433000002922,correct,b
126,4F4K,127,2,73.30037907107697,58.11031610231319,2.295822924603953,59.15909868797083,1,b,0.6544131000000561,incorrect,v
127,4F4K,128,1,50.04768444071311,64.01750813479487,1.4156165496780249,63.7736392055697,1,c,2.11846179999975,correct,c
128,4F4K,129,2,29.51049826501401,38.98176534167002,0.9235839119713548,42.60053488335994,2,v,0.7544781000001421,incorrect,b
129,4F4K,130,1,47.55004233784032,32.20606029179234,1.3439703124410705,36.72227390538507,2,n,1.1157533999999032,correct,n
130,4F4K,131,2,62.97253540218678,52.334783496965045,1.852118058054789,54.32886319707249,1,b,2.7442958999999973,incorrect,v
131,4F4K,132,2,58.67014403414347,42.98638261705117,1.6936130851613458,46.140694442285145,1,v,0.751404900000125,correct,v
132,4F4K,133,2,35.49531062242788,51.26821677125132,1.045982938026046,53.41153303030433,2,v,1.4373531000001094,incorrect,b
133,4F4K,134,1,62.28151348258785,44.7476701477729,1.8256945383291028,47.69971591704999,2,n,2.9862951000000066,correct,n
134,4F4K,135,2,75.08003442527969,61.32436180934965,2.3823758469682272,61.71805490900055,1,v,1.315899900000204,correct,v
135,4F4K,136,1,33.987787991186735,51.16916763738169,1.0137020260037728,53.32602384331806,1,c,3.2093159000000924,correct,c
136,4F4K,137,1,59.20539959756252,42.51207170060494,1.7125688480539825,45.72066389110993,2,n,4.914657399999669,correct,n
137,4F4K,138,2,63.833652636102265,51.41905240318615,1.8855815915182008,53.54164887907372,1,v,1.4432662000003802,correct,v
138,4F4K,139,1,62.68391945397286,43.27801063723215,1.8410356757373367,46.3989435274892,2,n,2.9377503999999135,correct,n
139,4F4K,140,1,37.17494955740983,50.90632230118061,1.0831615909067032,53.09886029712555,1,c,5.0,correct,c
140,4F4K,141,2,56.22548853715361,46.06968054350038,1.6096696717091148,48.867632524805366,1,v,0.8001602999997885,correct,v
141,4F4K,142,2,57.88715968977699,35.394520019217495,1.666261451870747,39.4618129637912,1,b,1.3278934999998455,incorrect,v
142,4F4K,143,1,50.197933645758056,35.813041790236795,1.420046339788856,39.82541927779641,2,c,1.4068242999996983,incorrect,n
143,4F4K,144,1,44.09735374504839,63.10476812929311,1.2508602467263958,63.08676521551999,1,n,2.0008425999999417,incorrect,c
144,4F4K,145,1,58.40455149331935,45.02383663955407,1.6842853099392276,47.94391622939364,2,n,1.3238305000004402,correct,n
145,4F4K,146,1,37.69090971512404,55.70990065488712,1.0948454956975786,57.18330824063705,1,c,0.8319109999997636,correct,c
146,4F4K,147,1,54.73890461446646,36.11798046512296,1.5606717560919328,40.09084259313064,2,n,1.50998780000009,correct,n
147,4F4K,148,2,49.90753349386861,59.05679016086084,1.411496943580632,59.92363890651884,2,v,0.9516396999997596,incorrect,b
148,4F4K,149,2,45.43204656742064,60.0113279175556,1.2860630710797998,60.685635075108586,2,b,0.7937968000001092,correct,b
149,4F4K,150,1,52.37943999697762,36.055246319158,1.4859475566284106,40.03620467748115,2,n,0.9941600999995899,correct,n
150,4F4K,151,2,33.21759345401307,54.11686567670088,0.997596150753296,55.84601831177943,2,v,2.8892335000000458,incorrect,b
151,4F4K,152,2,54.51138740226318,40.539030677259255,1.5533055204644464,43.97472384423814,1,v,1.4310967000001256,correct,v
152,4F4K,153,1,58.32222384877137,71.35503248003594,1.6814043556115617,68.87982909394155,1,n,1.351733299999978,incorrect,c
153,4F4K,154,2,72.14505674921605,57.880416895423295,2.2413247554835207,58.97209617074764,1,v,1.5419019000000844,correct,v
154,4F4K,155,2,47.01150970124947,54.46096512226546,1.3290038565078612,56.13648079824019,2,v,0.6180207000002156,incorrect,b
155,4F4K,156,2,56.59885526448,42.25054383430654,1.6222156953002025,45.489082284241256,1,b,0.7938808000003519,incorrect,v
156,4F4K,157,2,43.78775950161785,54.67200003417794,1.2428332853027388,56.3141951367924,2,v,1.4007954000003338,incorrect,b
157,4F4K,158,2,57.66999891174902,71.13010898389375,1.6587540261776132,68.73529349952962,2,v,1.060696999999891,incorrect,b
158,4F4K,159,1,38.51548045528062,49.43081599280359,1.1137800941563902,51.817432856073175,1,c,0.8262884000000668,correct,c
159,4F4K,160,1,46.97520308018051,59.42276056536199,1.3280008705355624,60.21689064438144,1,n,1.188351799999964,incorrect,c
160,4F4K,161,2,52.56316936679586,60.87346544914562,1.4916355445865623,61.36564459132378,2,v,2.737892600000123,incorrect,b
161,4F4K,162,2,46.67793915461673,64.71392961706728,1.3198172460105573,64.29064248077493,2,b,0.7688112999999248,correct,b
162,4F4K,163,2,50.82119703707134,61.58749483601459,1.4385704862106652,61.92266041766486,2,b,0.6846350000000712,correct,b
163,4F4K,164,1,48.8020076708913,28.650307376131515,1.3794185090613802,33.74841950090323,2,c,1.9044896999998855,incorrect,n
164,4F4K,165,1,59.33297068489643,50.20796026790215,1.717117923933533,52.493619126711714,2,n,0.6436671000001297,correct,n
165,4F4K,166,2,36.46806318704603,45.79255641732304,1.067356333430943,48.62305813518955,2,v,1.8163856999999552,incorrect,b
166,4F4K,167,2,60.86995180593558,52.37610487871969,1.7728845045156818,54.36427051186866,1,b,0.6755955000003269,incorrect,v
167,4F4K,168,2,57.82469779167991,65.6356681509799,1.6640986186709483,64.96516662053048,2,v,0.9411402999999154,incorrect,b
168,4F4K,169,1,62.8417903675621,40.821332396309714,1.8470894203501191,44.22429286539402,2,c,1.3173738000000412,incorrect,n
169,4F4K,170,2,37.67306316165511,48.25354466287281,1.0944392644500702,50.78838466237509,2,b,2.0395880999999463,correct,b
170,4F4K,171,1,48.60948448760391,58.151011270603775,1.3739071746948155,59.19214880058803,1,c,1.1398054999999658,correct,c
171,4F4K,172,1,33.69976351204587,44.261320229631366,1.0076488051555768,47.269444841280006,1,c,0.8485360999998193,correct,c
172,4F4K,173,1,19.35100380512381,33.040464520417025,0.7476993138151731,37.43341750718079,1,c,2.0015964000003805,correct,c
173,4F4K,174,1,46.76462402092464,29.00279752696433,1.3221984427457651,34.038672818347564,2,c,1.5928401000001031,incorrect,n
174,4F4K,175,1,56.67468138736257,40.22561304529636,1.6247755575692686,43.6977858329544,2,n,0.583132299999761,correct,n
175,4F4K,176,1,53.98040744733022,66.2271170463623,1.5362491617757843,65.39197161039021,1,n,3.3139013999998497,incorrect,c
176,4F4K,177,1,41.09732127868538,47.66476130207396,1.1752108644794028,50.27187841199982,1,c,1.261160800000198,correct,c
177,4F4K,178,1,28.89983001134892,42.69714863213136,0.9119299420107742,45.88455838462373,1,c,1.443211600000268,correct,c
178,4F4K,179,1,75.03111665825574,59.75144868192329,2.3799536873991936,60.479105654168194,2,c,0.8727785999999469,incorrect,n
179,4F4K,180,2,61.38234568349454,40.76282587884655,1.791875460842827,44.1725611373733,1,b,2.349089499999991,incorrect,v
180,4F4K,181,1,57.2203795665738,44.723120040037415,1.643317661049454,47.67800281290607,2,c,1.0397235000000364,incorrect,n
181,4F4K,182,2,51.14360927970204,40.78543300218789,1.4482476041938768,44.19254992161712,1,v,0.5184284000001753,correct,v
182,4F4K,183,2,58.47961365668532,36.7708985197149,1.6869163195660604,40.660470096616415,1,b,0.78777429999991,incorrect,v
183,4F4K,184,2,49.108678002258,58.59731928146575,1.3882432104318263,59.55357572208147,2,b,1.1640774000002239,correct,b
184,4F4K,185,1,54.28076308071356,39.02790033948846,1.54587416986711,42.64117169201506,2,n,1.1997809999998026,correct,n
185,4F4K,186,1,64.95974925273994,49.96425869615976,1.9302563747881576,52.28186625580246,2,c,1.2612069000001611,incorrect,n
186,4F4K,187,1,28.268856429319044,44.27055985810254,0.9000429121652725,47.27762130309092,1,c,2.3429454000001897,correct,c
187,4F4K,188,1,33.902718850148176,45.03755112657873,1.0119104096867857,47.95604062482002,1,c,0.5541146000000481,correct,c
188,4F4K,189,1,65.24067464250601,55.81590239385295,1.9415653128458183,57.27159568173716,2,n,0.5636528999998518,correct,n
189,4F4K,190,2,33.18250064660525,44.16961042323919,0.9968684360609616,47.18828363254549,2,v,2.39763129999983,incorrect,b
190,4F4K,191,2,49.51114729372495,67.40891096391208,1.3999103292414432,66.2302396166253,2,v,0.9045399999999972,incorrect,b
191,4F4K,192,1,45.76747528857873,55.867200178099445,1.2950647749523645,57.31428829911295,1,c,1.63745549999976,correct,c
192,4F4K,193,2,48.4663184355086,37.7819927136063,1.3698230606801105,41.5457794376632,1,b,0.7708434999999554,incorrect,v
193,4F4K,194,2,63.38904656093622,46.375842088016405,1.868229118078661,49.13764981297654,1,v,1.4250772999998844,correct,v
194,4F4K,195,2,38.34941268275509,50.46040647062061,1.109940530491825,52.712677671943,2,b,0.9410901000001104,correct,b
195,4F4K,196,2,34.85243911660908,48.746994795618704,1.0320931418521968,51.22034722362055,2,b,0.5140071000000717,correct,b
196,4F4K,197,2,45.36095436178512,60.6324087142208,1.2841632618283696,61.17631963053882,2,b,0.43583070000022417,correct,b
197,4F4K,198,1,25.134560735805227,43.09222509461538,0.8432526324109549,46.23442413060308,1,c,0.6543029999997998,correct,c
198,4F4K,199,1,44.80707038571023,24.092375786850123,1.2694575137040187,30.103128245788977,2,c,1.231177900000148,incorrect,n
199,4F4K,200,1,37.543461670808455,47.061034855777024,1.0914937354624743,49.74116032022728,1,c,1.1883630000002086,correct,c
200,4F4K,201,1,21.33068529115431,36.28876596393249,0.7791216765422168,40.2396721895997,1,c,1.6251529000001028,correct,c
201,4F4K,202,2,61.97647990311326,50.75680529969185,1.8141508166479987,52.96948241907825,1,b,1.30974950000018,incorrect,v
202,4F4K,203,2,52.06540531162312,31.33238781469353,1.4762756837322988,35.98267412993368,1,b,0.7514140000002953,incorrect,v
203,4F4K,204,1,48.80407376853492,25.92605552700468,1.3794777746956457,31.54410941154972,2,n,1.0369373999997151,correct,n
204,4F4K,205,2,43.59124020177517,60.5909673562239,1.2377648053978083,61.14370794062769,2,v,1.552455000000009,incorrect,b
205,4F4K,206,1,54.80091173789221,35.91565723322061,1.5626853871043036,39.91469174055163,2,n,1.7278129999999692,correct,n
206,4F4K,207,1,51.7490334748479,66.06843212966629,1.4665954861880124,65.27792960453347,1,n,1.8044340000001284,incorrect,c
207,4F4K,208,1,65.34150289762799,52.963246816472505,1.9456403946971723,54.866248101727095,2,c,0.8243176999999378,incorrect,n
208,4F4K,209,2,46.01346663788452,60.4202517111385,1.30170632235265,61.009169756955394,2,b,1.4796789000001809,correct,b
209,4F4K,210,2,53.98294737347152,42.17945913333848,1.5363303028833692,45.42614125024041,1,v,0.8720643999999993,correct,v
210,4F4K,211,2,64.24351647218447,74.85717324292374,1.9017208538189752,71.02247981982725,2,v,1.655635600000096,incorrect,b
211,4F4K,212,1,47.29446226461137,36.50332637484306,1.3368465433542749,40.426821456136935,2,c,0.860972099999799,incorrect,n
212,4F4K,213,1,61.133219276426445,46.34654137831954,1.782616763873496,49.11181706452592,2,c,0.8850578999999925,incorrect,n
213,4F4K,214,2,56.60979209422079,38.65077101854858,1.6225846696292394,42.3091454586145,1,b,2.9134923999999955,incorrect,v
214,4F4K,215,2,53.87939689150189,67.2816396855822,1.533025725364401,66.14091305922547,2,b,1.4979060999999092,correct,b
215,4F4K,216,1,59.37895772957123,42.126778252856745,1.7187607440301074,45.37949704379959,2,n,1.5099636999998438,correct,n
216,4F4K,217,1,53.64796063022496,60.742099067220806,1.525665638437251,61.26254873094596,1,c,0.8682417999998506,correct,c
217,4F4K,218,1,40.873986607796674,52.16766255080008,1.169765705097623,54.18555733137256,1,c,0.42368179999994027,correct,c
218,4F4K,219,1,42.46764482604951,32.313094050352845,1.2091802706153123,36.81324264130321,2,n,0.7453381999998783,correct,n
219,4F4K,220,2,76.95831794719751,62.46594684229995,2.4772672879340587,62.59995572603823,1,v,0.7945581999997557,correct,v
220,4F4K,221,2,49.53462929938406,33.302414088930675,1.4005940647869863,37.65757794984268,1,b,0.6300311999998485,incorrect,v
221,4F4K,222,1,41.29725321377598,20.50965891089022,1.1801069362828938,27.401356392326047,2,c,0.7018111000002136,incorrect,n
222,4F4K,223,1,33.93321899667682,50.83495174473206,1.0125523999395647,53.03711707450272,1,c,1.6253991000003225,correct,c
223,4F4K,224,2,41.03895825861753,54.24685953714553,1.17378546445543,55.95584903823067,2,b,2.0213040999997247,correct,b
224,4F4K,225,2,33.10221238446485,48.091439936094616,0.9952055054366744,50.64629288346048,2,b,1.6405690999999933,correct,b
225,4F4K,226,2,38.01839127249609,26.78288339050517,1.102326604388412,32.229631710759186,1,v,0.6027951999999459,correct,v
226,4F4K,227,1,38.83356776186344,50.14539518471163,1.1211715435069818,52.43928227689538,1,c,1.5343064000003324,correct,c
227,4F4K,228,2,46.181090359766586,36.97977043556768,1.3062515153171828,40.84305414336996,1,v,1.048826100000042,correct,v
228,4F4K,229,1,28.5698369587156,49.2177759995698,0.9056936883354716,51.63161507049604,1,n,1.3157524000002923,incorrect,c
229,4F4K,230,1,64.35417850662326,49.83904269807115,1.9061020421216956,52.17296087373341,2,c,1.0973367000001417,incorrect,n
230,4F4K,231,2,40.86637582614893,31.609917489944134,1.169580590572588,36.21703486758838,1,b,1.9234747999998945,incorrect,v
231,4F4K,232,2,58.56906293864951,76.08212783440355,1.6900569807030617,71.72232985730804,2,b,0.7954675000000861,correct,b
232,4F4K,233,2,50.32438469837655,54.09661669044549,1.4237852306649397,55.82889931194186,2,v,1.2809496999998373,incorrect,b
233,4F4K,234,1,62.55953671944402,46.3149876337605,1.8362800518739488,49.08399580441801,2,n,1.8372807999999168,correct,n
234,4F4K,235,1,37.49913648617811,56.155777451487374,1.0904881513950868,57.55405604165191,1,c,0.8887628999996195,correct,c
235,4F4K,236,1,46.763230900363936,60.25873223351865,1.322160140365075,60.881590486389854,1,c,1.0441299999997682,correct,c
236,4F4K,237,2,37.40444310885254,51.138012264438416,1.088342991049468,53.29911667249149,2,b,2.40450009999995,correct,b
237,4F4K,238,2,69.46312754117857,53.378614414324375,2.11974956010824,55.22004691393151,1,b,1.6657586000001174,incorrect,v
238,4F4K,239,2,75.80394548834,55.238081591176815,2.418509768041414,56.78925110398645,1,v,0.7347084000002724,correct,v
239,4F4K,240,1,44.477159724239385,26.709835983460195,1.2607784596476206,32.17089991076051,2,n,1.012387100000069,correct,n
240,4F4K,241,2,42.14556701243916,31.9002501299234,1.20110894137591,36.46278975067437,1,b,2.9375244000002567,incorrect,v
241,4F4K,242,1,52.48875181260431,35.077724958014784,1.4893290690828178,39.18713506588248,2,n,0.5207957000002352,correct,n
242,4F4K,243,1,42.67097260537565,32.04039974034282,1.214303607638957,36.581629647515165,2,n,0.9520317000001342,correct,n
243,4F4K,244,2,63.45394815551111,50.473206486909845,1.870752164914358,52.723776692233415,1,v,0.7938899000000674,correct,v
244,4F4K,245,2,55.782372588869656,38.69241416336139,1.5949057570269245,42.34579011405715,1,v,0.5450802000000294,correct,v
245,4F4K,246,2,58.96442261457096,48.2691882592654,1.7040086728572037,50.80209220845138,1,v,0.4297394999998687,correct,v
246,4F4K,247,2,58.57940765190017,47.52076070843271,1.6904205717927052,50.14538805046957,1,v,0.46010130000013305,correct,v
247,4F4K,248,1,61.345427832193614,49.141362843719854,1.7905003925628034,51.56492088237187,2,c,1.048320800000056,incorrect,n
248,4F4K,249,1,34.80526679409704,49.6355749174972,1.031081236529727,51.9958488975883,1,c,0.9638442999998915,correct,c
249,4F4K,250,2,35.142603685457935,50.122384193040624,1.0383394135529338,52.41929300342636,2,b,1.2793957999997474,correct,b
250,4F4K,251,1,47.968666182664855,62.901016037635685,1.3557206948220728,62.932031521761495,1,c,1.3828636999996888,correct,c
251,4F4K,252,1,32.8838756921439,43.71801390755423,0.99069733115687,46.7885367799832,1,c,0.5328985000001012,correct,c
252,4F4K,253,2,45.85205593763817,57.31251054356403,1.2973445458003854,58.50806111064672,2,b,1.0427220999999918,correct,b
253,4F4K,254,1,45.53253646146232,60.34440976774739,1.2887532750416293,60.94929931510414,1,c,0.7628986999998233,correct,c
254,4F4K,255,1,46.87245153541953,29.4264881903424,1.3251664156536538,34.388971420849124,2,n,1.3279112999998688,correct,n
255,4F4K,256,1,58.905085724420616,76.0940398884865,1.701907434149076,71.72900537011438,1,c,0.6782193999997617,correct,c
256,4F4K,257,1,40.51300266927552,52.71530643995321,1.1610177913131765,54.65453215552836,1,n,1.0614099999997961,incorrect,c
257,4F4K,258,1,31.161849799451453,44.760502285748814,0.9558495711415842,47.71106488720576,1,c,1.997069300000021,correct,c
258,4F4K,259,2,40.20166487817144,54.67583535203957,1.1535255396170856,56.31742185389341,2,b,0.7389278000000559,correct,b
259,4F4K,260,1,29.06184339618366,43.03445646453165,0.9150073909467892,46.18326679916501,1,c,0.6785718999999517,correct,c
260,4F4K,261,1,50.029152934812544,35.06380945595821,1.4150711443404258,39.17508081328964,2,c,0.7699428999999327,incorrect,n
261,4F4K,262,1,75.82711548233229,61.44094705974291,2.4196753024787525,61.80880527892559,2,c,1.024539300000015,incorrect,n
262,4F4K,263,2,60.16903563522522,46.16002747546392,1.7472318606548043,48.94733428691482,1,v,1.0068744000000152,correct,v
263,4F4K,264,1,32.57365259222404,46.31721184460158,0.9843270030977102,49.08595698623808,1,c,0.6543271000000459,correct,c
264,4F4K,265,2,55.055471681351214,41.45996803403374,1.570979277509843,44.78923983317472,1,b,1.1457772000003388,incorrect,v
265,4F4K,266,1,49.35489481521945,36.70979492803331,1.3953691516151907,40.60708849604914,2,n,3.6037703000001784,correct,n
266,4F4K,267,1,54.31334543502017,62.59672714535326,1.5469219024514274,62.70001460859645,1,c,0.5511336999998093,correct,c
267,4F4K,268,1,54.54855287725906,38.71984317962578,1.5545064322829445,42.36992930651009,2,n,0.6237891000000673,correct,n
268,4F4K,269,2,31.74846174851876,47.62285763774869,0.9675806696054507,50.235076641467,2,b,0.5086765000000923,correct,b
269,4F4K,270,1,54.11256656391114,45.58544637390419,1.5404768445866883,48.44017942916047,2,n,0.927437700000155,correct,n
270,4F4K,271,1,67.20944130344262,46.35705986624274,2.022701232346236,49.12109083073428,2,n,2.1668596999998044,correct,n
271,4F4K,272,2,41.72422565933944,60.55892861530735,1.1906313358226244,61.11848274180442,2,v,1.013900900000408,incorrect,b
272,4F4K,273,1,55.64545660800224,47.78296034208542,1.5903713782805948,50.37565719405059,2,n,0.5808973000002879,correct,n
273,4F4K,274,2,55.90840526464836,65.60052056487189,1.5990911295300398,64.9396535755553,2,v,1.1580453999999918,incorrect,b
274,4F4K,275,2,71.6220194804455,61.90483879337079,2.2170796247017104,62.168369013097006,1,v,0.7333244000001287,correct,v
275,4F4K,276,2,71.64251146619443,56.96703859246965,2.21802456546787,58.22435337566692,1,v,0.7031759999999849,correct,v
276,4F4K,277,1,59.27510800673664,53.89369753374867,1.7150530948034135,55.657187222834494,2,c,1.1397362000002431,incorrect,n
277,4F4K,278,1,66.3166572883357,46.76134018117138,1.9854963636752123,49.47733545302737,2,n,1.1155214999998861,correct,n
278,4F4K,279,1,63.20677452600432,53.37012010874325,1.8611614830531689,55.21282300282928,2,n,0.6534400999998979,correct,n
279,4F4K,280,1,64.00675085073313,45.30634636853786,1.892380927230194,48.1936160544758,2,n,0.7209462999999232,correct,n
280,4F4K,281,1,54.03071902036463,73.27198385349683,1.5378572262963712,70.07815724104152,1,c,0.9575235000002067,correct,c
281,4F4K,282,1,61.616014015772095,40.874255067486125,1.8006033644585453,44.27109117534163,2,n,0.7271290999997291,correct,n
282,4F4K,283,1,53.91043960715263,62.93072080208342,1.5340156361238055,62.95462132451618,1,c,0.67861240000002,correct,c
283,4F4K,284,1,45.74334523504022,58.66074505846184,1.2944151128417232,59.60478291776626,1,c,0.9329275999998572,correct,c
284,4F4K,285,2,73.4263310511258,54.86385626642826,2.301843790541698,56.47547257696981,1,b,1.4918700999996872,incorrect,v
285,4F4K,286,2,24.067888619640165,45.50910188048381,0.8247545051889998,48.37274786355973,2,v,0.7878504000000248,incorrect,b
286,4F4K,287,2,54.63518403588107,39.677598560161805,1.5573093128940123,43.213965436284525,1,v,0.9572324000000663,correct,v
287,4F4K,288,1,68.18279084503179,44.29223530162555,2.0640583066130134,47.296802337062935,2,n,1.9242315999999846,correct,n
288,4F4K,289,2,48.03321373648337,66.67923521879041,1.357541603742359,65.71498486236342,2,v,0.9046739999998863,incorrect,b
289,4F4K,290,1,57.91993624204888,41.48441056176348,1.667397511536277,44.81087037884454,2,c,0.7028724000001603,incorrect,n
290,4F4K,291,2,49.44056352376608,71.66319320625561,1.397857120493006,69.07653013296616,2,b,0.9335814000000937,correct,b
291,4F4K,292,1,46.989868353877824,38.26944031664731,1.32840591385177,41.97380888018324,2,c,2.1070356999998694,incorrect,n
292,4F4K,293,1,47.73873599457254,59.58518470255741,1.3492541080238043,60.346605341768246,1,c,1.7118663000001106,correct,c
293,4F4K,294,1,31.83504930305191,50.25535291533917,0.9693244043205316,52.534766781199664,1,n,1.1094702000000325,incorrect,c
294,4F4K,295,1,43.14449099170821,37.540844182697086,1.2263193539652717,41.334305884055375,2,c,0.9633250000001681,incorrect,n
295,4F4K,296,2,63.14352409302902,43.37435105192581,1.8587151887617157,46.48425282886173,1,b,0.8183126999997512,incorrect,v
296,4F4K,297,1,58.53050476771239,68.08651020676973,1.6887024452035857,66.70188145415437,1,n,1.9727743999997074,incorrect,c
297,4F4K,298,2,32.500974691428326,54.47276140025108,0.9828405186910988,56.14642316162284,2,v,0.8257548000001407,incorrect,b
298,4F4K,299,1,42.95646560124061,28.82077676762815,1.221533956063652,33.88865478921475,2,c,0.7022268999999142,incorrect,n
299,4F4K,300,2,64.6513828767238,47.06583367827866,1.9179185937287924,49.74538286636117,1,b,2.555468099999871,incorrect,v
300,4F4K,301,2,44.13239338534999,29.721233795761076,1.251771991694076,34.63355057071423,1,b,1.8438124000003882,incorrect,v
301,4F4K,302,1,46.03548412088272,59.88142977542426,1.302302432922139,60.582491526678375,1,n,2.0941845000002104,incorrect,c
302,4F4K,303,1,37.4063788184389,50.324642934967216,1.0883867998580157,52.59490734616456,1,n,1.0928862999999183,incorrect,c
303,4F4K,304,1,51.91289734626396,42.8092591931411,1.4716013657917026,45.98383962550728,2,n,0.6542734999998174,correct,n
304,4F4K,305,2,47.116938025805794,60.15536628587946,1.3319206548542708,60.79979883890835,2,b,0.7505145000000084,correct,b
305,4F4K,306,1,65.85726896007893,47.15370979558868,1.9666197940226904,49.82269518591139,2,c,0.8667679999998654,incorrect,n
306,4F4K,307,1,34.96098104460368,52.355136394491694,1.0344252750295908,54.34630439447852,1,c,0.9517478000002484,correct,c
307,4F4K,308,2,55.72965582029381,64.54215847925481,1.5931583563309129,64.16370518488117,2,b,2.49470059999976,correct,b
308,4F4K,309,1,38.1155031602655,58.22758150762078,1.1045548752391416,59.25429191648384,1,c,0.6323906000002353,correct,c
309,4F4K,310,1,27.8670231464402,40.80782376355076,0.8925535877594237,44.21234807051432,1,n,0.9213494999999057,incorrect,c
310,4F4K,311,1,72.21472087292733,58.29876624954291,2.24457394680926,59.31201425685118,2,n,1.2065896999997676,correct,n
311,4F4K,312,1,55.62936063748504,33.72081486069457,1.5898391600383333,38.01647448975403,2,c,1.3886651999996502,incorrect,n
312,4F4K,313,2,44.13930903588715,56.96799633329676,1.2519520181006203,58.22514134862342,2,v,1.1216306999999688,incorrect,b
313,4F4K,314,2,64.2830963762977,49.61214804821784,1.9032866922781253,51.975445024566106,1,v,0.7028674000002866,correct,v
314,4F4K,315,1,52.181310850739216,65.24034387709277,1.4798380768597883,64.67725158225214,1,c,1.918190500000037,correct,c
315,4F4K,316,2,60.92402046566034,48.795772907382,1.77487892594289,51.26299883718698,1,b,1.7603687999999238,incorrect,v
316,4F4K,317,2,64.84766349377799,40.81980862221827,1.9257626535429968,44.222945480329074,1,v,1.3825532000000749,correct,v
317,4F4K,318,2,44.933600459644126,36.63100764418416,1.2728020053347588,40.5382795785638,1,b,3.1987255000003643,incorrect,v
318,4F4K,319,1,40.28095871253003,55.137332130954846,1.1554291209880247,56.70488071522,1,n,0.9277941000000283,incorrect,c
319,4F4K,320,2,34.23585355907879,43.28451447972783,1.0189445946607942,46.40470275597128,2,v,1.649912299999869,incorrect,b
320,4F4K,321,1,57.14417244293163,50.76617544893091,1.640715586443206,52.977593773171215,2,n,1.1274596999996902,correct,n
321,4F4K,322,2,60.32746357992934,43.09893056543224,1.752997462050126,46.24036216737613,1,v,1.0427380000000994,correct,v
322,4F4K,323,1,40.44776507656875,57.19630576365158,1.1594438484093972,58.41275007494203,1,c,1.3036786000002394,correct,c
323,4F4K,324,2,37.811595770837634,43.697013981606574,1.0975965661433833,46.76994475205214,2,b,0.7769340999998349,correct,b
324,4F4K,325,1,62.19221142108072,46.63500237022776,1.8223073983880749,49.36605063361165,2,n,0.5814654000000701,correct,n
325,4F4K,326,1,38.139717581561,45.009835415394434,1.1051111859868945,47.93153807290294,1,c,1.3825839999999516,correct,c
326,4F4K,327,2,58.60196978589713,78.33691830962964,1.691213846379256,72.94032316883333,2,v,0.7210448000000724,incorrect,b
327,4F4K,328,1,43.67801045382942,52.454550091017445,1.2400001658863429,54.431460065963066,1,c,2.402946300000167,correct,c
328,4F4K,329,2,46.29176674118659,43.03325215197289,1.309261250769228,46.18220030902562,1,v,0.879984599999716,correct,v
329,4F4K,330,1,44.04332644655951,57.82930345884609,1.2494557367649743,58.93045284921983,1,c,1.321932399999696,correct,c
330,4F4K,331,2,48.85013453608228,56.9771909839798,1.380799680762959,58.23270575796526,2,b,1.3947422000001097,correct,b
331,4F4K,332,2,51.45020183280654,41.78410206225689,1.457510275975341,45.0761237971188,1,v,0.8485266999996384,correct,v
332,4F4K,333,2,38.32060507671844,55.69146611065215,1.109275833792155,57.16794511829146,2,b,0.7143167999997786,correct,b
333,4F4K,334,1,54.65418216393893,45.1865847100681,1.557924657212601,48.08777761896616,2,c,1.327974699999686,incorrect,n
334,4F4K,335,1,49.294197034867615,37.45776401613128,1.3936090627559,41.2614945065168,2,c,1.0487911999998687,incorrect,n
335,4F4K,336,2,61.73417792250387,49.88107444914312,1.805033155971004,52.20952539643228,1,v,0.9592713000001822,correct,v
336,4F4K,337,2,31.05060148490368,49.1526769972626,0.9536409182610146,51.57479747195847,2,v,0.7939087000004292,incorrect,b
337,4F4K,338,2,60.8863463142386,74.12821356760708,1.7734890090832105,70.59357401919671,2,v,0.6973674999999275,incorrect,b
338,4F4K,339,2,36.627669616600855,58.03549596853888,1.0709046913792293,59.09829360790542,2,b,0.994161399999939,correct,b
339,4F4K,340,1,30.47355031175812,53.05337848089777,0.942266141523702,54.943114759580354,1,n,1.1157713000002332,incorrect,c
340,4F4K,341,2,35.61963252245534,28.27669688602625,1.0486905127135362,33.44197361800174,1,v,0.6300277999998798,correct,v
341,4F4K,342,2,50.42129151050264,66.25271111922,1.4266572222150118,65.41033282793781,2,b,0.5503971999996793,correct,b
342,4F4K,343,1,45.19950321290081,60.64526560053576,1.2798591923220533,61.18643338427543,1,c,1.0002404000001661,correct,c
343,4F4K,344,1,59.3648616915374,45.373803980532,1.718257016651581,48.25322137274128,2,n,0.4779899000000114,correct,n
344,4F4K,345,1,24.975902220890596,34.13089023919963,0.8404751482651028,38.369211691936094,1,n,0.7038410000000113,incorrect,c
345,4F4K,346,2,63.39457373361856,50.29401760333042,1.86844385407102,52.56832875594395,1,b,0.7817618999997649,incorrect,v
346,4F4K,347,1,32.00192017173155,54.09471608196362,0.9726937851798452,55.827292341149146,1,c,0.8124853999997868,correct,c
347,4F4K,348,2,34.8697710816041,46.35732294581168,1.0324651835993306,49.12132277520205,2,v,0.9516533000000891,incorrect,b
348,4F4K,349,1,69.38419846120459,58.44276198685584,2.116273302450601,59.42862947649109,2,n,0.6719461000002411,correct,n
349,4F4K,350,1,41.35155204934282,47.8806677988739,1.1814401623667374,50.46141125999714,1,c,1.582883199999742,correct,c
350,4F4K,351,1,43.99145266001055,57.5253579456025,1.248108694168152,58.68232324899244,1,c,0.8196826999997029,correct,c
351,4F4K,352,2,53.38672600348466,47.62261753337516,1.5174003547339725,50.234865755072896,1,b,0.8719550999999228,incorrect,v
352,4F4K,353,1,48.59576653267045,36.3864919808122,1.3735153141501957,40.32488974376513,2,n,0.7575050999998894,correct,n
353,4F4K,354,1,37.5071410447609,52.16316853681938,1.090669678381993,54.18170144067272,1,n,0.44217729999991207,incorrect,c
354,4F4K,355,1,66.43396688853845,56.4756888628911,1.9903456650975213,57.819049761154986,2,c,1.0123303999998825,incorrect,n
355,4F4K,356,2,45.781070292258526,61.36356804838024,1.2954309417190886,61.74859028571085,2,b,0.7270867000001999,correct,b
356,4F4K,357,1,44.05603029453511,59.01013339814043,1.2497858479533617,59.88615621519597,1,n,0.8181407000001855,incorrect,c
357,4F4K,358,1,66.30664689877679,47.66102533724242,1.985083105370549,50.26859752984949,2,n,1.352192599999853,correct,n
358,4F4K,359,1,43.76381332487075,53.18749592772178,1.2422145745666378,55.05739680988332,1,c,1.1214454000000842,correct,c
359,4F4K,360,1,47.91393345418524,42.135373146577926,1.3541785792575112,45.38710696712456,2,n,0.5445096000003105,correct,n
360,4F4K,361,2,54.762390718669806,36.76315572789872,1.56143414281546,40.653704999590616,1,v,2.283507699999973,correct,v
361,4F4K,362,2,58.888264889365416,69.51279555779749,1.7013122460321402,67.67246427544467,2,b,0.6716296999993574,correct,b
362,4F4K,363,1,27.878148233525,41.67498901255672,0.8927600947086366,44.97954107381906,1,c,0.757498900000428,correct,c
363,4F4K,364,1,46.35419364372297,60.22788541136617,1.3109619469376548,60.85719383471809,1,n,0.7513910999996369,incorrect,c
364,4F4K,365,2,56.63540676939496,71.12560413055984,1.6234491569021765,68.73239040122304,2,b,1.7649131999996825,correct,b
365,4F4K,366,2,63.6253149356066,46.63499764418121,1.8774304297370543,49.36604646993903,1,v,0.7286588999995729,correct,v
366,4F4K,367,1,57.23589505203808,37.41432876764562,1.643847939121398,41.2234373319386,2,n,0.751429900000403,correct,n
367,4F4K,368,2,51.72601614345952,41.86520076486409,1.4658936946929193,45.14791462908178,1,b,2.021264500000143,incorrect,v
368,4F4K,369,2,37.43157672219719,48.19761208236156,1.088957237504489,50.73936742408753,2,v,1.4387711999997919,incorrect,b
369,4F4K,370,2,49.72904163189354,70.52016859140033,1.4062676941708243,68.33928627343577,2,v,1.357534100000521,incorrect,b
370,4F4K,371,2,43.7206649326901,27.756845322431985,1.2411005028885134,33.01768525131891,1,v,0.709211200000027,correct,v
371,4F4K,372,2,45.71610685483283,54.85843167952889,1.2936821557004188,56.47091636875753,2,b,0.6360902000005808,correct,b
372,4F4K,373,2,55.30751811164684,67.09680574620958,1.5792346433356417,66.01077357817198,2,b,0.7453040999998848,correct,b
373,4F4K,374,1,56.48500186998455,50.36771606384784,1.6183796184385355,52.63228138649333,2,n,1.45540820000042,correct,n
374,4F4K,375,1,69.88657924610753,55.802251809957866,2.138497287651898,57.260231380727824,2,n,1.1336929999997665,correct,n
375,4F4K,376,2,29.20097937491623,47.7932703022865,0.9176585707231676,50.38470727454326,2,v,2.0029850999999326,incorrect,b
376,4F4K,377,2,41.753330802003305,59.62257771591812,1.1913521530971023,60.376429721035485,2,b,1.3368860999999015,correct,b
377,4F4K,378,2,46.82331409937336,67.51537175411667,1.323813073001213,66.30478159102107,2,b,0.6243061000004673,correct,b
378,4F4K,379,2,51.46195395401227,67.23140044586526,1.4578665036617175,66.10558838072333,2,b,0.5086811000001035,correct,b
379,4F4K,380,1,59.15055110972163,75.23507696029533,1.7106167044046698,71.24120022088012,1,c,0.9209062999998423,correct,c
380,4F4K,381,2,34.0608793079449,49.30297947660986,1.0152439142509733,51.70595365360691,2,v,1.2126783000003343,incorrect,b
381,4F4K,382,1,39.9543097108221,54.860312965546186,1.1476074917101569,56.472496519845045,1,c,1.127671399999599,correct,c
382,4F4K,383,1,40.685292363134,49.14062832823033,1.1651847873527594,51.564279675904025,1,c,0.6315635999999358,correct,c
383,4F4K,384,2,43.4722349996684,56.31322825145882,1.2347055654577102,57.68458534660815,2,b,2.725314599999365,correct,b
384,4F4K,385,2,60.00092919245681,46.3046653102843,1.7411347684975167,49.07489402736925,1,v,1.5843837000002168,correct,v
385,4F4K,386,1,45.87649323346359,67.91698424028377,1.2980039710043914,66.58450929564944,1,c,1.473625799999354,correct,c
386,4F4K,387,1,37.12898269861313,51.43916913550962,1.0821267412750712,53.55899296339532,1,c,0.6233744000001025,correct,c
387,4F4K,388,2,39.502995969912405,50.85537296636681,1.13688779850633,53.05478627471424,2,b,1.3218603000004805,correct,b
388,4F4K,389,1,53.48696277570679,42.15297954662565,1.5205664695715466,45.40269578891753,2,n,0.7210900999998557,correct,n
389,4F4K,390,2,54.30450948073679,71.64078619621283,1.546637699445626,69.06227936530479,2,v,2.136489700000311,incorrect,b
390,4F4K,391,2,60.27911734764858,44.3062631530736,1.7512360038136028,47.30921563408919,1,v,1.3247826999995596,correct,v
391,4F4K,392,1,33.56284061631183,48.23593449716927,1.0047838761556558,50.77295292221945,1,c,0.7362387000002855,correct,c
392,4F4K,393,2,64.0068765192385,51.33611291274153,1.8923858724123717,53.4701176433704,1,b,0.8257481000000553,incorrect,v
393,4F4K,394,1,50.29267004099873,67.91407381897137,1.422846571283205,66.58249058280511,1,n,2.308131400000093,incorrect,c
394,4F4K,395,2,60.7042949209588,45.52198195627381,1.7667878883979709,48.38412494069083,1,b,0.9592814999996335,incorrect,v
395,4F4K,396,1,43.446611700360585,66.62885263332505,1.2340478629836102,65.67913023339094,1,c,1.783125299999483,correct,c
396,4F4K,397,1,47.54224896019164,28.32950561459545,1.343752527963366,33.48521286288067,2,c,2.804030799999964,incorrect,n
397,4F4K,398,2,68.36042392986373,51.167085344752856,2.071696574315077,53.32422564173073,1,b,2.1041157999998177,incorrect,v
398,4F4K,399,1,54.919573365505855,44.91298381016935,1.5665460731744645,47.84590652390448,2,n,0.9691595000003872,correct,n
399,4F4K,400,2,59.48518139524546,43.45969777467399,1.7225614402776983,46.55982468262209,1,v,0.4727501999996093,correct,v
