,condition,trial,sub_task,x,y,xt,yt,cat,resp,rt,acc,correct_resp
0,4F4K,1,2,53.13088940893364,64.08745362012999,1.5093492614733557,64.01148946919818,2,v,1.534223000000111,incorrect,b
1,4F4K,2,2,58.93344507882687,47.83109869214743,1.7029113725181604,50.54728353728649,1,v,0.7818782999997893,correct,v
2,4F4K,3,2,61.10729260024359,50.64464102043703,1.7816559605862765,53.01202660871958,1,v,0.8293317000000116,correct,v
3,4F4K,4,1,36.351050393192025,47.6997600134216,1.0647623855974009,50.43150129935676,1,n,0.9156742999998642,incorrect,c
4,4F4K,5,2,29.600519068481177,52.6314133518757,0.9253144155738716,54.729661561401336,2,v,0.7332742999999482,incorrect,b
5,4F4K,6,1,51.13224726756883,58.38951161934436,1.4479054723644558,59.55253659235749,1,n,0.7446641999999883,incorrect,c
6,4F4K,7,2,46.7405498712661,58.0960393255456,1.321536705450472,59.31351014921359,2,v,0.7020241000000169,incorrect,b
7,4F4K,8,1,65.11494874893665,56.6839802965581,1.936495920953547,58.152275823889816,2,c,0.78103729999998,incorrect,n
8,4F4K,9,2,43.90729357772514,32.01605547275561,1.2459263655162995,36.63219588102627,1,b,0.6849843999998484,incorrect,v
9,4F4K,10,2,51.34075463944592,71.54043458711605,1.4541969141774829,69.2057102234306,2,v,2.044444199999816,incorrect,b
10,4F4K,11,1,35.91426293620013,53.320385577175536,1.0551352126061746,55.31983630713839,1,n,1.63152070000001,incorrect,c
11,4F4K,12,2,39.12378821416501,56.35218835504239,1.1279582322512365,57.876857599332176,2,b,1.2968373000001066,correct,b
12,4F4K,13,1,34.05383642935341,41.947025017595024,1.0150952400849227,45.32791214624401,1,c,1.0674980999999661,correct,c
13,4F4K,14,1,45.09223626788853,59.02976141512772,1.2770075795494251,60.07110353156297,1,c,0.8546764000000167,correct,c
14,4F4K,15,2,42.35849411113597,55.65843892627735,1.20643887583546,57.29800035217406,2,b,1.1945769000001292,correct,b
15,4F4K,16,1,76.81026530821183,61.766197628960086,2.4696523321877404,62.23940410892322,2,c,1.0185715999998592,incorrect,n
16,4F4K,17,1,39.35012106061203,23.73274604193906,1.1332794338730094,29.8678558559197,2,c,1.0974054000000706,incorrect,n
17,4F4K,18,1,44.69614582501437,62.05867536433232,1.2665327429888849,62.46624754391499,1,n,1.2056201000000328,incorrect,c
18,4F4K,19,2,46.79871637723296,64.9175515936059,1.3231361220425424,64.62884307570003,2,v,3.555878899999925,incorrect,b
19,4F4K,20,1,45.13552794277074,66.29885791222993,1.278157691391232,65.63584850226079,1,c,1.1413790000001427,correct,c
20,4F4K,21,1,65.03893766017129,44.772836029334265,1.9334375012948943,47.84003190486322,2,c,2.2285155999998096,incorrect,n
21,4F4K,22,2,62.86203508451578,53.31380645212616,1.8478671663084976,55.31421516254,1,b,1.3098695999999563,incorrect,v
22,4F4K,23,1,64.9972551258622,47.87584501328092,1.9317623934664347,50.58671738917838,2,n,1.4979768999999123,correct,n
23,4F4K,24,2,35.505145119761394,51.25017429775441,1.0461968661541388,53.53783254372874,2,v,1.431335499999932,incorrect,b
24,4F4K,25,2,41.936054272100336,63.04690396365819,1.1958874585702408,63.22523130577815,2,b,1.1944911999999022,correct,b
25,4F4K,26,1,75.9612708283443,65.39181740664563,2.4264348512166447,64.97749850228669,2,c,0.9760066999999708,incorrect,n
26,4F4K,27,1,55.26332835898135,39.714391396186734,1.5777841510356765,43.3457064211103,2,n,1.783276399999977,correct,n
27,4F4K,28,1,66.64450250764871,56.20942268278327,1.999078430927668,57.75806126632693,2,n,0.7515382999999929,correct,n
28,4F4K,29,1,39.65028134584067,24.31433061628448,1.1403750974506297,30.320414560820307,2,c,0.7808405999999195,incorrect,n
29,4F4K,30,1,73.05316119576202,56.268324474611184,2.284050954464381,57.80709462771422,2,n,0.6481412999999066,correct,n
30,4F4K,31,2,59.65995026323563,44.18007607216717,1.7288329905708406,47.31340397376827,1,v,0.9933602999999493,correct,v
31,4F4K,32,1,45.77866666524387,53.21417215146285,1.2953661950836972,55.229053607215945,1,c,1.1823593999999957,correct,c
32,4F4K,33,1,49.88831458553589,35.10985813952904,1.4109329572292564,39.29733066793096,2,c,0.7520515000001069,incorrect,n
33,4F4K,34,1,42.02383821477303,61.9054103936236,1.1980724440440371,62.34750032323551,1,n,1.8378291999999874,incorrect,c
34,4F4K,35,2,53.7027451539226,69.8920003371857,1.5274046856442876,68.1281733659184,2,v,1.686111799999935,incorrect,b
35,4F4K,36,1,57.450164488674005,72.56248608354696,1.6511886220754557,69.85176085033817,1,c,2.12913750000007,correct,c
36,4F4K,37,2,26.89946154576841,46.61968869628999,0.8747749701347576,49.47746121985711,2,b,1.5161491000001206,correct,b
37,4F4K,38,2,37.04378210167776,51.30768901964954,1.0802112383458922,53.58767493206843,2,b,0.8296511999999439,correct,b
38,4F4K,39,1,57.63105645170496,37.33646078944196,1.6574113346210613,41.24572683165533,2,c,0.9265390999998999,incorrect,n
39,4F4K,40,1,42.97537662240901,32.623955858514464,1.2220144109725883,37.15126299359508,2,n,0.612525499999947,correct,n
40,4F4K,41,1,55.54094971790207,42.64289109942033,1.586918999957884,45.94665627499971,2,n,1.8376565999999457,correct,n
41,4F4K,42,1,31.84487958001563,49.52403516285149,0.9695225688888952,52.03426905908894,1,c,0.812447499999962,correct,c
42,4F4K,43,2,50.42500839157075,36.77643423259401,1.426767493339525,40.753750427135,1,b,0.6847680999999284,incorrect,v
43,4F4K,44,2,40.28827193011965,25.973992243972056,1.1556048451751186,31.63258797961207,1,v,1.0367852000001676,correct,v
44,4F4K,45,1,39.75538739380629,56.601764792631926,1.14287024846153,58.084117169693855,1,c,1.1087936999999783,correct,c
45,4F4K,46,2,32.932100455570854,48.054502338289446,0.9916913064497894,50.74409905083654,2,v,0.7705727000000024,incorrect,b
46,4F4K,47,1,30.257541997372517,45.7617019051185,0.9380431932685764,48.71754488326009,1,c,0.8182901000000129,correct,c
47,4F4K,48,1,54.73939064913689,38.56275622986797,1.5606875295796276,42.32672799191811,2,n,1.8381838000000243,correct,n
48,4F4K,49,2,56.55944810393053,37.5380417052744,1.6208869169941773,41.42309024770128,1,b,1.0913898999999674,incorrect,v
49,4F4K,50,2,58.5749909587324,70.88964521225661,1.690265326381771,68.78547414227802,2,v,1.2907603999999537,incorrect,b
50,4F4K,51,1,57.89435288401165,45.08010371757648,1.66651070701568,48.11285712356775,2,c,1.6320479999999407,incorrect,n
51,4F4K,52,1,23.76320778928798,42.03809960228392,0.8195456594230726,45.40888158177562,1,c,0.533040599999822,correct,c
52,4F4K,53,1,50.82039091986908,58.12993350397222,1.4385463720355285,59.34115812569392,1,n,0.5686435999998594,incorrect,c
53,4F4K,54,2,44.433567900126775,30.085561232870887,1.2596361240335203,35.00125381547451,1,b,2.9560381000001144,incorrect,v
54,4F4K,55,1,26.940162597407927,47.83088947333293,0.8755156533295243,50.54709914277002,1,c,3.4475614000000405,correct,c
55,4F4K,56,1,35.48241102130071,49.728317387820766,1.045702401540814,52.21293520639578,1,c,2.0016673000000083,correct,c
56,4F4K,57,2,56.48179038466379,42.211605193467015,1.618271545102851,45.56314759921013,1,v,2.100200300000097,correct,v
57,4F4K,58,2,51.19305325508496,57.19501974218704,1.449737398111826,58.574616463221446,2,v,1.1397551000000021,incorrect,b
58,4F4K,59,1,58.43385114635875,44.17837372797771,1.6853118057042924,47.31189105953652,2,c,1.0670597000000726,incorrect,n
59,4F4K,60,1,44.945812636501046,61.21372419276943,1.2731252681839489,61.8082288426436,1,c,0.7575160999999753,correct,c
60,4F4K,61,1,38.90630452861832,50.132938124765005,1.1228686193633306,52.56627263215046,1,n,2.0077947999998287,incorrect,c
61,4F4K,62,2,38.8551000000089,48.46594253516362,1.1216736608105755,51.106132266794006,2,v,1.9643161999999847,incorrect,b
62,4F4K,63,2,43.92989231556923,24.227385218991568,1.2465119982232309,30.25251184090181,1,b,2.9610722999998416,incorrect,v
63,4F4K,64,1,40.41060743530117,48.55875448748571,1.1585483252919837,51.18771665832805,1,c,1.463011300000062,correct,c
64,4F4K,65,1,60.96174353003657,54.32073796009451,1.7762717387806957,56.17109131952417,2,c,0.9516945999998825,incorrect,n
65,4F4K,66,2,64.15464192887038,47.69020869145771,1.898209540207628,50.42307918087856,1,v,1.3876845999998295,correct,v
66,4F4K,67,1,58.55648202942051,36.49309896615175,1.6896148982426118,40.50530151539374,2,n,2.1662559999999758,correct,n
67,4F4K,68,1,58.87697103545841,67.94482358136774,1.700912741313192,66.80111559048231,1,n,1.7168621999999232,incorrect,c
68,4F4K,69,2,74.77955719813275,58.5183051148654,2.3675365791617917,59.657174616630094,1,v,1.2005624999999327,correct,v
69,4F4K,70,2,62.599002769744025,73.84586682971569,1.8377876566907396,70.63833545080452,2,v,1.686109899999792,incorrect,b
70,4F4K,71,2,62.01927849343971,48.6083784266222,1.8157660781354408,51.23132467477002,1,b,0.7818509999999605,incorrect,v
71,4F4K,72,1,52.50291633999247,42.6193663213672,1.489767805244314,45.92573640985156,2,n,3.952188200000137,correct,n
72,4F4K,73,2,49.68355807244545,40.77477112938343,1.4049382693055028,44.28632992841848,1,v,1.534325299999864,correct,v
73,4F4K,74,2,50.91365368945797,30.701626079602576,1.4413389164018542,35.518684414885975,1,v,1.472843199999943,correct,v
74,4F4K,75,2,51.06698970919842,38.426690228001526,1.4459420076005125,42.20655770963263,1,v,1.4190622000000985,correct,v
75,4F4K,76,1,49.14188907464453,58.95100735795256,1.3892022690331352,60.00753536344035,1,c,1.3219695999998748,correct,c
76,4F4K,77,1,50.13715765816668,60.60211938493232,1.418252817181902,61.32691015861602,1,c,1.2543453000000682,correct,c
77,4F4K,78,1,24.066112869264057,44.63010206514316,0.8247240511212648,47.713256716772825,1,n,0.8789328000000296,incorrect,c
78,4F4K,79,1,50.9340574614981,36.091792643987695,1.441950583931796,40.1539692401575,2,c,1.8256874999999582,incorrect,n
79,4F4K,80,1,44.45464588287084,53.45716308139053,1.2601883490125212,55.436632582707645,1,n,0.6240493000000242,incorrect,c
80,4F4K,81,1,63.03649378796737,51.11170484277933,1.854582971700116,53.41776234920868,2,c,1.7709123999998155,incorrect,n
81,4F4K,82,2,44.145896836802685,29.062935020482165,1.2521235340903685,34.149140900190645,1,b,1.4300321999999142,incorrect,v
82,4F4K,83,1,34.417274006725464,45.17863827601596,1.0227958558424783,48.20031901687837,1,c,3.4899921999999606,correct,c
83,4F4K,84,1,53.95000318499216,64.09797141002524,1.5352781923294163,64.0193673217636,1,n,2.264109499999904,incorrect,c
84,4F4K,85,1,44.72490096378509,55.8680803172834,1.2672902880206611,57.47333990100776,1,c,1.4494583000000603,correct,c
85,4F4K,86,2,38.851070809920834,49.44327117503058,1.1215796857095943,51.963583192536255,2,b,4.156142499999987,correct,b
86,4F4K,87,1,70.28830142644296,57.33800431619687,2.156436214125064,58.69236886694286,2,n,3.2967611999999917,correct,n
87,4F4K,88,2,47.060448426058656,58.91019354863295,1.330357008573518,59.97456721875863,2,b,1.7518240000001697,correct,b
88,4F4K,89,2,32.10384273287117,46.0925668793879,0.9747575181025994,49.01077576124094,2,b,0.8789827000000514,correct,b
89,4F4K,90,1,33.49879096657065,23.204175240969786,1.0034465203995262,29.459965316651637,2,c,2.1282492000000275,incorrect,n
90,4F4K,91,1,44.05984254447419,63.87324513282005,1.2498849267900218,63.85074030369721,1,n,3.884509999999864,incorrect,c
91,4F4K,92,2,38.76545920415942,53.524294193010434,1.119584777232722,55.493911006434125,2,b,3.7934801999999763,correct,b
92,4F4K,93,1,69.41269044344202,52.80363054355908,2.1175275111083134,54.87746675622684,2,n,1.2855354999999236,correct,n
93,4F4K,94,1,69.76597047953646,59.63753728743957,2.1331406803796256,60.55957487998431,2,n,1.3584140999998908,correct,n
94,4F4K,95,2,65.5438209501961,52.21931834100297,1.9538431131163,54.375241228303146,1,v,1.50398969999992,correct,v
95,4F4K,96,2,43.33517198585432,59.91761142410952,1.2311914854562669,60.78339169878506,2,b,0.9942234000000099,correct,b
96,4F4K,97,2,30.48164072549561,46.36922969185747,0.942424677402986,49.255796110448365,2,b,0.6597507999999834,correct,b
97,4F4K,98,1,57.546642146430855,74.85648576803703,1.6545045559950555,71.23792919053518,1,n,2.6706959999996798,incorrect,c
98,4F4K,99,1,71.98939602673316,59.02703097745808,2.234081599183208,60.06890063251522,2,n,2.9923994999999195,correct,n
99,4F4K,100,2,38.17297155749646,57.13596289464573,1.10587563132083,58.5259277693417,2,b,1.2748907000000145,correct,b
100,4F4K,101,2,45.87860041266857,26.17418036302717,1.2980608476170294,31.792851181165485,1,v,2.238746800000172,correct,v
101,4F4K,102,1,42.19363927713405,62.36135284430015,1.2023102117983675,62.69994844832457,1,c,2.100257000000056,correct,c
102,4F4K,103,1,56.12256759405716,37.79005117240317,1.6062283713257188,41.6450178808684,2,n,1.649755599999935,correct,n
103,4F4K,104,1,54.91485917476668,65.74736839548262,1.5663925140059258,65.23690259284078,1,c,0.9881565999999111,correct,c
104,4F4K,105,2,50.98953581919789,38.01426458549098,1.4436150357319548,41.84264100617947,1,v,1.59496130000025,correct,v
105,4F4K,106,2,70.93136863619996,63.11545327032371,2.185466189750469,63.27744207205927,1,v,1.0732242999997652,correct,v
106,4F4K,107,2,51.80846220386773,69.72129038765559,1.4684090042156364,68.01413883300401,2,b,0.727300699999887,correct,b
107,4F4K,108,1,69.24372852596409,52.49835904659474,2.110100708333445,54.61534182515868,2,n,2.719272500000443,correct,n
108,4F4K,109,2,47.49405603319168,40.948280693200175,1.342406569308398,44.44040733364962,1,b,3.034808399999747,incorrect,v
109,4F4K,110,1,44.90212431470287,36.954617924611405,1.271969193320147,40.91015561217333,2,n,2.6585759000004145,correct,n
110,4F4K,111,1,37.20852929298348,49.66078583842512,1.083918195329359,52.1538918076176,1,n,1.1458714000000327,incorrect,c
111,4F4K,112,1,53.92338143695586,36.96025529825359,1.5344285225692844,40.91510593289264,2,c,1.7650463999998465,incorrect,n
112,4F4K,113,2,60.68795505347256,67.40679918094175,1.76618767473179,66.4244880381777,2,v,5.0,incorrect,b
113,4F4K,114,2,69.43037406974972,54.23642897147934,2.1183063129286444,56.09961891350374,1,v,0.36914459999979954,correct,v
114,4F4K,115,1,68.7596458743311,57.60316634481183,2.0889665284058503,58.91024836031888,2,n,0.8304174999998395,correct,n
115,4F4K,116,1,45.2289299780796,53.994124304555214,1.280642593667899,55.893923814230725,1,n,1.5707977000001847,incorrect,c
116,4F4K,117,2,31.315948700003315,52.07869277690769,0.958917404865692,54.25406372537322,2,b,0.878307599999971,correct,b
117,4F4K,118,1,56.03304496540182,44.28683897859343,1.6032410450271255,47.408281683566265,2,n,2.001714699999866,correct,n
118,4F4K,119,1,49.92697336069133,39.14086984361495,1.412067643387932,42.83785331528228,2,c,0.5634303000001637,incorrect,n
119,4F4K,120,1,44.15377119710467,58.511805960768456,1.252328576989374,59.65189824234978,1,n,1.5040744000002633,incorrect,c
120,4F4K,121,2,59.943444727830496,48.25673421754519,1.739054736325178,50.92211947437576,1,v,1.4675292000001718,correct,v
121,4F4K,122,1,69.74896327195735,45.48969127493734,2.132386418023569,48.47632003515185,2,c,0.5390578999999889,incorrect,n
122,4F4K,123,1,41.51279335195,31.996263716477863,1.1854080834368372,36.615338141605015,2,n,1.7710861999998997,correct,n
123,4F4K,124,2,56.75706196277427,66.58697043073292,1.627561274299351,65.84259470354338,2,v,1.4980060000002595,incorrect,b
124,4F4K,125,2,48.552805052209735,68.64806998366191,1.3722888199902827,67.28698991026985,2,b,0.5451352000000043,correct,b
125,4F4K,126,1,61.31677130846971,56.76250930032183,1.7894337589846676,58.217323710453655,2,n,1.6377908999997999,correct,n
126,4F4K,127,2,70.34124124679052,60.711696725293365,2.15881143972026,61.413448289506015,1,v,1.4978206999999202,correct,v
127,4F4K,128,2,41.13444994404402,56.50650591365837,1.1761185585847325,58.005072581970936,2,b,0.8486954999998488,correct,b
128,4F4K,129,1,42.57302592328946,58.54375695907172,1.2118328990113707,59.67783388544371,1,c,1.2673647000001438,correct,c
129,4F4K,130,1,44.11581893828699,25.72067729139654,1.2513406353837295,31.43039203658728,2,c,1.6442599000001792,incorrect,n
130,4F4K,131,2,45.865857103235726,55.64620369427679,1.297716920471792,57.28775610432871,2,b,2.025878399999783,correct,b
131,4F4K,132,1,78.99345708525892,61.930796837276205,2.5843540202582367,62.36718822728355,2,n,1.4129620000003342,correct,n
132,4F4K,133,1,56.63437727494495,42.988808307953306,1.6234144029044166,46.25427424845671,2,n,1.29075899999998,correct,n
133,4F4K,134,2,42.81618565608,64.17171292261335,1.2179758853583464,64.07456019667228,2,b,0.7102644000001419,correct,b
134,4F4K,135,1,54.24332725531905,68.0157124311068,1.5446712429560874,66.85042422145051,1,n,0.9637874000000011,incorrect,c
135,4F4K,136,1,49.205634856236514,56.11429987558412,1.3910449558248037,57.67881414188708,1,c,1.0427386999999726,correct,c
136,4F4K,137,1,36.85795820999879,21.18477760728583,1.0760452490477703,27.93301236573759,2,c,1.1097721000001002,incorrect,n
137,4F4K,138,1,60.06272240013013,44.159148287050215,1.743373483953878,47.29480477763121,2,n,0.8307475000001432,correct,n
138,4F4K,139,1,40.48001275488261,54.41542605029426,1.1602215992877531,56.25130124002049,1,c,0.733335100000204,correct,c
139,4F4K,140,1,49.65438822693633,39.68413022635346,1.404086334465962,43.31889252456862,2,c,1.000369700000192,incorrect,n
140,4F4K,141,2,62.18363795473152,71.36282346747687,1.8219825459809151,69.09169837085645,2,b,4.635991199999808,correct,b
141,4F4K,142,2,53.26580699008857,60.890943205043534,1.5135897350833796,61.55472333839474,2,b,2.421913300000142,correct,b
142,4F4K,143,1,65.46229372386824,54.80214386786457,1.950533547534984,56.57820443877973,2,n,1.1763494000001629,correct,n
143,4F4K,144,2,46.875113885905634,56.91802626966663,1.3252397815767258,58.3459845168896,2,v,1.0427733999999873,incorrect,b
144,4F4K,145,2,60.35654764665446,71.96075463831907,1.7540579713216595,69.47347702207718,2,v,0.6655095000000983,incorrect,b
145,4F4K,146,1,37.7667037280494,46.67904034316813,1.096572433682814,49.52996771457662,1,c,1.6426517999998396,correct,c
146,4F4K,147,1,45.48600510975248,59.23704893065939,1.2875068904443376,60.23812301555716,1,c,0.6846945000002052,correct,c
147,4F4K,148,2,41.74002487630383,50.69217829123762,1.1910225647237842,53.053372532143854,2,b,1.886358900000232,correct,b
148,4F4K,149,1,56.87578131588475,65.43164711684601,1.6315841977307572,65.00664246029676,1,n,1.8005726000001232,incorrect,c
149,4F4K,150,1,64.95138242937654,48.00220396941637,1.9299205718187125,50.698039544138986,2,n,1.1398035000001983,correct,n
150,4F4K,151,1,54.44724899835603,36.74553991164696,1.5512352257746276,40.726644623915966,2,c,0.9517894000000524,incorrect,n
151,4F4K,152,2,67.0507474338408,53.28084462378268,2.0160374281475546,55.2860485671984,1,b,0.8112364000003254,incorrect,v
152,4F4K,153,1,43.51138940778497,56.85945885170459,1.2357112634810623,58.29755590328319,1,c,1.231330699999944,correct,c
153,4F4K,154,1,58.88080074107989,73.73876947456024,1.7010482014267674,70.5737638790991,1,n,2.4583112000000256,incorrect,c
154,4F4K,155,2,55.71990550538207,43.91030303972165,1.5928353728744675,47.07362154733946,1,b,0.7150915000001987,incorrect,v
155,4F4K,156,2,37.27647259615663,50.76032214955916,1.0854506820153775,53.11262150414283,2,v,1.1460102999999435,incorrect,b
156,4F4K,157,2,52.42955152150098,63.80536774104156,1.4874967802456691,63.799681449439205,2,b,1.8439441000000443,correct,b
157,4F4K,158,2,41.49864755392582,24.186482103358703,1.185059442660496,30.22059701640596,1,v,2.0080119999997805,correct,v
158,4F4K,159,1,53.559769231739,42.35314178544772,1.52287030160323,45.6889989793971,2,n,2.415794300000016,correct,n
159,4F4K,160,2,61.70671938055779,36.830457362676334,1.804002804512746,40.80115770144692,1,v,1.2309355000002142,correct,v
160,4F4K,161,2,47.32020359321236,57.62125610706089,1.337562316615598,58.92508902454993,2,v,1.9286643999998887,incorrect,b
161,4F4K,162,1,52.20451930439592,34.43556801087858,1.4805524282912803,38.71180201000707,2,n,0.9760003999999753,correct,n
162,4F4K,163,2,66.82604712284153,53.162940607921456,2.006639443051504,55.185238512797255,1,v,1.3584422999997514,correct,v
163,4F4K,164,1,49.510412238138045,65.97444981852594,1.399888931703877,65.40167860640902,1,n,2.337133900000026,incorrect,c
164,4F4K,165,1,53.557936177380384,42.70062060116166,1.5228122550147989,45.99799365994532,2,c,1.1886893999999302,incorrect,n
165,4F4K,166,1,67.5167296997857,54.10265172668264,2.035667437834748,55.98610550997076,2,n,1.4978274000000056,correct,n
166,4F4K,167,2,31.43514478673891,39.42050570688515,0.961297137957564,43.08538025571819,2,v,1.8687231000003521,incorrect,b
167,4F4K,168,2,50.3500250406506,60.61905146050783,1.4245445610878975,61.34029074013566,2,v,0.7093234999997549,incorrect,b
168,4F4K,169,2,30.329955704283893,46.24425639422776,0.9394567633791414,49.14513680350946,2,v,1.8317692000000534,incorrect,b
169,4F4K,170,1,52.347565402199535,71.07397373341497,1.4849629767634036,68.90519255391607,1,n,4.379918400000406,incorrect,c
170,4F4K,171,1,60.89987525906575,48.29836201428732,1.77398800872457,50.95874616536512,2,c,2.6099512999999206,incorrect,n
171,4F4K,172,1,62.33168624506935,77.87383765804499,1.827600303642211,72.92061175851073,1,n,2.4453629999998157,incorrect,c
172,4F4K,173,2,67.85083031915134,46.80942105656849,2.0498593303843275,49.64528082787192,1,b,1.0970225999999457,incorrect,v
173,4F4K,174,2,70.06339364849188,52.72643990138279,2.146374484495813,54.811240915342005,1,v,1.783090699999775,correct,v
174,4F4K,175,2,44.80912842074229,59.36962204496022,1.269511842107431,60.34471442638106,2,b,0.6361830999999256,correct,b
175,4F4K,176,2,36.280591617176206,55.11118134293953,1.063203492275311,56.83863521560789,2,b,0.7150018000002092,correct,b
176,4F4K,177,2,38.61057715132665,53.04157990625367,1.115984751356906,55.08137820381164,2,b,0.6242224999996324,correct,b
177,4F4K,178,1,54.31650173613787,42.322154356498544,1.547023435584019,45.66144498678816,2,n,1.6315309999999954,correct,n
178,4F4K,179,1,55.72044144671534,72.9325740031397,1.5928531244653332,70.08143296925834,1,n,1.0306504000000132,incorrect,c
179,4F4K,180,2,58.45500384427124,46.93807493596513,1.6860532666203902,49.75902443337534,1,b,1.164190200000121,incorrect,v
180,4F4K,181,2,40.38523559206934,58.66734625729336,1.1579372449280745,59.778061561991535,2,b,1.1095068999998148,correct,b
181,4F4K,182,1,51.74857011775424,69.18841430662408,1.4665813552567564,67.65528711480931,1,n,2.6403972000002796,incorrect,c
182,4F4K,183,2,62.01281677755354,53.969337820612274,1.815522114388073,55.872858868267,1,v,0.841454700000213,correct,v
183,4F4K,184,2,47.56930307024601,40.11042639509503,1.3445087014218091,43.69678986979238,1,b,0.7332838000002084,incorrect,v
184,4F4K,185,1,33.5217347890718,45.02212592398737,1.003925382346626,48.06138797405618,1,c,1.7955455999999685,correct,c
185,4F4K,186,2,44.75654195079397,58.28165951970177,1.2681243834203828,59.46478927222388,2,b,1.20098199999984,correct,b
186,4F4K,187,2,38.638718940478896,52.13593353848543,1.1166380078876357,54.30340234873157,2,b,0.5698531000002731,correct,b
187,4F4K,188,2,41.37714530564622,55.734754962755886,1.1820690883859706,57.36187062273687,2,b,0.660463400000026,correct,b
188,4F4K,189,1,46.58332175239215,29.53396818439616,1.3172230405764551,34.540551279629014,2,c,1.607243500000095,incorrect,n
189,4F4K,190,1,50.599682995895,34.88491954672262,1.4319593018159615,39.1017432618319,2,n,1.2127353999999286,correct,n
190,4F4K,191,1,47.12701977693618,39.298070841979474,1.3321999134608178,42.97698180756066,2,c,0.8051907999997638,incorrect,n
191,4F4K,192,2,46.614322400318656,66.73396979929002,1.3180724494521092,65.94763210271181,2,b,0.8295782000000145,correct,b
192,4F4K,193,1,51.96160169546514,60.09241077438973,1.4730925269517428,60.92266271440823,1,c,1.4009169000000838,correct,c
193,4F4K,194,2,47.03338581300434,62.03585251812336,1.3296085591615765,62.448582130220345,2,b,0.6839055000000371,correct,b
194,4F4K,195,1,44.46523559355392,65.5237248260153,1.2604658816667265,65.07393527286513,1,c,1.7094742000003862,correct,c
195,4F4K,196,1,47.62384326970236,58.61555320723833,1.3460344161958198,59.736076919180334,1,c,1.267340200000035,correct,c
196,4F4K,197,1,64.47294200229383,52.44305617921235,1.9108152024717016,54.56779388084622,2,n,0.7887563000003865,correct,n
197,4F4K,198,1,60.40746120227751,40.45928546603058,1.75591600680678,44.00628254057585,2,n,0.9882222000001093,correct,n
198,4F4K,199,2,34.17829268257447,50.00795255563879,1.01772570386737,52.45720743604983,2,b,0.5207579000002625,correct,b
199,4F4K,200,2,66.09827424276119,53.49228649168485,1.9765003728131785,55.46660478705025,1,b,1.8014297999998234,incorrect,v
200,4F4K,201,1,51.9619888444567,42.82465299659798,1.473104386185311,46.10829350443554,2,n,2.500003000000106,correct,n
201,4F4K,202,1,28.670147555516493,39.20084142315983,0.907584846697876,42.89092348602165,1,c,2.203960400000142,correct,c
202,4F4K,203,1,80.25914667630718,61.05300390299933,2.653275345995177,61.68214758453048,2,n,0.860732999999982,correct,n
203,4F4K,204,1,40.653647877457374,58.11452507567205,1.164418314668879,59.32859059608529,1,c,0.6179458999999952,correct,c
204,4F4K,205,1,60.10863350660459,44.504543363480224,1.74503866798478,47.60171721103493,2,n,0.47142230000008567,correct,n
205,4F4K,206,2,65.2723118607448,47.53596255454906,1.9428430451492693,50.28703003646592,1,v,0.8305406999998013,correct,v
206,4F4K,207,1,60.98413879093232,44.40372099866192,1.7770991347037153,47.51213997635707,2,n,1.0246337000003223,correct,n
207,4F4K,208,1,64.45128671295936,45.93322442642172,1.909954938738079,48.86958460008744,2,n,0.6604599000002054,correct,n
208,4F4K,209,1,58.42998906091048,52.660566605857895,1.6851764640694598,54.75469531798438,2,c,0.6603951999995843,incorrect,n
209,4F4K,210,2,60.51355387313096,66.99976648591758,1.759794070883775,66.13678120821312,2,b,0.9821262000000388,correct,b
210,4F4K,211,2,45.90958157309704,23.46560931881029,1.2988973734337408,29.66129839916974,1,v,1.8976031000001967,correct,v
211,4F4K,212,2,46.88401873448121,64.38290644247425,1.3254852004335582,64.2322448063247,2,b,0.8607268999999178,correct,b
212,4F4K,213,2,34.8195488390604,48.09946416894499,1.0313874994977013,50.78368994738355,2,b,1.6252752999998847,correct,b
213,4F4K,214,2,40.30490538217323,58.09445399955078,1.1560046182772352,59.31221670907676,2,b,1.249162499999784,correct,b
214,4F4K,215,1,39.18430387096992,48.24051870297417,1.1293785344825185,50.90785044550348,1,c,0.7697001000001364,correct,c
215,4F4K,216,1,45.85106601034572,65.06972085731569,1.297317840290512,64.74103584604104,1,n,0.9629676999998082,incorrect,c
216,4F4K,217,1,52.45474836653118,67.58878564868098,1.4882763638470156,66.55235272286696,1,c,0.7218963000000258,correct,c
217,4F4K,218,2,43.81864279650368,54.52738895445505,1.2436316892573211,56.34606022401222,2,b,1.5950243000002047,correct,b
218,4F4K,219,2,53.59892471781679,41.08306134136917,1.5241107510490302,44.5601189123238,1,b,0.8234682999996039,incorrect,v
219,4F4K,220,2,77.76398446114882,65.39431802212945,2.5191194523515485,64.9793288649345,1,v,0.8485826000000998,correct,v
220,4F4K,221,1,73.83683252458559,58.12114165835562,2.321576748988463,59.33398753527975,2,n,2.0623828999996476,correct,n
221,4F4K,222,1,56.12393174343909,34.750427408163176,1.6062739353525397,38.98492267447755,2,n,2.179136700000072,correct,n
222,4F4K,223,2,58.49849842696872,42.869479150255096,1.6875788979112352,46.14815676380742,1,v,0.8789588000004187,correct,v
223,4F4K,224,1,32.41683413038017,50.54602092188183,0.9811223915647104,52.92621529227458,1,c,1.0493077999999514,correct,c
224,4F4K,225,1,49.38909768130751,67.56563644073525,1.396361931076309,66.53611455937542,1,c,0.8307276999998976,correct,c
225,4F4K,226,1,62.79125194623367,43.64676283158794,1.8451493024413943,46.83933137770569,2,n,0.8302997999999207,correct,n
226,4F4K,227,2,52.33882147153132,37.64609045554473,1.4846929980241912,41.51821555359653,1,v,1.563802200000282,correct,v
227,4F4K,228,2,55.17026622480616,40.478010703297386,1.574733818667281,44.02290030450357,1,v,1.053958099999818,correct,v
228,4F4K,229,2,58.436007500695496,41.30924292784827,1.6853873769954515,44.76105814047894,1,v,0.6058537999997498,correct,v
229,4F4K,230,1,43.78678218730184,35.187441170451265,1.2428080278563878,39.36484856111949,2,c,0.757618900000125,incorrect,n
230,4F4K,231,1,57.107492057238055,38.65556679475154,1.6394646124092451,42.4087254359571,2,n,1.3705412999997861,correct,n
231,4F4K,232,1,39.36362730446774,53.67070853139592,1.13359776514024,55.618730707679376,1,c,1.2793150999996215,correct,c
232,4F4K,233,2,49.06238446289433,66.5274342572596,1.3869074651757696,65.79996724888659,2,v,2.025215399999979,incorrect,b
233,4F4K,234,1,66.5893924511943,53.22049073092461,1.9967888363805408,55.23445629761027,2,n,0.9032366999999795,correct,n
234,4F4K,235,2,29.19120175402116,51.20623242528632,0.9174720114307852,53.49974050427098,2,b,2.013067400000182,correct,b
235,4F4K,236,2,52.9735112071668,66.54009222024968,1.5044178572651716,65.80903441026352,2,v,0.7333213000001706,incorrect,b
236,4F4K,237,2,52.66915717737919,42.42381025597469,1.494926666960362,45.75183845001387,1,v,1.6254046999997627,correct,v
237,4F4K,238,2,55.983972238249535,44.3614723596783,1.6016058703006284,47.47460045882785,1,v,1.4797897000003104,correct,v
238,4F4K,239,1,50.8483369277635,36.12373984312856,1.439382584340884,40.18191314858006,2,n,0.8910858999997799,correct,n
239,4F4K,240,2,50.90153837292553,38.18114327530407,1.4409758442920435,41.98983059731632,1,v,1.0731189999996786,correct,v
240,4F4K,241,1,50.667385618407785,37.46743945515431,1.433976686066825,41.36095398720612,2,n,1.9772330999999213,correct,n
241,4F4K,242,1,45.43123110770124,35.73793876078851,1.2860412634827043,39.84475620404597,2,n,0.6240460000003623,correct,n
242,4F4K,243,2,50.42580351372399,37.64157392318895,1.426791083851476,41.51423844672384,1,v,1.011583999999857,correct,v
243,4F4K,244,2,46.26640493306047,38.85881272774074,1.3085709494108662,42.58837206133425,1,b,0.8788942999999563,incorrect,v
244,4F4K,245,1,68.70624038086098,56.38626370931745,2.0866479435125624,57.90518654837614,2,n,0.6352916000000732,correct,n
245,4F4K,246,2,66.11674525894233,43.9383366794401,1.9772596805284683,47.09854120367952,1,v,0.5754674999998315,correct,v
246,4F4K,247,2,61.03669452293931,53.30865204398134,1.7790423270667417,55.30981108298056,1,v,0.818612099999882,correct,v
247,4F4K,248,2,63.367647979156,51.2214574463609,1.8673979952283704,53.51293983413992,1,v,0.5329802999999629,correct,v
248,4F4K,249,1,51.87365266887497,32.53606163290327,1.4704009257701105,37.07606151472115,2,n,0.5512408999998115,correct,n
249,4F4K,250,1,52.2367375273129,39.33523983584197,1.4815446702240591,43.009886035829766,2,n,0.7700567000001683,correct,n
250,4F4K,251,1,42.213430653844256,63.97329895835577,1.2028051245307725,63.9258966038058,1,c,0.7212039000000914,correct,c
251,4F4K,252,2,61.443243195085415,76.06130348620357,1.7941460005078544,71.9293895050045,2,v,0.7878725999999006,incorrect,b
252,4F4K,253,1,59.25267652421421,45.49053885057009,1.7142532955792014,48.47707188435268,2,n,0.903082600000289,correct,n
253,4F4K,254,1,40.37114660554993,53.23857898401429,1.1575980511510071,55.24992117832158,1,n,0.557303999999931,incorrect,c
254,4F4K,255,2,72.88288990494438,54.91488316439545,2.275978133744946,56.67329581324545,1,b,1.5031902999999147,incorrect,v
255,4F4K,256,2,52.71812476385499,30.206451129620294,1.4964496547912178,35.10255316679309,1,v,0.696871099999953,correct,v
256,4F4K,257,2,53.65003125089694,38.02682436875653,1.525731330965435,41.85371595948064,1,v,0.5089038999999502,correct,v
257,4F4K,258,1,39.30263717751584,51.97723296973752,1.1321609864919615,54.16656345846757,1,c,2.2626646000003348,correct,c
258,4F4K,259,1,44.449967060129545,38.40117435061559,1.2600657469881709,42.18402849546085,2,n,0.8488571000002594,correct,n
259,4F4K,260,2,47.302238213481466,30.987377879776325,1.3370627239861288,35.759680510443715,1,v,1.9167069000000083,correct,v
260,4F4K,261,1,38.56220440349028,55.41520276386496,1.1148627656401344,57.09412054221227,1,c,1.3401042000000416,correct,c
261,4F4K,262,2,29.790611205113205,50.20022745164717,0.9289792877372268,52.62496084772267,2,b,1.4008742000000893,correct,b
262,4F4K,263,2,60.26928848374217,50.21699097097749,1.750878113178938,52.63957831398515,1,v,1.4190671000001203,correct,v
263,4F4K,264,2,42.02214257786403,29.55223675832524,1.1980302010200388,34.5557694724635,1,v,0.9396507999999812,correct,v
264,4F4K,265,2,54.34776118486618,47.59714798538968,1.5480293616953515,50.34100586062646,1,v,1.5953519999998207,correct,v
265,4F4K,266,2,46.07973648688494,59.60194830278946,1.3035013658777808,60.531076087820814,2,b,0.9760662999997294,correct,b
266,4F4K,267,2,64.33361169079653,52.8618547373113,1.9052870243921147,54.927395463445336,1,b,1.049394200000279,incorrect,v
267,4F4K,268,1,37.59675189344284,59.39859664627873,1.0927039326781316,60.36798674860651,1,c,1.1156593999999131,correct,c
268,4F4K,269,2,35.48992133561297,50.32393988660875,1.0458657243521547,52.73280452580689,2,b,1.333183100000042,correct,b
269,4F4K,270,1,56.75518823589563,45.3963960018456,1.6274978607751551,48.39355432848146,2,c,1.1398877999999968,incorrect,n
270,4F4K,271,2,64.13527232450815,48.69323560645455,1.8974451340830591,51.30587355758619,1,v,1.2309744000003775,correct,v
271,4F4K,272,2,71.77593252353563,60.06844864340055,2.224186825790891,60.90359004393278,1,b,1.3219702000001234,incorrect,v
272,4F4K,273,2,50.75313735549417,60.709311469300026,1.4365359731093403,61.4115659439673,2,v,1.6315304999998261,incorrect,b
273,4F4K,274,2,40.93206003454053,57.73908082930271,1.1711791709070365,59.02167748421141,2,b,1.0488549000001512,correct,b
274,4F4K,275,1,60.70394102436116,46.696984765632045,1.7667748865250028,49.54584087416089,2,n,0.666518399999859,correct,n
275,4F4K,276,2,39.05016495537647,22.854201523458148,1.1262327028206975,29.191725662101472,1,v,1.5707861000000776,correct,v
276,4F4K,277,1,33.191729036516975,50.09477922992313,0.9970597524466308,52.53298196284027,1,c,1.2430504000003566,correct,c
277,4F4K,278,1,41.48594029166276,55.9871372453985,1.1847463438148025,57.57275718950019,1,c,1.6671775999998317,correct,c
278,4F4K,279,1,42.708085843074784,32.93435295223473,1.215241105829019,37.41723362189839,2,c,0.9031984999996894,incorrect,n
279,4F4K,280,1,58.92429053630635,42.10366186950056,1.7025872314405683,45.46717214170332,2,n,1.2547896999999466,correct,n
280,4F4K,281,1,25.92990675382859,39.320157658237,0.8573149475805484,42.99653400704658,1,n,2.5500169000001733,incorrect,c
281,4F4K,282,2,45.39830585877822,58.95175527939169,1.2851610621487792,60.00813935671917,2,b,1.7589232000000266,correct,b
282,4F4K,283,2,50.70775687918486,43.42131336533154,1.435181010301868,46.63887587191481,1,v,1.0002783999998428,correct,v
283,4F4K,284,2,65.39585805184583,53.50038359265296,1.9478407635236128,55.47351318955066,1,v,0.6118783000001713,correct,v
284,4F4K,285,2,27.701197758677363,46.28334568266918,0.8894811472945443,49.17975265371055,2,b,1.4796919000000344,correct,b
285,4F4K,286,1,36.24515721099856,59.33034222964885,1.0624203723450003,60.31315131022374,1,c,1.0305994000000283,correct,c
286,4F4K,287,2,55.82776464429512,43.30817284636914,1.596411901289908,46.53827102071259,1,v,1.9592327000000296,correct,v
287,4F4K,288,1,54.86754519224189,42.87142511330435,1.5648521505972484,46.14988728106125,2,n,0.8788595999999416,correct,n
288,4F4K,289,1,34.89203757490252,51.51516765055874,1.0329433449886254,53.76732770033251,1,c,1.5343465999999353,correct,c
289,4F4K,290,2,44.57364823658798,29.24380656431763,1.2633106530243603,34.299215154372185,1,v,1.0550640999999814,correct,v
290,4F4K,291,1,46.31694136883908,60.224436465212,1.309946817550388,61.02763916831178,1,c,2.8233885999998165,correct,c
291,4F4K,292,1,46.52538570382835,32.5544836270181,1.315637076576757,37.091819033328754,2,n,1.3893361999998888,correct,n
292,4F4K,293,2,40.86477132699084,55.79134477142178,1.169541568609231,57.4092012746555,2,b,1.5041745999997147,correct,b
293,4F4K,294,2,61.09429205761859,76.8352977044984,1.7811743751570903,72.35994963222522,2,v,0.5937297999998918,incorrect,b
294,4F4K,295,1,57.80391956991456,37.875161645496966,1.6633797652672937,41.720015967564144,2,n,1.649716399999761,correct,n
295,4F4K,296,1,33.16965080689239,51.03439139251674,0.9966021035094448,53.35067805501454,1,c,1.4740614000002097,correct,c
296,4F4K,297,2,73.35858864550514,63.08813599940953,2.298603549436947,63.2566426922717,1,v,2.404642099999819,correct,v
297,4F4K,298,1,51.207530863129215,62.63614960817732,1.450173912182436,62.91118198860982,1,c,1.6681072999999742,correct,c
298,4F4K,299,2,65.80049516410456,48.143605584087226,1.9642994161224847,50.82255183006611,1,v,1.7469148000000132,correct,v
299,4F4K,300,1,34.20712479716893,51.31990379163062,1.0183360611782597,53.59825799509905,1,n,1.2491227000000436,incorrect,c
300,4F4K,301,2,40.535077545444295,34.66843786154711,1.1615508604618323,38.91375183925818,1,v,0.9264507000002595,correct,v
301,4F4K,302,2,45.4971772925208,60.323181830136704,1.2878060375174052,61.10603206242556,2,b,1.570777899999939,correct,b
302,4F4K,303,1,41.12062451186714,60.29231475290872,1.1757804827661686,61.08153824348168,1,n,0.9519832000000861,incorrect,c
303,4F4K,304,2,60.31163205922904,68.12139155260095,1.7524204576144935,66.92379496994603,2,v,0.6483428999999887,incorrect,b
304,4F4K,305,1,39.182064304770215,49.261798258821386,1.129325940018145,51.8046557237762,1,c,2.633414299999913,correct,c
305,4F4K,306,2,61.56620503313317,40.080894947836335,1.7987393573950017,43.67060032189984,1,v,1.4554527000000235,correct,v
306,4F4K,307,2,56.769328239479975,51.30571058682844,1.6279764693902228,53.585960712444816,1,v,0.551196599999912,correct,v
307,4F4K,308,1,62.33690892817137,49.98883213631847,1.8277987966419684,52.44051621374718,2,n,1.2066487999995843,correct,n
308,4F4K,309,2,54.75074150271223,32.86535668459649,1.5610559489470863,37.3580596128257,1,v,2.336964099999932,correct,v
309,4F4K,310,1,43.65966103187977,59.771990421543855,1.2395271148554403,60.66712310158708,1,c,1.5283664000003228,correct,c
310,4F4K,311,2,61.78111747944872,50.84128861388929,1.8067958740385492,53.18298892110516,1,v,0.9872517000003427,correct,v
311,4F4K,312,2,52.33124232520132,61.45224918863866,1.4844590230299008,61.99481052693152,2,b,0.854393600000094,correct,b
312,4F4K,313,1,63.23745200360438,45.48412629706832,1.8623491343562644,48.47138354387491,2,n,1.6921400000001086,correct,n
313,4F4K,314,1,52.55564937552785,40.502519128339806,1.4914023100712523,44.04465118352763,2,n,0.819938699999966,correct,n
314,4F4K,315,2,48.41599469356228,38.28149936929341,1.3683903552691463,42.078386601446375,1,v,0.8606987000002846,correct,v
315,4F4K,316,2,54.13500928364433,49.47715921611788,1.5411959270861983,51.99324588122747,1,b,1.1520747999998093,incorrect,v
316,4F4K,317,1,40.03059249428474,52.31918184842712,1.149429335424685,54.46122266517003,1,c,0.7504819999999199,correct,c
317,4F4K,318,2,41.73268962451686,58.40328825749447,1.1908409091994945,59.56373705569784,2,b,1.461572900000192,correct,b
318,4F4K,319,2,67.40550173819402,55.46430876702128,2.0309645418188707,57.13531893896818,1,v,0.47152189999997063,correct,v
319,4F4K,320,1,43.53540480916015,22.886428837708447,1.236328514784083,29.21636477741636,2,n,1.8499590000001263,correct,n
320,4F4K,321,2,67.06375101681415,47.137616607977336,2.016582642221347,49.93535413159245,1,v,2.535876299999927,correct,v
321,4F4K,322,1,38.50233833270959,50.405958206263165,1.1134757588491475,52.80426214382516,1,c,1.3037794000001668,correct,c
322,4F4K,323,1,44.73942522639771,62.96469019085778,1.267673097338628,63.16253723150825,1,c,0.8789511999998467,correct,c
323,4F4K,324,1,55.728995005126805,69.2917987282776,1.5931364644700092,67.72524898779176,1,n,0.8850317000001269,incorrect,c
324,4F4K,325,1,42.833416652985775,49.32890109298528,1.2184123746744968,51.86343788648141,1,c,1.6668840000002092,correct,c
325,4F4K,326,1,60.26035611429917,46.852199115855065,1.7505529293250268,49.68310587006241,2,c,1.3949820000002546,incorrect,n
326,4F4K,327,2,41.962938747609,58.49442261677002,1.19655620272115,59.63778346257498,2,b,2.7738200000003417,correct,b
327,4F4K,328,2,61.81840550295692,50.37946636666511,1.808197375492737,52.78118492456659,1,v,0.6174475000002531,correct,v
328,4F4K,329,2,44.31249778488263,62.45539121536585,1.2564688750376631,62.77233613920232,2,b,0.6247941000001447,correct,b
329,4F4K,330,1,53.74858921710899,70.19104803143509,1.5288614555455051,68.32684471977034,1,c,1.3158924999997907,correct,c
330,4F4K,331,2,41.15658631463808,52.91328377423011,1.1766600657344557,54.971479279985886,2,v,1.26123060000009,incorrect,b
331,4F4K,332,1,32.67695659174853,56.10633056299563,0.9864437542195816,57.67217146086668,1,c,1.0785820000000967,correct,c
332,4F4K,333,1,37.36019114219989,56.45065887927062,1.087341965240721,57.95869535981242,1,c,0.8246562999997877,correct,c
333,4F4K,334,2,71.97280790216993,58.31846439223126,2.233311107181943,59.49474588570271,1,v,0.975902700000006,correct,v
334,4F4K,335,1,50.84862950523944,64.41256202645857,1.4393913415388904,64.25434069653897,1,c,1.55275679999977,correct,c
335,4F4K,336,1,67.8857032487844,52.57769163170519,2.05134634995652,54.68351719663414,2,n,0.6117690999999468,correct,n
336,4F4K,337,1,44.90294403761384,31.93519304470209,1.2719908750577296,36.56333782567477,2,n,0.8049439999999777,correct,n
337,4F4K,338,2,31.281742159442743,52.23581665881915,0.9582355646341632,54.38945021151599,2,b,2.1002089000003252,correct,b
338,4F4K,339,2,39.79281486743889,24.863543963250297,1.1437600705225937,30.75130512609513,1,v,0.7819046999998136,correct,v
339,4F4K,340,1,51.29597347666892,68.51781184570578,1.4528433990647591,67.19754892430544,1,n,0.8242849000002934,incorrect,c
340,4F4K,341,1,52.279046937324,60.09131913875795,1.4828487059676774,60.92179395885418,1,c,2.0805931999998393,correct,c
341,4F4K,342,1,37.64103377572519,45.65010853813208,1.0937105751798972,48.61859745742649,1,n,1.1582534999997733,incorrect,c
342,4F4K,343,1,36.18398453622995,58.732150784937375,1.0610697796911763,59.830556569593,1,c,0.7879097000000002,correct,c
343,4F4K,344,1,55.8857995310053,71.08508173540866,1.5983396165864594,68.91238963391453,1,c,0.8789522000001853,correct,c
344,4F4K,345,2,50.802090803717725,36.58332965545292,1.4379990514316914,40.584387575915976,1,v,1.8863902999996753,correct,v
345,4F4K,346,1,42.58692760725668,46.94110705795379,1.212183263143373,49.761704631979605,1,c,1.637463800000205,correct,c
346,4F4K,347,2,56.166141948149445,62.268492301188566,1.6076844396003116,62.62836452256813,2,b,1.1884001999997054,correct,b
347,4F4K,348,2,54.09087317146656,35.065931021689,1.539782090017577,39.25911553967837,1,v,0.6664914000002682,correct,v
348,4F4K,349,1,37.94852277210928,51.098705101728825,1.100726224897077,53.40648476150764,1,c,1.1398140999999669,correct,c
349,4F4K,350,1,37.68047734022399,53.262050096854175,1.094608010999796,55.26998502717597,1,c,0.6664494999999988,correct,c
350,4F4K,351,2,56.593936776662936,69.91040118857413,1.622049788301943,68.14043816261484,2,b,1.7652084000001196,correct,b
351,4F4K,352,1,55.76984316890349,43.97013915344185,1.5944902712771465,47.1268103892917,2,n,1.9713307000001805,correct,n
352,4F4K,353,2,43.82737417249047,56.27190842193898,1.2438575083262022,57.8100771796115,2,b,2.270185599999877,correct,b
353,4F4K,354,1,48.55402600510353,30.658809066297195,1.3723236614757297,35.48262705807112,2,n,0.6665611000003082,correct,n
354,4F4K,355,1,52.4280628214659,39.85970709723348,1.4874507330457256,43.47449356263759,2,n,2.0645730999999614,correct,n
355,4F4K,356,1,49.556478454041226,39.72709986036919,1.401230555833293,43.35696772220125,2,n,0.9759997000001022,correct,n
356,4F4K,357,2,31.215953574888808,45.68460966510135,0.956925560963001,48.64919128748954,2,b,1.5951694000000316,correct,b
357,4F4K,358,2,44.22295494218461,61.96624831599082,1.2541315179585952,62.39466931301099,2,b,0.9032124000000294,correct,b
358,4F4K,359,1,72.10576953229338,58.313654607596256,2.2394944424127874,59.49083179271971,2,n,1.188661300000149,correct,n
359,4F4K,360,1,58.56322037004957,48.58589676324115,1.689851663423274,51.21156958723537,2,n,1.303879600000073,correct,n
360,4F4K,361,1,42.33267143097952,34.4408048044785,1.205791231219764,38.71634030713767,2,n,1.4907507999996596,correct,n
361,4F4K,362,1,43.86451575626752,57.624837068590224,1.2448185572315669,58.928026453686016,1,c,0.68463759999986,correct,c
362,4F4K,363,2,65.61443143498371,46.98145977175476,1.9567140554848856,49.79737150639686,1,v,1.048920100000032,correct,v
363,4F4K,364,1,57.28138137442306,42.05265999708536,1.6454035271410912,45.42182685049331,2,n,1.7588994000002458,correct,n
364,4F4K,365,1,31.23705988271972,42.76600179978679,0.957345641390344,46.05613590365955,1,n,1.8671590000003562,incorrect,c
365,4F4K,366,1,45.14484388231083,59.94058563289556,1.2784053194660163,60.80171474921751,1,c,0.8120944000002055,correct,c
366,4F4K,367,2,44.415468615698025,64.84888871725995,1.2591621314964774,64.5781185482081,2,b,1.9106071999999585,correct,b
367,4F4K,368,2,52.90206988431154,42.9787354076205,1.502184582629702,46.2453166128722,1,v,1.5708068999997522,correct,v
368,4F4K,369,2,61.363532031462896,79.15622176331078,1.7911745824109118,73.58552463860724,2,b,1.1338393999999425,correct,b
369,4F4K,370,2,37.02740634119776,51.32076151097119,1.0798434627204407,53.59900110592056,2,v,0.7576070000000072,incorrect,b
370,4F4K,371,2,31.36591003785368,45.438009453941405,0.9599141579630044,48.43047295434724,2,v,0.8789614999996047,incorrect,b
371,4F4K,372,1,50.542823409717606,34.99359379846629,1.4302672082895562,39.196205472296846,2,n,0.9516455000002679,correct,n
372,4F4K,373,1,54.93267757064679,68.21555423023467,1.5669730061929945,66.98903135919241,1,c,0.969984199999999,correct,c
373,4F4K,374,1,44.64143753144235,58.687190655459126,1.265092720424821,59.79414092703159,1,c,1.1459537999999156,correct,c
374,4F4K,375,1,53.355981413613165,61.72595929863684,1.5164305667857114,62.208118057450285,1,n,2.09876179999992,incorrect,c
375,4F4K,376,2,42.94819720544032,64.89026221834251,1.2213239478975646,64.60869055637075,2,b,2.050252399999863,correct,b
376,4F4K,377,2,48.37350813827733,32.47279403059568,1.3671819394292006,37.02196156768179,1,v,0.6423168000001169,correct,v
377,4F4K,378,2,41.61265592687922,58.57055665915636,1.1878722403682778,59.699580396150346,2,b,1.376556900000196,correct,b
378,4F4K,379,1,45.98749104427304,58.2703580955232,1.3010033990758736,59.45558809143387,1,c,1.728246599999693,correct,c
379,4F4K,380,2,66.25499235695992,46.14740323474281,1.98295202072512,49.05935343794222,1,v,1.8914645999998356,correct,v
380,4F4K,381,1,53.899392347606586,38.0195052530548,1.5336632805245285,41.84726205741706,2,n,0.8789753000000928,correct,n
381,4F4K,382,2,45.20488914638487,27.843865118863945,1.2800025411721547,33.14517961172907,1,v,0.5991337000000385,correct,v
382,4F4K,383,1,48.82838021760239,55.55447136814479,1.38017519196973,57.210912749393685,1,c,1.837767900000017,correct,c
383,4F4K,384,1,50.86290503929729,28.38424967725281,1.439818690279291,33.58856145311663,2,n,0.7516805000000204,correct,n
384,4F4K,385,2,44.19754727428699,27.580655780244054,1.253469088129717,32.93020035419688,1,v,0.9942538000000241,correct,v
385,4F4K,386,2,46.71072617097657,63.35388334680582,1.3207173868552873,63.45859327365304,2,b,0.8910132000000885,correct,b
386,4F4K,387,1,41.66450003345924,26.159303100040702,1.1891535378257423,31.780926742198496,2,n,1.067916100000275,correct,n
387,4F4K,388,1,24.75249528621504,35.63547043190904,0.8365796783945376,39.75531988251951,1,c,2.670777199999975,correct,c
388,4F4K,389,2,37.340169706761486,55.3738999595962,1.086889361984832,57.05945404709496,2,b,1.8075190999998085,correct,b
389,4F4K,390,2,56.43146826539842,39.394959459802784,1.6165790406145932,43.062759962692034,1,v,0.7090450000000601,correct,v
390,4F4K,391,2,38.98237501563332,52.46545899046576,1.1246462249031108,54.58705747334594,2,b,1.1512522000002718,correct,b
391,4F4K,392,1,61.43376537416509,42.53585829525632,1.7937924347484044,45.8514760185729,2,n,0.9520345999999336,correct,n
392,4F4K,393,2,67.55716234443771,53.10809583769978,2.037379692187439,55.138314275826815,1,v,0.6361079999996946,correct,v
393,4F4K,394,1,44.66539617877033,37.93728884931853,1.265723154321338,41.77477615755168,2,c,2.038111100000151,incorrect,n
394,4F4K,395,1,63.4246955685048,78.55103363111606,1.8696145502803203,73.27553805658556,1,c,1.4788340999998582,correct,c
395,4F4K,396,2,56.133651321000926,44.54715327719492,1.606598616899677,47.63957147001596,1,v,1.1884777000000213,correct,v
396,4F4K,397,2,28.9510115360807,40.85549299707091,0.9129010164863616,44.35800656476251,2,b,0.9275029000000359,correct,b
397,4F4K,398,2,32.00701904157636,53.10109839677909,0.972796923441402,55.13232597970861,2,v,2.012709399999949,incorrect,b
398,4F4K,399,1,46.7016860717183,34.66050237124997,1.3204691370077282,38.90686531024375,2,n,2.4644969000000856,correct,n
399,4F4K,400,1,59.100116116186825,46.206250849471935,1.7088236078456716,49.11147748649558,2,n,1.7832601999998587,correct,n
