,condition,trial,sub_task,x,y,xt,yt,cat,resp,rt,acc,correct_resp
0,2F4K,1,1,47.64386718008167,61.38524398996027,1.3465950021254522,62.2172003496622,1,c,3.0712321999999403,correct,c
1,2F4K,2,2,55.16421591217083,36.21464388521775,1.5745357095937722,40.39975579362138,1,v,2.195952600000055,correct,v
2,2F4K,3,2,57.83326574762384,72.51455142565075,1.6643951302716355,70.14616721751199,2,v,1.7214674999995623,incorrect,b
3,2F4K,4,1,59.80369369905215,75.00440115229586,1.734008308166636,71.65796984596994,1,n,1.3086769999999888,incorrect,c
4,2F4K,5,2,38.05036258835649,55.10290456613731,1.1030597021423192,57.07424744059252,2,b,2.304141999999956,correct,b
5,2F4K,6,1,62.01530425143808,47.42417303106308,1.8156160257245308,50.389157311269166,2,c,1.797689399999399,incorrect,n
6,2F4K,7,1,53.40677692537338,67.660161161213,1.5180331624765504,66.90643219860908,1,c,1.6497464000003674,correct,c
7,2F4K,8,1,62.96941265177376,44.73858136508007,1.851997793248583,47.99541371032278,2,n,1.5647701000007146,correct,n
8,2F4K,9,2,59.9509186762899,70.546171675857,1.7393250349365634,68.87733503075447,2,v,1.4314919999997073,incorrect,b
9,2F4K,10,2,53.50512274050166,41.66278497763491,1.521140783211001,45.243840967719926,1,v,1.7775353999995787,correct,v
10,2F4K,11,2,44.20322937662296,61.883028654902645,1.2536172017688854,62.607314380345336,2,v,3.5810043999999834,incorrect,b
11,2F4K,12,2,55.4180619343532,69.51952664688595,1.5828689963378089,68.1908730054304,2,v,3.7449698000000353,incorrect,b
12,2F4K,13,1,56.42849857082955,47.941677404683816,1.6164792149903202,50.84836707215576,2,n,2.1474232000000484,correct,n
13,2F4K,14,2,49.52591524992052,45.02024972314686,1.400340295142695,48.24710052405504,1,b,2.4340659999998024,incorrect,v
14,2F4K,15,2,72.53765421737762,56.17002482369509,2.2596974544179687,57.973448635368015,1,b,3.816723099999763,incorrect,v
15,2F4K,16,2,67.40945599801634,80.35947869758718,2.0311315478343226,74.53308947434991,2,v,3.0530846000001475,incorrect,b
16,2F4K,17,2,50.65650383860455,66.04637448950976,1.433652242173241,65.75055513472026,2,v,2.0065824000002976,incorrect,b
17,2F4K,18,1,40.77880901307018,56.73906498857589,1.1674528382714042,58.449084727676365,1,n,1.1995804999996835,incorrect,c
18,2F4K,19,1,73.64001098782632,60.68809050299919,2.312094443449093,61.66610870240457,2,c,3.4850656999997227,incorrect,n
19,2F4K,20,1,65.16372964762259,56.99467106847767,1.9384612414598228,58.66182088784098,2,c,4.642126899999312,incorrect,n
20,2F4K,21,2,34.49528879673521,51.02969461427154,1.0244564554800684,53.56724878781453,2,v,4.600825399999849,incorrect,b
21,2F4K,22,1,68.77681923872377,49.67342662251348,2.089712652612205,52.37815652173445,2,c,5.0,incorrect,n
22,2F4K,23,2,46.44700710187428,66.93233908345647,1.313494548776092,66.38972294740452,2,b,1.7105746000006548,correct,b
23,2F4K,24,2,63.06942308901587,52.08706581870191,1.855853324050063,54.48768500012867,1,v,3.223004100000253,correct,v
24,2F4K,25,1,56.35143669399719,38.48311321245522,1.6138909514187274,42.407242242155895,2,n,2.062450700000227,correct,n
25,2F4K,26,2,27.073813484717647,42.33815757283306,0.8779522638277114,45.84805103810235,2,b,2.0563953999999285,correct,b
26,2F4K,27,2,48.29301232251102,28.757025782715612,1.3648953778052302,33.99421287563497,1,b,1.1334542000004149,incorrect,v
27,2F4K,28,1,41.13785097045214,33.252052706082026,1.1762017394014377,37.81221375098536,2,n,1.6743265999994037,correct,n
28,2F4K,29,2,42.80411588081259,51.95299367351909,1.2176702313538048,54.37132562029659,2,b,1.4074620999999752,correct,b
29,2F4K,30,1,49.92567188094655,37.57053585437842,1.4120294283975998,41.59748939407256,2,c,0.8136890000005224,incorrect,n
30,2F4K,31,2,33.574966065985066,43.13849379453574,1.0050372559501004,46.56423993393025,2,b,0.8911259999995309,correct,b
31,2F4K,32,2,51.332850629323325,66.21321465391313,1.453957923075048,65.87176061685156,2,v,0.8561085999999705,incorrect,b
32,2F4K,33,1,53.751832035453226,40.03987234627906,1.5289645539896577,43.79375233262088,2,n,1.2431551999998192,correct,n
33,2F4K,34,2,59.91992681612662,45.34525044977246,1.7382044747887735,48.53736850984841,1,v,1.3757968999998411,correct,v
34,2F4K,35,2,52.87236274430119,37.41588157396279,1.5012569057668592,41.46052853793263,1,b,1.1886494999998831,incorrect,v
35,2F4K,36,1,58.77076320201724,49.717307025594366,1.697160369958545,52.41676279173184,2,c,0.9240245999999388,incorrect,n
36,2F4K,37,2,55.4402802743285,40.31079438236084,1.5836004783079791,44.03556507155304,1,b,1.7408050999993065,incorrect,v
37,2F4K,38,1,40.75766632935531,50.720892426319104,1.1669396807380867,53.29730042865106,1,n,0.9031330999996499,incorrect,c
38,2F4K,39,1,35.66184367966874,49.187226753382106,1.0496114115612802,51.94984222861529,1,n,3.1622858000000633,incorrect,c
39,2F4K,40,2,62.80108991479816,43.26705435179546,1.8455268121136503,46.67928141992529,1,v,5.0,incorrect,v
40,2F4K,41,2,44.376759772103725,58.78053442469738,1.2581490047265012,60.13141817034676,2,b,1.6078156999992643,correct,b
41,2F4K,42,1,42.53378498633077,64.31383033027346,1.210844455978828,64.4695561363271,1,n,0.9204380999999557,incorrect,c
42,2F4K,43,1,60.9953325313509,47.589712067602726,1.7775128333962904,50.53613916257639,2,n,1.1521164999994653,correct,n
43,2F4K,44,1,42.24487941671305,30.112931325161547,1.2035919665865582,35.12952711302595,2,c,1.5223605000001044,incorrect,n
44,2F4K,45,1,62.85117888701432,43.44380728709664,1.8474500605549813,46.83744007181272,2,n,0.9508772999997746,correct,n
45,2F4K,46,1,38.62165779868757,50.52185483264925,1.11624192126231,53.12304995527189,1,c,2.7982043000001795,correct,c
46,2F4K,47,2,49.93808990853214,61.880420754162046,1.4123940976596858,62.60527804444028,2,b,0.9997576999994635,correct,b
47,2F4K,48,1,61.73780454414782,49.32554926754322,1.805169284930354,52.07179760364605,2,n,1.953189800000473,correct,n
48,2F4K,49,2,63.90804172876632,46.3888597278326,1.8885006127271944,49.46818875526213,1,v,1.3341579999996611,correct,v
49,2F4K,50,1,60.611261373988185,40.5721136771153,1.7633732030766132,44.2689214327348,2,c,1.7725379000003159,incorrect,n
50,2F4K,51,2,36.24370627180838,56.19433382444294,1.0623883180842628,57.99382384208055,2,b,0.763972200000353,correct,b
51,2F4K,52,2,42.76786834724194,55.26385698687247,1.2167527627704318,57.210456229043466,2,b,0.7819495000003371,correct,b
52,2F4K,53,1,63.09447693519821,57.245410999456695,1.8568204385749676,58.86994306706356,2,n,1.413070499999776,correct,n
53,2F4K,54,1,52.140415019849954,66.33842996711871,1.4785801502627351,65.96247212305607,1,c,1.407100200000059,correct,c
54,2F4K,55,1,51.81538676021989,60.84946737862938,1.4686204587373402,61.794158139950696,1,c,0.7627984999999171,correct,c
55,2F4K,56,2,55.8125130004624,64.27792298473612,1.595905681101515,64.44258632564542,2,b,2.044448800000282,correct,b
56,2F4K,57,2,52.28464164422452,42.52559788981496,1.4830212286335922,46.01577683580934,1,b,1.6426469999996698,incorrect,v
57,2F4K,58,2,36.61000677323303,49.46017877713005,1.0705114326230152,52.19042053869344,2,b,1.8316789999998946,correct,b
58,2F4K,59,2,44.055101746136415,53.892611875464034,1.2497617165448942,56.04375920870415,2,b,0.8258046000000832,correct,b
59,2F4K,60,2,56.4228964970371,41.9318778399121,1.6162909193043378,45.4845490075154,1,v,1.6496891000006144,correct,v
60,2F4K,61,2,43.56289826685074,55.80394888823184,1.2370355387168497,57.6660178063597,2,b,1.2384690999997474,correct,b
61,2F4K,62,1,21.54717619603424,34.37274348716401,0.7826370347018563,38.78558041718132,1,c,1.2299708999998984,correct,c
62,2F4K,63,1,29.767169131172714,45.48737983609303,0.9285265539245834,48.66425648604825,1,c,0.6862384000005477,correct,c
63,2F4K,64,1,36.16997253113743,45.61096943148226,1.060760659282531,48.77456496060932,1,c,0.9032459999998537,correct,c
64,2F4K,65,2,50.54382579591707,31.821932147062263,1.430297021140071,36.581394874765806,1,b,1.1945914999996603,incorrect,v
65,2F4K,66,1,67.50634992276937,50.07805343932301,2.035228103949705,52.73382326313867,2,n,1.3402536000003238,correct,n
66,2F4K,67,1,53.93377484289305,64.70981458840696,1.5347601864669478,64.76586380916424,1,n,2.779968700000609,incorrect,c
67,2F4K,68,2,61.318769950544,52.07695143332304,1.789508130459282,54.4789105424068,1,b,2.676010299999689,incorrect,v
68,2F4K,69,1,43.12640867025031,53.80104218134356,1.22585833070616,55.96536162765196,1,c,3.453650800000105,correct,c
69,2F4K,70,2,25.23142664149811,46.04883338061119,0.8449528825984363,49.16514835273038,2,b,1.199651700000686,correct,b
70,2F4K,71,1,57.18841411027741,42.67220794245563,1.6422257058607828,46.14697226534826,2,n,2.8513968999995996,correct,n
71,2F4K,72,2,72.30528218526263,52.68112840535003,2.248804842613975,55.00196739321994,1,v,1.38169950000065,correct,v
72,2F4K,73,1,30.05443159379022,48.5627955380251,0.934089664446567,51.39835231732196,1,c,1.261413199999879,correct,c
73,2F4K,74,2,47.42468257322446,28.70041140664113,1.3404714358359575,33.94715313946725,1,b,1.7104464000003645,incorrect,v
74,2F4K,75,1,52.60095031060801,64.45160730931138,1.4928078826112825,64.5728843381362,1,c,2.1220722999996724,correct,c
75,2F4K,76,1,69.98232147994581,50.13640578769134,2.14275907098518,52.78505329879148,2,n,0.9882529999995313,correct,n
76,2F4K,77,1,34.13941902772352,49.35450275031346,1.01690335270015,52.09731512191897,1,c,1.1875021999994715,correct,c
77,2F4K,78,2,61.09124626608569,48.21205785789995,1.781061567241068,51.08794689469297,1,v,1.6770957999997336,correct,v
78,2F4K,79,1,56.83594519247937,42.47987864151334,1.6302332037637153,45.9748653697564,2,n,1.807856399999764,correct,n
79,2F4K,80,2,49.981603676781006,64.24034478028346,1.4136726714667485,64.41434366728497,2,b,1.5650690000002214,correct,b
80,2F4K,81,2,33.9538569503835,50.71501201292799,1.0129870342931362,53.29215517104238,2,b,1.2478565999999773,correct,b
81,2F4K,82,1,61.45141456606614,50.60033141899404,1.794450885693799,53.19177700670143,2,n,1.658289799999693,correct,n
82,2F4K,83,1,54.02245749165483,65.69207074897801,1.5375930548670935,65.49188665140284,1,c,1.8123652000003858,correct,c
83,2F4K,84,2,74.25938059721761,58.15957980152617,2.3420654902551084,59.62385341035051,1,v,1.58935560000009,correct,v
84,2F4K,85,1,63.40281339824796,51.20012767212591,1.868764018817292,53.71602509479975,2,n,1.4326946000001044,correct,n
85,2F4K,86,2,51.92193106753511,71.79171372547597,1.47187783347706,69.68758862545852,2,b,2.165734000000157,correct,b
86,2F4K,87,1,61.358962467747645,71.71558727361602,1.7910043905694597,69.63879032676287,1,c,1.254076800000803,correct,c
87,2F4K,88,2,40.50829463608633,54.22525428720088,1.1609041323087377,56.328053252027374,2,b,1.6013080000002446,correct,b
88,2F4K,89,1,72.04954583203082,63.3000739824714,2.236877692136164,63.70179368509973,2,n,1.220285800000056,correct,n
89,2F4K,90,2,58.39647269895508,66.22759957400866,1.6840023842050411,65.88219280729054,2,v,2.1779396000001725,incorrect,b
90,2F4K,91,1,46.35469560291819,61.651975882438286,1.3109756307617386,62.42659377882083,1,c,2.2809304000002157,correct,c
91,2F4K,92,2,75.24076328668674,58.86738244935229,2.390351694194988,60.202105255955,1,v,2.329470300000139,correct,v
92,2F4K,93,1,53.36195878653157,39.21543033259093,1.516619064716913,43.05876842658522,2,c,3.8238429000002725,incorrect,n
93,2F4K,94,2,50.434618734784806,35.078394849272115,1.427052649143474,39.40202429443712,1,b,1.862179499999911,incorrect,v
94,2F4K,95,1,43.137009050561225,50.894718785726354,1.2261285748624906,53.44931610746901,1,c,4.013019699999859,correct,c
95,2F4K,96,1,60.53632120867808,72.5799190001206,1.760627413483214,70.18720865668631,1,c,3.781335799999397,correct,c
96,2F4K,97,1,30.661575640758045,47.65882737995684,0.9459574977214278,50.59748195945184,1,c,1.0792664000000514,correct,c
97,2F4K,98,2,21.31617919507229,37.33940353064402,0.7788866932127917,41.39283089790378,2,b,1.1216269999995347,correct,b
98,2F4K,99,2,45.91946304208001,56.92853377405603,1.2991642974717283,58.60683132690459,2,b,2.0125170000001162,correct,b
99,2F4K,100,2,47.10509734401639,33.40255685121732,1.3315927496461917,37.942504448465215,1,b,0.8607866000002105,incorrect,v
100,2F4K,101,2,34.301195124393104,25.4998942491546,1.0203300160862716,31.336343218077573,1,b,0.9882440000001225,incorrect,v
101,2F4K,102,1,37.13619526695505,51.86218364744147,1.0822890520513404,54.292453373969366,1,c,3.194013299999824,correct,c
102,2F4K,103,2,41.091467418826575,61.524964858699725,1.175067817595338,62.32698768689406,2,b,2.9120908999993844,correct,b
103,2F4K,104,2,54.17130573644364,65.08853552384232,1.5423596046409764,65.04732226869608,2,v,1.067525100000239,incorrect,b
104,2F4K,105,1,36.65110993587302,45.63770429741727,1.0714268072654447,48.79842332411287,1,c,2.0310027000004993,correct,c
105,2F4K,106,2,68.05792511581694,51.24520544234128,2.05870591068149,53.75534905047915,1,v,1.0696162000003824,correct,v
106,2F4K,107,2,55.53377070112812,47.35943780791563,1.5866821168852627,50.33165689149694,1,b,1.3039694999997664,incorrect,v
107,2F4K,108,2,40.98304420998739,53.45267025272979,1.17242149724487,55.666573037129,2,b,1.4251991999999518,correct,b
108,2F4K,109,2,47.6860483545263,29.280854822333904,1.3477766630175845,34.430970218370014,1,v,0.9350322999998752,correct,v
109,2F4K,110,1,59.20053413627239,43.60232249936782,1.7123955886533433,46.97926961618924,2,c,0.9700321999998778,incorrect,n
110,2F4K,111,1,52.10677775598396,71.98981594969834,1.4775462935050223,69.81412837738995,1,n,1.2117212000002837,incorrect,c
111,2F4K,112,2,48.47002774657515,58.72412892801746,1.369928723255901,60.08546864042442,2,v,1.5176563000004535,incorrect,b
112,2F4K,113,1,40.060955290567584,55.92257987390322,1.1501552873598315,57.76576560836239,1,c,1.6727113999995709,correct,c
113,2F4K,114,2,57.44495286099126,72.39582341427803,1.651009687917976,70.07144036983836,2,v,1.5223163999999088,incorrect,b
114,2F4K,115,2,42.13369749314287,58.9918160943545,1.2008125205920133,60.30325265333773,2,b,3.6174557000003915,correct,b
115,2F4K,116,1,52.69024962613236,35.45300703225963,1.4955824932965904,39.73030201426758,2,c,1.9289389999994455,incorrect,n
116,2F4K,117,2,64.39893509546867,54.04003746127261,1.9078768524741023,56.16985413671821,1,v,0.9451020000005883,correct,v
117,2F4K,118,1,49.64372100180128,65.35858449146944,1.4037749163858508,65.24684880563296,1,n,1.7520164999996268,incorrect,c
118,2F4K,119,2,46.30113256323507,59.77102808600671,1.309516263125343,60.93306226951133,2,b,2.2324070000004212,correct,b
119,2F4K,120,2,57.31778357795047,42.35324763551214,1.6466495074987344,45.86155358468617,1,v,5.0,correct,v
120,2F4K,121,2,54.88956978406691,40.65885974391106,1.565568999046526,44.3464079500117,1,b,1.831597899999906,incorrect,v
121,2F4K,122,2,46.37768096189693,64.25816146245347,1.311602383757944,64.42773643186239,2,v,1.6669996000000538,incorrect,b
122,2F4K,123,2,51.79273204050276,61.23918968746769,1.4679287668358114,62.102198596450826,2,v,1.6985506000000896,incorrect,b
123,2F4K,124,1,53.30223639610015,42.25760294425794,1.5147367563895928,45.77597232571559,2,c,2.5259421999999176,incorrect,n
124,2F4K,125,1,44.62347665797565,66.2866206975423,1.2646203144009247,65.92496574025151,1,c,1.3045640000000276,correct,c
125,2F4K,126,1,39.25253032008419,29.194379640631745,1.1309819538427994,34.358705068244234,2,c,1.0319971999997506,incorrect,n
126,2F4K,127,2,48.56329981122749,30.72288173308496,1.3725883305240116,35.64516288164796,1,b,2.725390499999776,incorrect,v
127,2F4K,128,1,52.24140837788292,61.57544771132654,1.4816885761011975,62.36660017728177,1,n,2.3854738999998517,incorrect,c
128,2F4K,129,1,54.65791083005672,45.162654516884494,1.558045456257282,48.37430604453017,2,c,4.1454479999993055,incorrect,n
129,2F4K,130,1,48.86530225860714,56.795596877910256,1.381235259087244,58.49618465426689,1,c,2.0320887999996557,correct,c
130,2F4K,131,2,34.06229165514813,50.84514916829863,1.0152737313207942,53.40598190773317,2,b,2.452209099999891,correct,b
131,2F4K,132,1,52.290143910304415,58.37083981315208,1.4831909203010532,59.79695720601475,1,n,2.5675645999999688,incorrect,c
132,2F4K,133,1,44.15935589083038,36.02068162245233,1.252474018904636,40.22902312625334,2,n,2.816367100000207,correct,n
133,2F4K,134,2,49.55985673172901,39.76475029050113,1.4013289947700702,43.54832765928273,1,v,1.5708734999998342,correct,v
134,2F4K,135,2,58.43925383017376,40.20935576724658,1.685501153793297,43.945010722585096,1,v,1.1157069999999294,correct,v
135,2F4K,136,1,55.91749079218863,63.94160799890033,1.599393271533751,64.18917492675396,1,n,1.0321137999999337,incorrect,c
136,2F4K,137,1,52.36259460915788,68.37397578485825,1.4854271352249442,67.405674023391,1,n,5.0,incorrect,c
137,2F4K,138,1,46.67214115279948,68.4336199684024,1.3196581304395916,67.44704648732639,1,c,4.575171600000431,correct,c
138,2F4K,139,2,44.231342972105885,36.55776959809042,1.2543502878974402,40.70217814119732,1,b,1.2674220999997488,incorrect,v
139,2F4K,140,2,47.421509413603786,26.718892728874224,1.3403829890876926,32.31877551227113,1,b,2.347812399999384,incorrect,v
140,2F4K,141,1,26.60391626056533,47.98741617020865,0.8694153592198566,50.888912647987766,1,c,1.6268737999998848,correct,c
141,2F4K,142,2,44.728907661813736,61.004515705892096,1.2673958791723838,61.916913705744754,2,b,2.0092124000002514,correct,b
142,2F4K,143,1,36.69344824902923,50.40839577611843,1.0723705072880954,53.02363302074372,1,c,2.0124433000000863,correct,c
143,2F4K,144,2,70.39531130199192,52.45636228593057,2.1612400756344368,54.80763955330269,1,v,0.9760997000003044,correct,v
144,2F4K,145,2,52.0697677455254,64.87186584678014,1.4764096090670042,64.88653014174847,2,b,1.249058899999909,correct,b
145,2F4K,146,1,60.73762429512358,43.51600143114557,1.768012811410808,46.9020362353446,2,n,1.103914100000111,correct,n
146,2F4K,147,1,48.67030984795448,68.95481354408446,1.375646030143659,67.80629582438726,1,c,0.8231825999991997,correct,c
147,2F4K,148,1,46.381602718221465,35.20773770747953,1.3117093501204076,39.51529173618096,2,c,1.1524271999996927,incorrect,n
148,2F4K,149,2,34.39400220991384,40.41611413225986,1.0223010207245855,44.12960202313826,2,b,1.2128242999997383,correct,b
149,2F4K,150,2,51.94352482871327,64.5799750259795,1.4725388986590875,64.66893324795188,2,v,1.5222807000000103,incorrect,b
150,2F4K,151,1,56.20656195763653,42.28412378836008,1.609036283241501,45.799702399025456,2,n,1.2677014000000781,correct,n
151,2F4K,152,2,39.37896176056765,54.34463844174071,1.1339592942877903,56.42989174294942,2,b,0.9761252999996941,correct,b
152,2F4K,153,2,43.87025120129081,58.95569879072333,1.2449670296522624,60.27391024451243,2,v,1.8803969999999026,incorrect,b
153,2F4K,154,2,45.84735784012119,61.20127431795293,1.2972178089647957,62.07230485860576,2,b,2.0383552000002965,correct,b
154,2F4K,155,2,48.23610942869086,38.79219047010873,1.3632813035326912,42.68205137819887,1,v,0.9396965999994791,correct,v
155,2F4K,156,1,55.57997141884054,66.17238000422364,1.5882072017064188,65.84213093469208,1,n,2.482423899999958,incorrect,c
156,2F4K,157,1,23.357306837939223,38.35167093265311,0.812657417316918,42.29045387618708,1,c,1.4423264000006384,correct,c
157,2F4K,158,2,53.08562115231635,39.42028612862177,1.5079291388664762,43.24126062545859,1,v,3.622466799999529,correct,v
158,2F4K,159,1,52.08250200804616,32.01476401832715,1.4768006163797511,36.74655654584349,2,n,1.351183000000674,correct,n
159,2F4K,160,1,76.91922755583283,66.01605501490569,2.475254430094531,65.72848730277553,2,n,1.3343796999997721,correct,n
160,2F4K,161,2,66.96182332880346,54.10113952350613,2.0123129679373983,56.22207033132644,1,v,2.4380673000005118,correct,v
161,2F4K,162,2,40.33436408545464,30.26540053829129,1.1567129764957431,35.25814497801051,1,b,1.3098847000001115,incorrect,v
162,2F4K,163,2,44.06463916269968,55.16756902123852,1.2500096001197945,57.12899513928611,2,v,1.735010799999145,incorrect,b
163,2F4K,164,1,58.28623658950794,50.80417274604107,1.6801465742118404,53.37015045266048,2,n,2.6646577000001344,correct,n
164,2F4K,165,1,32.861524885332976,44.08279857875017,0.9902369897999548,47.40908505064268,1,c,0.8062087999996947,correct,c
165,2F4K,166,2,69.91057990868936,57.2284418076091,2.1395648347127287,58.855875906549954,1,v,1.661931700000423,correct,v
166,2F4K,167,2,74.19819715567691,52.62789478856503,2.339087636184392,54.95597113468373,1,v,1.6923105999994732,correct,v
167,2F4K,168,2,30.36782659995296,42.127886139933466,0.940196879910938,45.65990969000711,2,b,0.7883750999999393,correct,b
168,2F4K,169,2,30.361954447092383,47.132264692251965,0.9400820813725652,50.12977748130908,2,b,1.5405453000003035,correct,b
169,2F4K,170,2,55.79055282291825,66.93796889221476,1.5951770786516726,66.39374902938484,2,v,1.9181790000002366,incorrect,b
170,2F4K,171,2,44.51998505050632,56.15910404382608,1.2619017177665923,57.96429349079274,2,b,1.1510378000002675,correct,b
171,2F4K,172,2,75.35529257396657,59.94208297030824,2.396051267339484,61.070476323882126,1,v,0.7954444999995758,correct,v
172,2F4K,173,1,60.58216288331496,44.65245108226591,1.762306533203025,47.91843143267472,2,n,2.075980599999639,correct,n
173,2F4K,174,1,49.34790319998245,35.43982168114165,1.3951662984523456,39.7187359941812,2,c,0.7832909999997355,incorrect,n
174,2F4K,175,2,58.58096896872213,40.82441071930681,1.6904754550115064,44.494316815700266,1,v,1.589063299999907,correct,v
175,2F4K,176,1,28.98868790355506,41.890717059161325,0.9136165163698696,45.44772688346358,1,c,1.0974980999999389,correct,c
176,2F4K,177,1,50.33550609349749,69.36726656168042,1.4241145374575812,68.08766443205882,1,n,1.9008467999992718,incorrect,c
177,2F4K,178,2,44.33356743892668,49.60988765660992,1.2570194937896533,52.32223958283502,2,b,1.4252114000000802,correct,b
178,2F4K,179,1,28.332169878086127,48.436539780437386,0.9012286585871246,51.28666567135352,1,c,0.9093480000001364,correct,c
179,2F4K,180,1,48.69780271923005,38.323593411565895,1.3764327093341966,42.26551305175645,2,c,1.4251706999993985,incorrect,n
180,2F4K,181,2,35.38724521108102,52.67730088142234,1.0436350890673576,54.9986608305394,2,b,1.382908800000223,correct,b
181,2F4K,182,1,42.64420935614957,54.598621446826726,1.2136280039738718,56.64620031120599,1,c,1.7832884999997987,correct,c
182,2F4K,183,1,31.512009383718546,43.90138333643837,0.962834860014701,47.24681558196456,1,c,1.1339116999997714,correct,c
183,2F4K,184,1,53.356917822706656,38.96468314431033,1.5164600951300409,42.835529563279415,2,n,1.0431906000003437,correct,n
184,2F4K,185,2,51.71825498456571,56.5690585096726,1.4656571350136347,58.30727492950655,2,v,0.9689886999994997,incorrect,b
185,2F4K,186,2,27.01663327220734,40.00895362545289,0.8769089734183818,43.76616393698493,2,b,0.8197215999998662,correct,b
186,2F4K,187,2,47.6826706760302,42.26239440217568,1.3476820027549088,45.78025956186383,1,b,1.5465823000004093,incorrect,v
187,2F4K,188,1,52.2403507214153,38.70892706244923,1.48165598916713,42.60799412674963,2,n,1.4751353000001473,correct,n
188,2F4K,189,2,41.1899586652016,25.490372684810865,1.177476902406058,31.32873097856626,1,v,1.2795927000006486,correct,v
189,2F4K,190,2,39.80344493650782,55.15206988967911,1.1440129221385391,57.11587587297228,2,v,1.9279544999999416,incorrect,b
190,2F4K,191,2,50.785407749720136,34.20651536022151,1.4375002754391966,38.64075211108773,1,v,0.8790170000002036,correct,v
191,2F4K,192,1,35.69892038780841,50.88675829842568,1.0504209618958706,53.44235783000754,1,c,1.237065000000257,correct,c
192,2F4K,193,2,36.99211004450048,50.48041504513636,1.079051185276629,53.08674620132605,2,b,1.6801359999999477,correct,b
193,2F4K,194,1,45.067206551106615,28.085350377590395,1.276343097718101,33.43775451833361,2,c,1.7650054000005184,incorrect,n
194,2F4K,195,1,45.236290434850936,60.60240471580384,1.2808386192086416,61.59800198185805,1,n,1.261341800000082,incorrect,c
195,2F4K,196,1,44.861802670968025,33.87621796196875,1.2709031386448364,38.35343324564855,2,c,2.7561279999999897,incorrect,n
196,2F4K,197,1,46.48611200437081,58.36720373212974,1.3145630690973649,59.79398148950418,1,c,3.1562635999998747,correct,c
197,2F4K,198,1,46.41203770657603,35.021785514746675,1.31253976458413,39.35247684597472,2,n,1.2720349999999598,correct,n
198,2F4K,199,2,45.72560545644107,57.27805043643238,1.2939377062783926,58.89699326835054,2,v,1.091614699999809,incorrect,b
199,2F4K,200,1,31.055563552074325,36.717910748454855,0.953739323141476,40.84348736464606,1,c,1.5782002000005377,correct,c
200,2F4K,201,2,53.066157131084886,37.39638933481515,1.5073189386841608,41.44327223421607,1,b,3.3621520000006058,incorrect,v
201,2F4K,202,1,47.204778902478594,59.250972438264014,1.3343557640041015,60.51341020874387,1,n,1.255178800000067,incorrect,c
202,2F4K,203,1,55.335037113519945,31.81646677151381,1.580138605644236,36.57671752793553,2,n,1.560101900000518,correct,n
203,2F4K,204,2,57.03480595397515,42.130823563454086,1.636988490742817,45.66253783378848,1,v,1.1085174999998344,correct,v
204,2F4K,205,2,50.661787186853104,66.72936676421494,1.4338097577939095,66.24426847547188,2,b,1.2370515000002342,correct,b
205,2F4K,206,2,43.29349634189633,53.16805560860718,1.2301249716850748,55.42185849118464,2,b,0.9107683000001998,correct,b
206,2F4K,207,2,58.01747249096224,47.02642335714377,1.6707827744898447,50.03567156617116,1,v,0.8109866000004331,correct,v
207,2F4K,208,2,64.28270424146328,42.00292468635073,1.903271172533178,45.54810934050428,1,v,0.7151362000004156,correct,v
208,2F4K,209,2,70.76226121325782,53.8135460640466,2.1777945163298327,55.97607030292573,1,v,0.7103606000000582,correct,v
209,2F4K,210,1,61.53739887616624,46.58632824107632,1.797662222216902,49.6440584644223,2,n,1.4726888000004692,correct,n
210,2F4K,211,2,60.89991781462318,47.89243486500287,1.773989578559078,50.80470787927997,1,v,0.8071985999995377,correct,v
211,2F4K,212,2,28.45020524579109,45.50386297488765,0.9034434200517112,48.678969849471535,2,b,0.6133646000007502,correct,b
212,2F4K,213,2,68.19147120850702,47.6124941649518,2.064430909130003,50.55636086980425,1,v,0.8061569999999847,correct,v
213,2F4K,214,2,38.42654831647605,56.33105199970579,1.1117222930425648,58.108324841124855,2,b,1.0260672999993403,correct,b
214,2F4K,215,2,27.566963004793788,38.10360421835387,0.8870017709982141,42.07018099083575,2,b,0.6543922999999268,correct,b
215,2F4K,216,1,70.95225490443286,57.75021739830708,2.186415582636948,59.28721639080079,2,n,1.0489337000008163,correct,n
216,2F4K,217,1,27.744517009924596,43.70177317715273,0.8902827515708871,47.068245871924695,1,c,0.939698999999564,correct,c
217,2F4K,218,1,52.00533823643709,64.29861548618636,1.4744328783751168,64.45813038969216,1,n,1.0553744999997434,incorrect,c
218,2F4K,219,1,40.62131563782005,60.73881494618612,1.1636357043929968,61.7063885820506,1,c,1.1763773000002402,correct,c
219,2F4K,220,1,43.900575224741615,34.47188811811205,1.2457523164996434,38.87203304970284,2,c,1.336457899999914,incorrect,n
220,2F4K,221,1,54.63346716451711,45.99298540723358,1.5572537158628668,49.115351707333694,2,n,1.3705527000001894,correct,n
221,2F4K,222,1,66.8640534017229,54.50488888687418,2.008225953869933,56.56642691804333,2,n,1.6254453000001376,correct,n
222,2F4K,223,2,46.09520064965206,60.57087502306183,1.303920597900074,61.57292055882108,2,v,2.4947406999999657,incorrect,b
223,2F4K,224,1,69.71754802346386,57.29852817227164,2.130993866488064,58.91395943800022,2,n,0.686154500000157,correct,n
224,2F4K,225,2,57.33519774035436,41.12635620114584,1.6472458957919127,44.7641758532067,1,v,0.7650571000003765,correct,v
225,2F4K,226,2,56.49830554417136,45.72686771741712,1.6188273923531695,48.87798397076541,1,v,1.1338996000004045,correct,v
226,2F4K,227,2,46.60274902557469,31.586466908964315,1.3177552782443207,36.38007163605312,1,b,0.8428042999994432,incorrect,v
227,2F4K,228,2,62.38895932480502,46.71542200832339,1.8297781995239413,49.75898171041855,1,v,0.811606600000232,correct,v
228,2F4K,229,1,64.99047672082492,45.483449748366965,1.9314901250083127,48.66074829895799,2,c,0.7393959999999424,incorrect,n
229,2F4K,230,2,45.0941281497058,41.37198272318594,1.2770578187519206,44.98377678510939,1,b,1.5661590999998225,incorrect,v
230,2F4K,231,1,63.67812603659391,47.94782106727372,1.8794933112212453,50.85381358186831,2,n,0.7937038999998549,correct,n
231,2F4K,232,1,55.08558929134378,68.24086752558459,1.5719634555691746,67.31315113028238,1,n,1.1399586999996245,incorrect,c
232,2F4K,233,1,52.04178349154566,39.30093949899069,1.475550712321336,43.13493108933064,2,n,2.5482276000002457,correct,n
233,2F4K,234,2,42.409558546503405,56.84666164516416,1.2077206194795211,58.538705528473216,2,b,1.328081800000291,correct,b
234,2F4K,235,2,53.06305440099098,73.95832621293171,1.507221690419688,71.03580899036922,2,v,1.2431366000000708,incorrect,b
235,2F4K,236,2,62.290381771259376,46.40878889156063,1.826031247308548,49.4859422148112,1,v,0.8730341999998927,correct,v
236,2F4K,237,1,38.14576168609416,51.15516593927225,1.1052500890905277,53.67679154848784,1,c,2.6897649000002275,correct,c
237,2F4K,238,2,64.39654604645865,75.27267237372965,1.9077820736478108,71.81443310574679,2,v,1.680105899999944,incorrect,b
238,2F4K,239,1,38.83286695105962,47.1416014841195,1.1211552048480862,50.138077561146176,1,c,1.1524648999993587,correct,c
239,2F4K,240,2,53.277521144595255,66.28518474641214,1.5139584737944172,65.92392567538272,2,b,1.6390090999993845,correct,b
240,2F4K,241,1,61.59446582256216,45.98730111497315,1.799796727089155,49.11028297233703,2,n,1.9347640000005413,correct,n
241,2F4K,242,2,59.043139710478734,41.94268918495557,1.70680020782016,45.49422092524323,1,v,0.7576087999996162,correct,v
242,2F4K,243,1,46.32819706517181,64.96605890949766,1.3102534538555188,64.9565082357306,1,c,2.024609199999759,correct,c
243,2F4K,244,2,60.52355059184775,43.388041856136645,1.760159927723538,46.78754223576393,1,v,1.3705921000000671,correct,v
244,2F4K,245,2,49.56781234251793,61.32338786082821,1.401560838991324,62.16852501026524,2,b,1.135338199999751,correct,b
245,2F4K,246,2,44.49738653991428,55.13504952959889,1.261308860665986,57.10146680647964,2,b,0.7700167999992118,correct,b
246,2F4K,247,2,51.20482680104046,61.40204434651489,1.4500923720798962,62.23041322881264,2,v,1.0451774999992267,incorrect,b
247,2F4K,248,1,50.03911629089027,31.728511660559008,1.4153643522167312,36.50147318564601,2,c,3.635704100000112,incorrect,n
248,2F4K,249,2,53.09561815106754,33.27202902048177,1.5082426423918305,37.829499199446495,1,v,1.3401767999994263,correct,v
249,2F4K,250,2,47.79500802837328,68.93609134457793,1.350833853771257,67.79346216382022,2,b,1.2870286999996097,correct,b
250,2F4K,251,1,54.91309403111965,43.57114394939637,1.5663350204198117,46.95137386623771,2,n,1.199490699999842,correct,n
251,2F4K,252,2,48.85889477999967,59.35488857925941,1.3810512358762084,60.59748705374761,2,v,1.7528237000005902,incorrect,b
252,2F4K,253,2,30.235182024432817,49.18071444705196,0.9376071396805536,51.94409856352223,2,b,0.7628829999994196,correct,b
253,2F4K,254,2,45.91570130990386,59.36886560740909,1.2990626768894669,60.60878720048906,2,b,1.527288999999655,correct,b
254,2F4K,255,2,57.07696680639485,39.50591502598379,1.638424284675827,43.317569553029024,1,v,1.0671543999997084,correct,v
255,2F4K,256,1,41.34579253480641,56.006608186467886,1.1812986747867946,57.836348488211655,1,c,2.093160099999295,correct,c
256,2F4K,257,2,51.71719504105064,41.98287602559896,1.4656248309588362,45.530173001317095,1,b,3.696394500000679,incorrect,v
257,2F4K,258,2,50.55373022931528,35.85688299777381,1.4305916310216995,40.08497013148649,1,v,1.091382199999316,correct,v
258,2F4K,259,1,43.08200400267277,61.89844322197056,1.2247269334266735,62.61934896709343,1,c,1.0974998000001506,correct,c
259,2F4K,260,2,75.46192003535518,55.090201615261776,2.401369819850641,57.06348876318816,1,v,0.7626821000003474,correct,v
260,2F4K,261,1,54.21351284320854,67.85701905179222,1.5437138848721057,67.04486595533075,1,n,1.225242700000308,incorrect,c
261,2F4K,262,2,67.87781473928482,44.00510387150352,2.0510098809685298,47.33959287316733,1,v,0.8414178000002721,correct,v
262,2F4K,263,1,40.51255873186611,51.92280220665408,1.1610070735210525,54.34510838648752,1,c,0.5877054000002317,correct,c
263,2F4K,264,2,43.537668207508375,60.55429918021691,1.236386705247608,61.55973034601112,2,b,0.9942983999999342,correct,b
264,2F4K,265,2,57.19814500501596,38.546802665704064,1.64255804100991,42.46384886764611,1,b,2.165621099999953,incorrect,v
265,2F4K,266,1,52.42613938000369,40.75767567221078,1.487391240905322,44.43468895917366,2,n,1.6208084999998391,correct,n
266,2F4K,267,2,34.75530024851419,54.35644910970715,1.03001047360997,56.43996098702098,2,b,0.847651400000359,correct,b
267,2F4K,268,1,37.26418177473435,26.92272137920796,1.085173297493988,32.48453362587261,2,c,0.9287798999994266,incorrect,n
268,2F4K,269,1,42.35668254226319,57.65258815280579,1.206393429516849,59.20669908848706,1,n,2.8285178000005544,incorrect,c
269,2F4K,270,1,27.35525967650988,49.45640504364202,0.8831055525044444,52.18709651853904,1,c,2.0321142999991935,correct,c
270,2F4K,271,1,57.542404900277184,43.09668723619628,1.654358782272474,46.52682892239175,2,n,0.8300935999996,correct,n
271,2F4K,272,2,68.72872102970906,44.96599986594661,2.0876236209308834,48.198633349379385,1,v,0.7020819999997912,correct,v
272,2F4K,273,2,54.60124214679431,34.195200906286466,1.5562105490689282,38.6308997820376,1,b,1.284674599999562,incorrect,v
273,2F4K,274,2,56.39275222405822,47.67720023115854,1.615278093039871,50.61378617132913,1,v,1.5762214999995194,correct,v
274,2F4K,275,2,63.74133229763497,53.02764173630149,1.8819652233967623,55.30093231012642,1,v,1.3462888999993083,correct,v
275,2F4K,276,1,51.72150892408147,69.93720478465191,1.4657563102562112,68.47214682488624,1,c,1.4494794999991427,correct,c
276,2F4K,277,1,25.669800553762045,35.251170262604525,0.8526904575349994,39.553344743380094,1,c,0.9471666999997979,correct,c
277,2F4K,278,1,30.915947134058538,48.872506902940856,0.9509744028349614,51.67207428646639,1,c,0.8121061000001646,correct,c
278,2F4K,279,2,40.32081857904146,28.386845042031936,1.1563872100068238,33.68702572148013,1,v,0.8607975000004444,correct,v
279,2F4K,280,1,56.28283799204064,36.07566575028723,1.6115904257511209,40.27740557905365,2,n,1.0478556999996727,correct,n
280,2F4K,281,2,62.22748943792052,49.21620906620099,1.823644707559908,51.9754016902209,1,v,2.2869769999997516,correct,v
281,2F4K,282,1,54.7823472486665,42.08635977192801,1.562082248054838,45.62275605410062,2,c,2.2083962999995492,incorrect,n
282,2F4K,283,2,27.319269178633235,41.32044821645676,0.8824448823585348,44.93769754197213,2,b,1.1035056999999142,correct,b
283,2F4K,284,1,57.470157568418735,44.64303137344,1.6518752372261087,47.91001167304815,2,n,1.2118169000004855,correct,n
284,2F4K,285,1,39.80570717372345,33.47861727082253,1.1440667399463524,38.00840174211405,2,c,1.2492163000006258,incorrect,n
285,2F4K,286,2,58.559785582828376,43.70650567189503,1.6897309711052984,47.072479797499646,1,v,1.4678742999994938,correct,v
286,2F4K,287,2,51.25506692724814,39.63774139346296,1.451608095572951,43.4350786353544,1,v,1.328077199999825,correct,v
287,2F4K,288,2,33.53370626371542,47.29734223787067,1.0041753304572074,50.27648967882673,2,b,1.0028621999999814,correct,b
288,2F4K,289,2,37.04621945758014,48.14917808589381,1.080265988502063,51.03225217245233,2,b,1.6922089999998207,correct,b
289,2F4K,290,2,37.9418151674273,50.90423699190901,1.1005727055194223,53.45763556146556,2,b,0.8658409999998185,correct,b
290,2F4K,291,2,66.17635914554566,51.271853757335016,1.979712282509522,53.77859079220574,1,v,1.2664121000007071,correct,v
291,2F4K,292,1,58.96143865440837,44.21132896775544,1.7039029428982628,47.524035339572976,2,n,0.8439753000002383,correct,n
292,2F4K,293,1,48.944624302526506,36.49195454953717,1.3835154252270336,40.64413264804572,2,c,1.6730293999999049,incorrect,n
293,2F4K,294,1,48.308483009608224,71.7069384694552,1.3653345405999615,69.63324028308952,1,n,0.9639839999999822,incorrect,c
294,2F4K,295,2,66.82860660521007,50.64089331862603,2.006746245143564,53.22728772975819,1,v,0.893406899999718,correct,v
295,2F4K,296,2,51.46389285244277,39.363368788769286,1.4579252834865464,43.190547228439776,1,v,1.5040905000005296,correct,v
296,2F4K,297,1,61.165608276219416,52.66091910991381,1.7838177790572205,54.98450773222826,2,n,0.7211594000000332,correct,n
297,2F4K,298,2,21.0938806642648,39.951186429542695,0.7752945453823704,43.71462370528128,2,b,0.8607905000008031,correct,b
298,2F4K,299,1,54.14736738007651,40.30678724920895,1.5415920335703304,44.03198757424764,2,n,1.1181300000007468,correct,n
299,2F4K,300,1,64.77604949774542,58.76789331153184,1.922896997549482,60.12112310090358,2,n,0.6246090000004187,correct,n
300,2F4K,301,1,45.89383951466246,70.17583100464614,1.2984722529864736,68.6316189023745,1,c,1.6437416999997367,correct,c
301,2F4K,302,2,56.27490031454213,71.76846670725924,1.6113244396138229,69.67269700359408,2,v,0.8426246999997602,incorrect,b
302,2F4K,303,1,45.12664192716694,33.65476723304685,1.277921535871289,38.16114732526066,2,c,1.0550167999999758,incorrect,n
303,2F4K,304,1,57.489083730885255,46.15410333093957,1.6525254746860198,49.25899435198716,2,n,1.1218735000002198,correct,n
304,2F4K,305,1,63.96392326899864,54.66298334540102,1.8906963712058145,56.70093922756479,2,n,0.7468976999998631,correct,n
305,2F4K,306,2,68.67334490961979,56.89827730446797,2.08522107655734,58.58166180877819,1,v,0.794013100000484,correct,v
306,2F4K,307,2,23.386389285705228,45.603911854707526,0.8131490225565993,48.76826652172991,2,b,0.838974600000256,correct,b
307,2F4K,308,2,30.54511447814816,43.09991906537945,0.943669404616307,46.52972096691316,2,b,0.5512854999997217,correct,b
308,2F4K,309,1,42.291372318587165,50.70875417972138,1.2047561532051836,53.28667948641039,1,c,1.2384196000002703,correct,c
309,2F4K,310,2,64.60916741464031,52.85185930147801,1.916235695610596,55.14936632666381,1,v,0.6544739000000845,correct,v
310,2F4K,311,2,50.83794635708789,57.12180591788244,1.439071616525304,58.76741728590426,2,v,1.4001969000000827,incorrect,b
311,2F4K,312,2,48.40675757269836,63.74685338088239,1.3681275393682295,64.04176672306252,2,b,1.1037188999998762,correct,b
312,2F4K,313,2,43.48717207762837,58.24211051668723,1.235089134208886,59.691529172471895,2,b,1.0927616999997554,correct,b
313,2F4K,314,1,32.37405514221397,51.46929547444847,0.9802500084333704,53.95067264880982,1,c,0.8720133999995596,correct,c
314,2F4K,315,2,78.45743994903802,66.57772060168816,2.55570833043042,66.13521402513423,1,v,0.7954551999991963,correct,v
315,2F4K,316,2,41.01684600627521,24.914980958605124,1.1732458686291412,30.87054750490153,1,v,0.878117199999906,correct,v
316,2F4K,317,1,32.75670519424172,51.794802662112176,0.9880809562515324,54.2338994990543,1,c,1.000372000000425,correct,c
317,2F4K,318,2,46.505718390344974,62.369336390568826,1.3150991301139066,62.98564171782237,2,b,2.84067529999993,correct,b
318,2F4K,319,1,66.22652993737773,51.67911236043081,1.981778739221466,54.1333045457389,2,n,0.8784116999995604,correct,n
319,2F4K,320,1,42.3256013621284,25.6668923050862,1.2056139712968852,31.470011702311822,2,c,1.846250499999769,incorrect,n
320,2F4K,321,1,38.20177422328211,51.42143419065495,1.106538176887839,53.90897832558833,1,c,2.0204647999998997,correct,c
321,2F4K,322,2,69.05844417863453,47.724387543156496,2.1019863859651986,50.65565574428734,1,v,0.8655226000000766,correct,v
322,2F4K,323,1,41.96780282391346,56.26830464294666,1.1966772352649333,58.05579376003797,1,n,3.023534400000244,incorrect,c
323,2F4K,324,1,57.55424957970422,74.82797322627098,1.6547663062939997,71.55437992502571,1,n,0.6850504000003639,incorrect,c
324,2F4K,325,1,59.1750686943609,40.85552177981111,1.7114890484889616,44.52211660314878,2,n,1.9910374000000957,correct,n
325,2F4K,326,1,60.168046290380886,41.326416262681086,1.7471959154896155,44.943033698143495,2,n,0.9275591000005079,correct,n
326,2F4K,327,1,51.06839377353698,63.59207925281352,1.445984224947673,63.92427655203071,1,c,0.9690381999998863,correct,c
327,2F4K,328,2,55.086166063037645,38.00828746423904,1.5719823092306149,41.9855933224195,1,v,1.5975733000004766,correct,v
328,2F4K,329,1,33.17289802348162,47.11779891700984,0.9966694003127344,50.11691744079004,1,c,1.3280509999995047,correct,c
329,2F4K,330,2,65.76849809172577,54.68834722528904,1.9629928837531248,56.722502352192826,1,v,1.162972300000547,correct,v
330,2F4K,331,2,31.07747203542325,44.960718801981045,0.9541739210672432,48.1939149965665,2,b,0.9286434000005102,correct,b
331,2F4K,332,2,40.05055071625862,57.79888884886852,1.1499064700834951,59.32732378101352,2,b,1.334137799999553,correct,b
332,2F4K,333,1,47.36056774171092,54.74974308414653,1.338685469329587,56.774678097387,1,c,2.2325962999993862,correct,c
333,2F4K,334,1,52.64426508566098,35.514494785837016,1.494153068488497,39.784249166549,2,n,2.5965305999998236,correct,n
334,2F4K,335,2,46.439871234933385,34.74698613350919,1.313299658795389,39.11218894690317,1,b,2.5934440000000905,incorrect,v
335,2F4K,336,1,58.73272211582217,35.37118052897413,1.6958183754289744,39.6585382629359,2,n,1.3584267999995063,correct,n
336,2F4K,337,1,69.81281446631354,52.960875145120994,2.1352195708210218,55.24338714657352,2,n,1.1460244999998395,correct,n
337,2F4K,338,1,44.34516157359916,27.16986678800377,1.2573225892438824,32.68607109683688,2,c,1.3705882999993264,incorrect,n
338,2F4K,339,1,52.25460857040032,70.67852381054796,1.4820953410473423,68.96462038330561,1,n,2.2019985999995697,incorrect,c
339,2F4K,340,2,49.70935988027607,36.663958063278,1.4056922680219184,40.795867842655525,1,v,3.022763599999962,correct,v
340,2F4K,341,1,34.60529190329231,39.42295149270196,1.0268025309437878,43.24363564423986,1,c,0.885039499999948,correct,c
341,2F4K,342,2,33.817563996676725,50.67197212867562,1.0101201594922338,53.2544907379184,2,b,0.9215100999999777,correct,b
342,2F4K,343,2,61.6849398986395,50.37304225466978,1.8031859717882976,52.99264219559328,1,v,1.0175435999999536,correct,v
343,2F4K,344,2,51.399985998639096,61.40680360779072,1.4559891250876236,62.23415563234929,2,v,4.3579138000004605,incorrect,b
344,2F4K,345,1,68.58973079668957,56.37057891163899,2.0815986390018253,58.14139898467038,2,n,1.4676449999997203,correct,n
345,2F4K,346,2,51.32552725791256,39.487164343482696,1.453736523620511,43.30085835000514,1,v,4.023966899999323,correct,v
346,2F4K,347,2,55.77856249212295,37.52125927757316,1.594779399667735,41.55384141118399,1,v,2.130054199999904,correct,v
347,2F4K,348,2,64.91992439061059,46.10675131593363,1.9286585241612304,49.21678387816672,1,v,1.2674292000001515,correct,v
348,2F4K,349,2,29.10198117760266,46.77535375890595,0.9157714130697634,49.81232077560678,2,b,0.9830403999994815,correct,b
349,2F4K,350,1,64.37692711232873,54.64940491766074,1.9070039254729303,56.68939353558248,2,n,0.8061666000003243,correct,n
350,2F4K,351,1,54.86946575648941,72.21703343681236,1.5649146473624416,69.95846737516582,1,n,1.1959857000001648,incorrect,c
351,2F4K,352,1,46.23262954210648,59.814898923007945,1.307652211001891,60.9683345587324,1,c,1.6488178999998127,correct,c
352,2F4K,353,1,40.607391594320944,32.79324505724346,1.16329883135451,37.41589228481584,2,c,2.244507700000213,incorrect,n
353,2F4K,354,1,52.700363811570085,41.22489572680895,1.4958970751533176,44.85226695671247,2,n,3.1198251000005257,correct,n
354,2F4K,355,1,49.53286846132365,58.39851278005986,1.400542782136473,59.81960016441959,1,n,2.1198478000005707,incorrect,c
355,2F4K,356,1,52.081448818248006,67.24857573831365,1.4767682741119608,66.6151716496713,1,n,0.9275723999999173,incorrect,c
356,2F4K,357,1,60.34747499421743,43.92721932109411,1.753727081075199,47.2699263967088,2,n,0.8304497999997693,correct,n
357,2F4K,358,2,53.74900011592003,44.77735131064631,1.528874518806008,48.03006293066623,1,v,0.8716045000001031,correct,v
358,2F4K,359,2,67.07272884840542,55.797698038357474,2.0169591506774114,57.66075874084586,1,v,0.6801052000000709,correct,v
359,2F4K,360,2,54.79249914924963,41.918880229599,1.5624120428596702,45.47292133166983,1,v,1.115674300000137,correct,v
360,2F4K,361,2,47.597442885252526,38.55404465353259,1.3452956722629186,42.47028620009176,1,b,1.9833293000001504,incorrect,v
361,2F4K,362,2,68.05153851168438,55.23393779569745,2.05843252095735,57.18515190502559,1,v,0.806191000000581,correct,v
362,2F4K,363,1,50.28501685556135,67.08735861197972,1.4226201524923678,66.50041746916845,1,c,2.2566721999992296,correct,c
363,2F4K,364,2,30.12489626710402,44.31942263892636,0.935459362832027,47.62069704292959,2,b,0.7636829000002763,correct,b
364,2F4K,365,2,39.39081756594729,54.92001470774535,1.1342388888866888,56.91923008622329,2,b,0.9700110000003406,correct,b
365,2F4K,366,1,41.02709270549856,26.385130560585463,1.17349588359541,32.04825653946537,2,c,1.0913927999999942,incorrect,n
366,2F4K,367,1,39.05876301914785,59.34208613732875,1.1264340818932328,60.587134777901696,1,c,1.8561015000004772,correct,c
367,2F4K,368,2,68.92717821563276,54.706828373018986,2.096256629628206,56.73821107748816,1,v,1.3887998000000152,correct,v
368,2F4K,369,2,52.6243042390258,66.24312657883615,1.493533012886468,65.89345002172695,2,v,1.8453781999996863,incorrect,b
369,2F4K,370,1,53.351767239483365,37.06020329793416,1.516297685845098,41.14586410717041,2,c,1.1460154999995211,incorrect,n
370,2F4K,371,1,46.270609254353225,38.13144360931499,1.3086853580638027,42.0948919917502,2,c,3.320091499999762,incorrect,n
371,2F4K,372,1,39.21692709917464,58.14242033146723,1.1301449433055932,59.60977433002333,1,c,1.047723899999255,correct,c
372,2F4K,373,2,47.04548510038983,61.2355315174023,1.3299431275813671,62.09931508221224,2,v,1.657248499999696,incorrect,b
373,2F4K,374,2,44.96817132610269,36.7714739899499,1.273717327424673,40.89077453223371,1,b,1.218851900000118,incorrect,v
374,2F4K,375,1,45.94105300926072,63.31294814147349,1.2997476892000397,63.71162512312225,1,c,3.0408092000006945,correct,c
375,2F4K,376,2,66.17737863555774,57.42560635645606,1.9797542522585423,59.01916079964264,1,v,1.1399314000000231,correct,v
376,2F4K,377,1,65.92080517828441,80.32406231366934,1.9692198063628787,74.51583120529875,1,n,0.7831233999995675,incorrect,c
377,2F4K,378,1,51.317839137025935,60.75618724292631,1.4535041333689025,61.720177259485126,1,c,3.79347129999951,correct,c
378,2F4K,379,1,64.96734392056186,54.56165667491992,1.9305612378367951,56.6147483210184,2,n,2.124527799999669,correct,n
379,2F4K,380,2,60.78476772941566,42.73125552614004,1.769746879839636,46.19981241016561,1,v,2.2313609000002543,correct,v
380,2F4K,381,1,43.77281333833968,30.2987710427882,1.2424470768033788,35.28631996773925,2,c,2.3135701000001063,incorrect,n
381,2F4K,382,2,53.21244279964748,38.66426518593024,1.5119110707083403,42.5682779881622,1,v,2.2701661000000968,correct,v
382,2F4K,383,2,71.11319044192972,59.67387455435056,2.1937448115052627,60.85487870163672,1,v,0.762818299999708,correct,v
383,2F4K,384,2,30.433129774556303,47.275800695376496,0.941474479378844,50.25734906107298,2,b,0.6861808000003293,correct,b
384,2F4K,385,2,30.061714646455357,45.15259034683254,0.9342311400710372,48.36531702295545,2,b,0.7883527000003596,correct,b
385,2F4K,386,1,52.77145720929817,64.25584699989149,1.4981101635325846,64.42599688695722,1,n,2.2383059000003414,incorrect,c
386,2F4K,387,1,63.74605818048498,56.19935832886187,1.8821501769167093,57.99803463871325,2,n,0.8425901999999041,correct,n
387,2F4K,388,1,61.6074329766769,47.11852427554904,1.8002820976145175,50.11756229655947,2,c,1.013053900000159,incorrect,n
388,2F4K,389,1,45.32268788650614,56.92906185025282,1.2831418223497983,58.60727054699491,1,c,0.9154092999997374,correct,c
389,2F4K,390,1,48.92726277019235,34.676034501613785,1.3830160346055542,39.0502112098871,2,n,1.6147206000005099,correct,n
390,2F4K,391,2,42.78940015715923,25.84365922914705,1.2172976753368592,31.611822944838547,1,v,1.158144799999718,correct,v
391,2F4K,392,2,45.26368451080543,32.958001100712536,1.2815684488326509,37.55805746994808,1,v,0.7822145999998611,correct,v
392,2F4K,393,1,50.26289247366207,71.38286534820082,1.4219658072923167,69.42439647200203,1,n,0.8066158000001451,incorrect,c
393,2F4K,394,1,57.13099419353438,61.55557287453536,1.640266036199444,62.35100844041201,1,n,0.9035366999996768,incorrect,c
394,2F4K,395,2,44.66347066904583,57.41304276075861,1.2656724759718196,59.00876661265495,2,v,0.995720099999744,incorrect,b
395,2F4K,396,2,49.53452975095336,60.65617436110944,1.4005911654882517,61.64074982019558,2,v,2.755702000000383,incorrect,b
396,2F4K,397,2,33.81432289296366,44.5052047695204,1.0100520828623745,47.78680461488996,2,b,0.7319817999996303,correct,b
397,2F4K,398,2,58.93825695278727,77.45505305868176,1.703081774535795,73.03928457235297,2,v,1.382745600000817,incorrect,b
398,2F4K,399,2,48.36414062069373,60.57154027791847,1.366915649190136,61.57344987205104,2,b,2.5747333999997863,correct,b
399,2F4K,400,2,56.50952021769792,48.109335803892606,1.6192049510998887,50.99695553963009,1,v,1.9046705000000657,correct,v
