,condition,trial,sub_task,x,y,xt,yt,cat,resp,rt,acc,correct_resp
0,4F4K,1,2,27.63181832108396,37.17348615690387,0.8881988137691098,41.21309554668063,2,b,2.0517017000001943,correct,b
1,4F4K,2,1,39.089386457593776,29.97352156508172,1.1271516196131734,34.913023961780965,2,c,3.6834438999994745,incorrect,n
2,4F4K,3,2,53.53223401894307,40.77890080429943,1.5219985881626008,44.45473926738086,1,b,1.8429231999998592,incorrect,v
3,4F4K,4,2,78.16195665897881,59.03759866376764,2.540053175370767,60.510034568688425,1,b,2.0503368000008777,incorrect,v
4,4F4K,5,1,68.24007243856204,46.8452195090568,2.0665183481842204,49.93307767176022,2,n,1.425223800000822,correct,n
5,4F4K,6,1,65.19856158122235,50.07095448037788,1.9398657963393096,52.81644219781345,2,n,1.07339089999914,correct,n
6,4F4K,7,2,43.75263146315697,66.25151403669618,1.2419257680668938,66.12810448436394,2,v,1.753019800000402,incorrect,b
7,4F4K,8,1,40.80415170986094,56.67332796575512,1.1680682323702372,58.543242620231446,1,n,1.0199728000006871,incorrect,c
8,4F4K,9,2,44.660215533644106,26.397793692021388,1.2655868072254768,31.928103885108168,1,v,1.3099966999998287,correct,v
9,4F4K,10,1,64.73862324830093,54.47580948515814,1.921401071725176,56.67097546959446,2,c,1.9590692999991006,incorrect,n
10,4F4K,11,1,26.577582805872574,41.16522952216688,0.8689394074346939,44.80367483568667,1,c,2.0759765000002517,correct,c
11,4F4K,12,2,65.35475726306527,52.50681029229364,1.9461767197464173,54.96266267418717,1,b,4.593579899999895,incorrect,v
12,4F4K,13,2,55.7405353685238,65.92021913468034,1.593518823445656,65.88466999827237,2,v,0.8365520999996079,incorrect,b
13,4F4K,14,1,64.03065094737893,54.58601521133282,1.8933216526063517,56.76578086778348,2,n,1.718965300000491,correct,n
14,4F4K,15,2,67.4525100999003,57.38427751967411,2.0329508034528403,59.14019088608487,1,v,2.5681894999997894,correct,v
15,4F4K,16,1,43.94216237754218,61.907020960823424,1.2468300847991745,62.81989559174089,1,c,2.202029699999912,correct,c
16,4F4K,17,1,40.0570463554108,31.379743845143015,1.1500618019122275,36.11722389520688,2,c,3.6963843000012275,incorrect,n
17,4F4K,18,1,49.49727073410631,34.586883920536465,1.3995064364684426,38.91531709648034,2,n,2.4695415000005596,correct,n
18,4F4K,19,1,34.61161890907254,48.13467231413073,1.0269376325296915,51.0901348045764,1,n,1.8696497000000818,incorrect,c
19,4F4K,20,2,69.80440705505525,54.222252427587335,2.1348463089863032,56.45250867354702,1,b,0.9154077999992296,incorrect,v
20,4F4K,21,1,31.838459169809635,47.53164765137653,0.969393137853706,50.54965301940855,1,c,1.1474330000000919,correct,c
21,4F4K,22,2,37.18515033550978,50.58737113671943,1.0833913746655817,53.27408495712735,2,b,2.9913995999995677,correct,b
22,4F4K,23,1,61.11113517041812,57.03416323040425,1.7817983277127774,58.84678623821026,2,n,1.760406100000182,correct,n
23,4F4K,24,1,48.327594860260064,53.67790431257448,1.3658772593643542,55.98192304885472,1,n,2.43401939999967,incorrect,c
24,4F4K,25,2,62.92029788723856,58.22996213206481,1.85010728972764,59.84418875279263,1,v,2.4643593999990117,correct,v
25,4F4K,26,1,38.84946829122328,54.120943457328686,1.121542311439505,56.36508838151052,1,c,1.212809999999081,correct,c
26,4F4K,27,2,51.20116517427846,41.22009283578953,1.4499819642373286,44.85324212829631,1,v,3.077314699999988,correct,v
27,4F4K,28,1,62.9458543804324,46.55465430721284,1.851090757866838,49.67169977261668,2,n,1.8746979999996256,correct,n
28,4F4K,29,1,75.16816649286048,61.46101483425281,2.386745922755817,62.4669118636119,2,n,0.8440233000001172,correct,n
29,4F4K,30,1,31.90883140978494,47.41850913216375,0.97081273733817,50.4481209851516,1,c,1.9774950000009994,correct,c
30,4F4K,31,1,70.74649930818923,60.37029200985702,2.1770808402299395,61.59409018724896,2,n,5.0,correct,n
31,4F4K,32,1,53.915342246044936,40.37451726217539,1.5341720331698585,44.08971413863498,2,n,0.727966500000548,correct,n
32,4F4K,33,1,48.8076335228325,57.2112072540963,1.3795798915717208,58.995293155632346,1,c,1.0877139000003808,correct,c
33,4F4K,34,1,39.255492676699525,54.240053784493696,1.1310516250131897,56.467861887580405,1,c,0.7880991000001814,correct,c
34,4F4K,35,2,43.15237740359462,63.52840438606082,1.2265204786446364,64.08296162831193,2,b,0.9661226000007446,correct,b
35,4F4K,36,1,42.83675817196868,50.43207801047106,1.218497038919168,53.13660239987328,1,c,0.9221202000007906,correct,c
36,4F4K,37,2,65.65407597058176,53.00517082318003,1.9583278061729716,55.397512131122056,1,v,1.086148200000025,correct,v
37,4F4K,38,1,55.359938814954695,44.27998264612094,1.580957039089579,47.6197362094531,2,n,0.6558506999990641,correct,n
38,4F4K,39,1,28.82207548838105,38.79070072320735,0.9104566704582626,42.66300604281178,1,c,0.6534425999998348,correct,c
39,4F4K,40,1,47.50423061183983,68.81702611420926,1.34269061824081,67.95951870538197,1,c,1.2795882000009442,correct,c
40,4F4K,41,1,63.083678775687815,48.5918549797429,1.8564035522929083,51.49907536772953,2,n,1.5113096999994013,correct,n
41,4F4K,42,2,39.45042044086174,27.552482204365464,1.1356455439673026,32.878839146044776,1,b,2.6282069999997475,incorrect,v
42,4F4K,43,2,52.76008087178995,36.71742860487734,1.4977558060841132,40.80584849876456,1,v,0.7091262999983883,correct,v
43,4F4K,44,2,49.41376763085057,66.8616305885333,1.3970784445769562,66.5723560687723,2,b,1.652497000000949,correct,b
44,4F4K,45,1,43.73815358992024,52.582666418073615,1.2415519315245511,55.028953374334215,1,n,0.8850927000003139,incorrect,c
45,4F4K,46,1,43.58332608257063,68.19850815700065,1.237561123844798,67.52690892157672,1,n,0.813646399999925,incorrect,c
46,4F4K,47,1,35.60536870777203,51.6268443599118,1.048379509170483,54.19111301282951,1,c,0.5445099000007758,correct,c
47,4F4K,48,1,35.84186325538063,46.62560318274963,1.05354789216867,49.73554123340438,1,c,0.9206849999991391,correct,c
48,4F4K,49,1,37.16160769594161,52.40805852818104,1.082861124342397,54.87630983778039,1,c,0.5829997000000731,correct,c
49,4F4K,50,1,41.54727358005318,49.43732015785864,1.1862583212847375,52.25322589615132,1,c,1.0368336999999883,correct,c
50,4F4K,51,1,49.79655056307815,60.35521900567727,1.408243211377712,61.58193549221341,1,c,0.7104775999996491,correct,c
51,4F4K,52,2,46.0706728796255,33.09773263555202,1.30325571497795,37.607985192662376,1,v,0.933676500000729,correct,v
52,4F4K,53,1,45.00416904505333,62.61205709710757,1.2746711274082858,63.373073601820245,1,c,0.6133355000001757,correct,c
53,4F4K,54,2,55.03788219444463,51.12029210334244,1.5704047763349422,53.74495161374557,1,v,1.2907635000010487,correct,v
54,4F4K,55,1,44.72339016433861,52.95316544644588,1.267250475211925,55.35220886306005,1,c,1.396238600000288,correct,c
55,4F4K,56,2,65.41887138657356,48.13960645892983,1.9487731235383916,51.094552241790105,1,b,1.006206199999724,incorrect,v
56,4F4K,57,1,56.339462698339005,44.02002259783938,1.613489155119911,47.38477750753294,2,c,0.5102077999999892,incorrect,n
57,4F4K,58,1,31.30844155408584,47.47577538445374,0.9587677231071544,50.4995173085206,1,n,2.263199999999415,incorrect,c
58,4F4K,59,2,45.75645882396872,31.386946180925428,1.2947681342730424,36.12343045721546,1,v,0.7929478000005474,correct,v
59,4F4K,60,2,48.79566101828232,65.97166359416373,1.3792364724114252,65.9225719378234,2,v,1.7967478999999003,incorrect,b
60,4F4K,61,1,36.6095455629478,55.17006020891057,1.0705011658271588,57.26666664411266,1,c,2.055175900000904,correct,c
61,4F4K,62,1,41.074192679116095,27.382254082017464,1.1746457877552845,32.73784643950881,2,n,0.9397082000014052,correct,n
62,4F4K,63,2,53.61030941304264,38.34509915068103,1.5244716088175705,42.26269415561693,1,b,1.2809751000004326,incorrect,v
63,4F4K,64,2,28.91690695585867,50.6582731654364,0.912253830467946,53.33681519402868,2,v,1.2616672000003746,incorrect,b
64,4F4K,65,1,53.80261633732089,41.48021737795793,1.530580039078487,45.08829853848,2,c,1.2566318999997748,incorrect,n
65,4F4K,66,1,32.966483372019574,43.37636956683678,0.992400592138756,46.80283029259121,1,n,0.8729666999988694,incorrect,c
66,4F4K,67,1,73.94135177112237,57.14623647749616,2.32662798974304,58.94082777829569,2,n,1.2856393000001844,correct,n
67,4F4K,68,1,55.24903749051926,65.97786794358277,1.577315350176726,65.9271405266984,1,c,1.0624787000015203,correct,c
68,4F4K,69,1,50.90077354667775,69.84486556382996,1.44095292702915,68.66540467696694,1,c,0.563305699999546,correct,c
69,4F4K,70,1,30.20817228262625,48.17601351987816,0.9370806788085836,51.12714413242152,1,n,0.6751033000000461,incorrect,c
70,4F4K,71,2,51.65423404959945,71.40423050962585,1.4637072362523738,69.70432845391434,2,v,2.403728499999488,incorrect,b
71,4F4K,72,1,51.334846919476135,37.316724308332,1.4540182805736317,41.34116497881292,2,c,2.4765157000001636,incorrect,n
72,4F4K,73,1,47.99876519971123,32.95505445984695,1.356569494433172,37.483427281151286,2,n,0.7262042000002111,correct,n
73,4F4K,74,1,48.02505494100467,53.4589894715262,1.357311306323635,55.79208570918863,1,n,0.9591235000007146,incorrect,c
74,4F4K,75,1,42.17220299110753,28.53774020344841,1.20177439539617,33.70030036178328,2,n,0.8972052999997686,correct,n
75,4F4K,76,1,35.95557098961742,43.91848420791494,1.0560419386713285,47.29298986683268,1,n,2.33553639999991,incorrect,c
76,4F4K,77,1,68.09841408031608,49.46201219195861,2.0604399563688887,52.2752070183116,2,c,0.9877414000002318,incorrect,n
77,4F4K,78,2,51.77139737269095,37.99707711035708,1.4672776764983628,41.95044737713662,1,b,1.5091156999988016,incorrect,v
78,4F4K,79,2,67.93229355660208,52.57831585094817,2.0533346946827256,55.02515238498379,1,v,0.9944450999992114,correct,v
79,4F4K,80,1,64.58178830717195,41.73195795872252,1.9151450307903768,45.31583704868137,2,c,1.6194874000011623,incorrect,n
80,4F4K,81,1,72.00394851208091,59.65591146712491,2.234757757868087,61.0153219286163,2,c,4.951528099998541,incorrect,n
81,4F4K,82,1,59.64645899814869,42.60979180456137,1.7283480466547785,46.10957391393315,2,c,0.873323399999208,incorrect,n
82,4F4K,83,2,50.84695190239084,37.26780583123119,1.4393411295780478,41.29741848451099,1,b,1.273507600000812,incorrect,v
83,4F4K,84,2,45.05386824200198,67.66055787575816,1.2759891372991774,67.14597037990491,2,v,0.7336918999990303,incorrect,b
84,4F4K,85,2,26.70087009768461,41.56227101373214,0.8711699542281017,45.16245786604509,2,b,0.42387179999968794,correct,b
85,4F4K,86,1,37.04465846907407,50.64697548246515,1.0802309238062855,53.326821318564406,1,n,1.3705458000004,incorrect,c
86,4F4K,87,2,46.2826619663278,31.94085600444616,1.3090133938028163,36.60188436121975,1,b,0.9955785000001924,incorrect,v
87,4F4K,88,1,64.6908718080348,81.40748658378045,1.919494137918267,75.35839568472711,1,c,0.4905787000006967,correct,c
88,4F4K,89,2,43.58185304716461,27.24853459854833,1.2375232168017671,32.627290715384646,1,v,3.072335999999268,correct,v
89,4F4K,90,1,63.38409466980816,55.20286505523261,1.8680367532897093,57.29472202346891,2,c,1.9713883000003989,incorrect,n
90,4F4K,91,2,47.26763851210031,36.26850607446437,1.3361010793274204,40.40578352243698,1,v,1.1812171999990824,correct,v
91,4F4K,92,2,43.97701505945586,51.90229558076869,1.2477340413915283,54.43311961025756,2,v,1.1095934999993915,incorrect,b
92,4F4K,93,1,60.99866975570952,44.83489853925213,1.7776361892987094,48.12105895464055,2,n,0.9465887999995175,correct,n
93,4F4K,94,2,36.01921402809863,49.65710401382801,1.0574404506671746,52.44878713466505,2,b,1.3029737999986537,correct,b
94,4F4K,95,1,48.802031155289285,66.23955707170991,1.3794191826927489,66.11934533754109,1,n,1.0173647000010533,incorrect,c
95,4F4K,96,2,44.55145246301191,62.910720924151306,1.2627277088857063,63.60559143370511,2,v,1.2553248000003805,incorrect,b
96,4F4K,97,2,33.879340865205016,45.536728933712624,1.011418607680496,48.754523362568776,2,v,0.6617953999993915,incorrect,b
97,4F4K,98,2,55.67094531569023,33.90796514277818,1.5912145347598732,38.31769315894076,1,b,1.0367472999987513,incorrect,v
98,4F4K,99,2,54.78433064709453,68.36870750224517,1.5621466752957884,67.64652965124066,2,v,0.7517483999999968,incorrect,b
99,4F4K,100,2,63.10458451624296,48.021482019970776,1.8572107484120053,50.98877506906443,1,b,0.7893547999992734,incorrect,v
100,4F4K,101,2,50.4084011870226,62.796357488967686,1.4262748626430517,63.51668584934899,2,b,0.7758544999996957,correct,b
101,4F4K,102,1,37.33918609472501,21.541159844738864,1.086867131371391,28.09048468852246,2,c,0.9116938000006485,incorrect,n
102,4F4K,103,2,49.89107561178567,43.33727617579014,1.4110139667563184,46.767478424031225,1,b,0.7637883000006696,incorrect,v
103,4F4K,104,1,51.8690539549971,36.39406670930778,1.4702603216303411,40.51759461536917,2,n,0.7116112000003341,correct,n
104,4F4K,105,1,62.483794323053765,46.77598128303328,1.833390152589157,49.87081376805292,2,c,2.875781200000347,incorrect,n
105,4F4K,106,1,51.8467844386194,66.59191852731277,1.469579628785719,66.37662144945362,1,c,0.8244264999993902,correct,c
106,4F4K,107,2,38.56831139415711,51.34780130962479,1.1150043525029971,53.94551204882426,2,v,2.494678799999747,incorrect,b
107,4F4K,108,1,32.06949780055721,48.9246052443454,0.9740616115905552,51.79622676480227,1,c,2.0980620000009367,correct,c
108,4F4K,109,2,59.49476949349954,43.57611253454594,1.7229049169195203,46.9834474704361,1,b,2.55001380000067,incorrect,v
109,4F4K,110,1,43.16552186274373,32.37970838450404,1.2268557709563397,36.98248788348458,2,n,1.2370654999995168,correct,n
110,4F4K,111,2,40.25071766062166,55.05710659924967,1.15470276357408,57.170001692576655,2,b,1.2249365000006947,correct,b
111,4F4K,112,2,45.68871596997776,57.74538180153306,1.2929455133395371,59.44162225130843,2,b,1.5347520999985136,correct,b
112,4F4K,113,2,42.73457501352693,48.0562810730388,1.2159106776082202,51.01994158432838,2,b,0.6861865999999281,correct,b
113,4F4K,114,2,50.58032339148143,38.170564607573255,1.4313829516067298,42.10605481940426,1,b,3.398942600000737,incorrect,v
114,4F4K,115,2,48.02374333294176,61.30841631684896,1.3572742873530523,62.34560992892311,2,v,0.5830108999998629,incorrect,b
115,4F4K,116,2,45.28427908656202,57.43884040211152,1.2821174008302347,59.18581491268745,2,b,0.9765763000013976,correct,b
116,4F4K,117,1,56.30614448934906,63.98115336865871,1.6123716642683386,64.42979665940575,1,n,2.65241369999967,incorrect,c
117,4F4K,118,1,55.29393940867083,41.86192322453826,1.5787887917102237,45.43332649397222,2,c,1.328525200000513,incorrect,n
118,4F4K,119,1,51.45834322355783,67.09992913487814,1.4577570467379346,66.74442247666727,1,c,1.6497459000001982,correct,c
119,4F4K,120,2,59.24191254242712,75.08341921991314,1.7138696359879562,71.99428202639545,2,v,2.9195313999989594,incorrect,b
120,4F4K,121,2,70.7205943088484,56.98372034642635,2.175908407619373,58.80442226584896,1,b,2.511649000000034,incorrect,v
121,4F4K,122,2,78.53570175035856,66.10960508873445,2.5598708978354674,66.02401852749661,1,v,0.8181757000002108,correct,v
122,4F4K,123,1,47.926425454401965,38.64971979033014,1.3545303915799505,42.53629433637015,2,n,0.5879733000001579,correct,n
123,4F4K,124,1,60.18256241055705,45.76183899661592,1.7477233935796488,48.95753345463535,2,n,1.9040031000004092,correct,n
124,4F4K,125,1,53.69233283601827,58.27176863339898,1.5270740107387135,59.87881372123881,1,n,1.073683999999048,incorrect,c
125,4F4K,126,2,44.268004421147104,58.5019762339653,1.255306910701639,60.06917019833996,2,b,1.27958419999959,correct,b
126,4F4K,127,2,39.34754328541139,55.4727748686214,1.1332186879514832,57.52522989612502,2,b,1.2870433000007324,correct,b
127,4F4K,128,2,51.41809780740238,44.79159390544023,1.4565375895040875,48.08194950683483,1,v,1.3280871999995725,correct,v
128,4F4K,129,1,57.46144530360426,41.64775462626383,1.6515759999540005,45.23972323067233,2,n,0.856080400000792,correct,n
129,4F4K,130,2,55.10559685962706,40.71918444580644,1.5726176002515844,44.40082005411516,1,b,3.9389596000000893,incorrect,v
130,4F4K,131,1,35.703988416279394,48.49084127813857,1.0505316681168682,51.40878564442711,1,c,1.4131882000001497,correct,c
131,4F4K,132,1,41.0450752163239,54.61133905611975,1.1739347777718454,56.7875530459419,1,c,2.5795558000008896,correct,c
132,4F4K,133,1,57.511262869883765,46.846531443182094,1.6532877988992485,49.934257335887615,2,n,0.897144999999,correct,n
133,4F4K,134,1,48.53213105955504,51.58693981230369,1.3716989948909244,54.15601758642057,1,n,1.5653931999986526,incorrect,c
134,4F4K,135,2,35.28577494950073,50.27391515723441,1.04143532519638,52.99645750032701,2,b,0.9629259999983333,correct,b
135,4F4K,136,2,42.559437757650926,53.82759890311941,1.2114905343495133,56.11154283277469,2,b,0.7155189999994036,correct,b
136,4F4K,137,2,52.33163456371668,60.67957931550831,1.484471130877257,61.84294391678053,2,v,0.8608418000003439,incorrect,b
137,4F4K,138,2,40.61237504256843,27.649634489370086,1.1634193878078076,32.95943205082149,1,v,1.2759624999998778,correct,v
138,4F4K,139,2,64.5406154269175,44.77604316399739,1.9135060504957664,48.06790468006432,1,b,1.4244828000009875,incorrect,v
139,4F4K,140,1,41.16581799871479,56.28174612611484,1.1768859678769017,58.212540671308574,1,n,1.6610839999993914,incorrect,c
140,4F4K,141,1,56.44318957218242,42.37064673962212,1.6169731099310125,45.89330814394659,2,c,2.51276450000114,incorrect,n
141,4F4K,142,1,54.44080197687395,69.32617744354721,1.551027277950509,68.31124079232879,1,n,0.8668472000008478,incorrect,c
142,4F4K,143,2,40.65026754499214,55.03367749379969,1.1643364682096156,57.14993871707782,2,b,0.8668710999991163,correct,b
143,4F4K,144,2,30.56723864295642,45.17873244783816,0.9441036481697268,48.431493197837135,2,b,1.5661221999998816,correct,b
144,4F4K,145,2,51.110865210614485,28.314303960559187,1.4472618370548995,33.513215990837146,1,v,1.8563111999992543,correct,v
145,4F4K,146,1,51.18414090187215,69.21579566675202,1.4494687472701917,68.23532921959803,1,c,0.9700474999990547,correct,c
146,4F4K,147,1,36.74907352501389,53.136656855005576,1.073611630657784,55.51197405218438,1,n,0.8243597000000591,incorrect,c
147,4F4K,148,2,42.06265171528593,55.26990759643579,1.199039803497301,57.352031731904,2,v,0.854944800001249,incorrect,b
148,4F4K,149,2,33.68215197132947,44.18649129913613,1.0072798498672493,47.53524291858283,2,b,0.8971117000000959,correct,b
149,4F4K,150,2,71.46914736974645,52.199329376285895,2.210042971218596,54.69359095547132,1,v,0.5880814000011014,correct,v
150,4F4K,151,2,53.230390929119245,36.99460258663081,1.51247545277171,41.053262283112375,1,v,0.7832728999983374,correct,v
151,4F4K,152,2,49.32281884477795,68.74276169858946,1.3944387492441603,67.90788344265962,2,v,0.7157110000007378,incorrect,b
152,4F4K,153,2,33.046171818604776,50.14367051430335,0.994046437282286,52.880959890470784,2,v,1.9107046999997692,incorrect,b
153,4F4K,154,2,49.34404266317184,61.77768596267299,1.3950543023371442,62.717775311992135,2,b,0.7215396999999939,correct,b
154,4F4K,155,2,39.36797277020229,54.637704605154624,1.1337002032717836,56.81021569592599,2,b,1.1401126000000659,correct,b
155,4F4K,156,2,61.16583344652759,44.62395628221216,1.783826131419875,47.93053009925983,1,b,0.8183439000004,incorrect,v
156,4F4K,157,1,55.24158595487673,70.00651753747256,1.5770709635807991,68.77491668934451,1,n,0.6619104999990668,incorrect,c
157,4F4K,158,2,64.66139931640606,47.93941379054469,1.9183181109413483,50.91525754166665,1,v,2.1281240999996953,correct,v
158,4F4K,159,2,66.14871527906828,58.62601505459981,1.978574595599019,60.1715203071008,1,v,0.8851102000007813,correct,v
159,4F4K,160,1,48.77854541241285,33.50224410767921,1.3787456770565945,37.961813825649706,2,c,2.561433999999281,incorrect,n
160,4F4K,161,2,40.81548782097876,56.47982256045492,1.1683436109852592,58.37998797808349,2,v,2.7676138000006176,incorrect,b
161,4F4K,162,2,33.3733660699176,46.28470811851104,1.0008328039435952,49.42868683929458,2,b,0.8914719999993395,correct,b
162,4F4K,163,1,39.60069526300711,45.01925378423004,1.139199847184862,48.28752681082949,1,c,1.0010429000012664,correct,c
163,4F4K,164,2,36.619277385198046,53.24910614724016,1.0707178224517164,55.60977327685827,2,b,0.6511930000015127,correct,b
164,4F4K,165,2,69.96959692068256,54.90544719872628,2.142192172428935,57.04005608873119,1,v,1.1872568999988289,correct,v
165,4F4K,166,2,42.77925771089292,54.186130983088674,1.2170409667316455,56.42134775409683,2,b,1.0382575000003271,correct,b
166,4F4K,167,2,52.58189710106327,37.91281006673851,1.4922165487503731,41.87489928784461,1,v,1.7094907999999123,correct,v
167,4F4K,168,2,59.01731681004205,44.00913367585225,1.7058839497204907,47.37493461368225,1,v,1.443415499999901,correct,v
168,4F4K,169,2,36.65403271205973,25.284194324985496,1.0714919278037718,31.024254492277127,1,b,1.3463314000000537,incorrect,v
169,4F4K,170,1,61.32425364679096,43.25700753842568,1.7897122001675352,46.694890619632616,2,n,1.7846726000007038,correct,n
170,4F4K,171,1,46.35657554822296,55.08531151770114,1.311026880899542,57.19414864017784,1,c,0.8001260000000912,correct,c
171,4F4K,172,2,34.2292963074854,47.11727355880197,1.01880566674378,50.1776050807912,2,b,0.8318636999993032,correct,b
172,4F4K,173,2,69.86929539981307,51.507729283697934,2.13772883383338,54.08632656966064,1,v,0.5284437999998772,correct,v
173,4F4K,174,2,52.16234626549281,36.55446409369741,1.4792546067243957,40.66052380996298,1,v,1.7291177000006428,correct,v
174,4F4K,175,1,56.07378510370571,39.71548243248932,1.6045998339902945,43.4954104282668,2,c,1.0138586000011856,incorrect,n
175,4F4K,176,1,24.54128056769516,37.41493315402549,0.8329134051883986,41.42901651845461,1,c,0.9448307000002387,correct,c
176,4F4K,177,2,53.20424077011494,58.71515582679713,1.5116532265739582,60.244980024272834,2,b,0.8429066999997303,correct,b
177,4F4K,178,1,50.64547452323766,34.12381523668595,1.433323474364119,38.507417364301496,2,c,0.8428647000000637,incorrect,n
178,4F4K,179,2,58.02081653277685,44.258585304975895,1.670898960410619,47.60039894915101,1,v,1.1241386000001512,correct,v
179,4F4K,180,1,39.597331589158976,53.17050435997117,1.1391201679189864,55.54142069783593,1,n,0.6306446999988111,incorrect,c
180,4F4K,181,1,53.63752627624447,40.35318844928111,1.525334641075884,44.0704682309305,2,n,0.8669013000017003,correct,n
181,4F4K,182,1,51.08419270011491,36.77730050833668,1.4464593513810535,40.85926644851754,2,n,1.1339227999997092,correct,n
182,4F4K,183,1,28.98290789618953,49.40201920431526,0.9135067136872296,52.22179607147574,1,c,0.6906794999995327,correct,c
183,4F4K,184,1,21.812803561731418,35.95136531226029,0.7869719429053578,40.123674716361805,1,c,0.6801842999993823,correct,c
184,4F4K,185,2,47.86526062316033,64.31855238843757,1.3528086772511188,64.68654569047598,2,v,1.9470741999994061,incorrect,b
185,4F4K,186,2,31.602923923780203,50.81451641031145,0.964656835176974,53.47496062975632,2,v,1.3951458000010462,incorrect,b
186,4F4K,187,2,68.74068379459256,60.242758098702886,2.08814300007154,61.49117000777599,1,b,0.5041388000008737,incorrect,v
187,4F4K,188,2,28.39726981986696,39.244788615665655,0.9024494916944212,43.07148312981252,2,b,0.7033649999993941,correct,b
188,4F4K,189,1,57.02934829504597,42.6045471340107,1.636802721380801,46.10483087544368,2,n,1.370646700001089,correct,n
189,4F4K,190,1,56.85237907636898,52.34234519018408,1.6307904034623557,54.81881389613563,2,n,0.583048599999529,correct,n
190,4F4K,191,1,42.27044199286115,32.42510758413172,1.2042319165916309,37.02193626720727,2,c,0.8001159999985248,incorrect,n
191,4F4K,192,2,50.288101501853504,61.23170871414108,1.4227114071358675,62.284533311478334,2,v,0.9389731000010215,incorrect,b
192,4F4K,193,1,53.10025718447716,70.36093527830766,1.5083881435260922,69.01356621490861,1,n,0.47377289999894856,incorrect,c
193,4F4K,194,1,73.01277368533515,61.32846088862273,2.2821335345565505,62.36155882805778,2,n,0.6558375999993586,correct,n
194,4F4K,195,1,49.85773745222068,70.06895716778031,1.410036123778832,68.81710592791838,1,n,0.7752999000003911,incorrect,c
195,4F4K,196,2,49.19335930631478,38.954079999268274,1.3906899189926427,42.80991489374048,1,v,1.3719769999988785,correct,v
196,4F4K,197,1,59.82359023294711,52.8035822909667,1.7347258796325338,55.22180522729516,2,n,1.69129090000024,correct,n
197,4F4K,198,1,39.89828282264197,49.54748598393204,1.1462712542883031,52.35127646878761,1,n,1.1217753000000812,incorrect,c
198,4F4K,199,1,52.76758848513632,38.50339275937253,1.4979896486274953,42.40483533181388,2,c,0.8804638999990857,incorrect,n
199,4F4K,200,1,54.31506584784276,37.03365645422716,1.5469772445398056,41.08814680069172,2,n,0.7264687999995658,correct,n
200,4F4K,201,1,59.63748342418602,48.136511795602345,1.7280254947426197,51.091781663864666,2,n,1.4735715000006167,correct,n
201,4F4K,202,1,32.18163676313128,45.66469330032709,0.9763356412978772,48.86993630117683,1,n,2.4757169999993494,incorrect,c
202,4F4K,203,2,28.67289488475985,51.18348423559571,0.9076366976894858,53.80068664727832,2,v,0.8183441999990464,incorrect,b
203,4F4K,204,2,41.00957202072114,54.21522221126096,1.173068418900856,56.446444655347854,2,b,0.6437052000001131,correct,b
204,4F4K,205,1,37.468375899266704,52.83279522539932,1.0897908454081862,55.24728382331148,1,n,0.9168018000000302,incorrect,c
205,4F4K,206,2,49.95714267184883,65.43633306158415,1.4129537864604405,65.52637048660748,2,v,0.5816646999992372,incorrect,b
206,4F4K,207,2,66.56842219982119,54.5793467146306,1.995918298235898,56.76004682471572,1,b,1.0064796000006027,incorrect,v
207,4F4K,208,1,46.050454148658005,64.7869417759436,1.3027078936278655,65.04049660476691,1,c,0.6558986000000004,correct,c
208,4F4K,209,1,49.38117879714893,61.33071184788466,1.3961320130889936,62.363349564542986,1,c,0.9876356999993732,correct,c
209,4F4K,210,2,44.55655819347141,53.85770947055646,1.2628617806625622,56.13759640410498,2,v,0.7711300999999366,incorrect,b
210,4F4K,211,2,51.331854450889296,63.36294806892902,1.453927804723957,63.95555988278995,2,b,0.5998292999993282,correct,b
211,4F4K,212,1,37.19713527891872,48.888617538579055,1.083661410994776,51.76410980725602,1,n,0.8925764000014169,incorrect,c
212,4F4K,213,1,39.43091447713419,49.934496490489,1.1351850023794503,52.69530249441111,1,c,0.7030162999999447,correct,c
213,4F4K,214,1,18.329004858345748,36.23780999335116,0.7319769611470329,40.37845903972488,1,n,0.8621824999991077,incorrect,c
214,4F4K,215,2,68.16350893359458,45.76154888828778,2.0632308757856133,48.95727188768159,1,b,0.9815732999995816,incorrect,v
215,4F4K,216,1,57.44582247089538,48.21384629448716,1.6510395434449658,51.16100746900781,2,c,1.7599933000001329,incorrect,n
216,4F4K,217,1,43.78969841943141,59.76227591209562,1.2428833956886658,61.10184089237362,1,n,1.3039523999996163,incorrect,c
217,4F4K,218,2,51.47722249038443,27.480397771985565,1.458329450185622,32.81910030022058,1,v,0.6133379000002606,correct,v
218,4F4K,219,2,39.3082186573903,26.691952529329253,1.132292396810288,32.16903149233934,1,b,1.8743109999995795,incorrect,v
219,4F4K,220,1,60.344181471816285,45.20630028488745,1.7536069779041237,48.456375711848175,2,c,0.8621741000006296,incorrect,n
220,4F4K,221,2,58.98175535473728,45.1770647078257,1.7046229495122045,48.42998787164,1,b,0.7697566999995615,incorrect,v
221,4F4K,222,1,73.59876317182908,55.02208544954878,2.31011215429422,57.14001055437439,2,n,2.135361399999965,correct,n
222,4F4K,223,2,62.76800350956092,43.461923336737904,1.8442575033807789,46.880194079150456,1,v,2.1544439000008424,correct,v
223,4F4K,224,2,32.86290549588553,51.43685075901328,0.9902654189112412,54.023936446208566,2,b,0.569516499999736,correct,b
224,4F4K,225,2,49.01863183913829,68.91251106207494,1.3856462164059196,68.02578418582407,2,v,0.8693865999994159,incorrect,b
225,4F4K,226,2,60.94319521731876,48.68397782431212,1.7755867605334832,51.58138493844359,1,v,1.4070348999994167,correct,v
226,4F4K,227,1,38.02083821433564,49.14184771788874,1.1023826951970217,51.98999356808913,1,c,0.8318540000000212,correct,c
227,4F4K,228,1,45.80691935381198,59.177676115140166,1.2961274439117003,60.62485233843632,1,n,1.0671707999990758,incorrect,c
228,4F4K,229,2,59.238088159625406,42.502793319742246,1.7137333445454326,46.012810425830914,1,b,0.6727244000012433,incorrect,v
229,4F4K,230,2,32.445916466011795,53.4418122157988,0.9817159049418136,55.77717611864037,2,v,0.5830197000013868,incorrect,b
230,4F4K,231,1,56.65774805457932,40.38869420873396,1.6242035443348986,44.102507017451295,2,n,0.7818719999995665,correct,n
231,4F4K,232,2,25.63277036033319,44.96023401883243,0.8520341205133858,48.23423856994376,2,v,0.6194212999998854,incorrect,b
232,4F4K,233,2,54.808269366132215,41.21490684813703,1.5629244924746757,44.848556610711775,1,v,0.9215767000005144,correct,v
233,4F4K,234,2,57.39217668579423,38.57756134262003,1.6491987816838691,42.47146030997578,1,v,0.784781500000463,correct,v
234,4F4K,235,1,50.87924944549045,62.22320492669388,1.4403081280414565,63.06871390673482,1,n,0.8062012999998842,incorrect,c
235,4F4K,236,2,52.880830656753474,60.85216816168938,1.5015212782987175,61.98134808448072,2,b,0.5712684999998601,correct,b
236,4F4K,237,1,47.75561100368907,60.47398861595765,1.3497276523979198,61.6776424003619,1,c,0.7637369999993098,correct,c
237,4F4K,238,2,60.354787647571015,56.642655941654425,1.7539937772159782,58.51738739440992,1,b,0.583017099999779,incorrect,v
238,4F4K,239,2,64.95209754997981,80.53458783948467,1.929949270944712,74.93914463809561,2,v,0.6180573000001459,incorrect,b
239,4F4K,240,1,31.51090514604246,39.41323025626869,0.96281275167666,43.22313250794368,1,n,0.9754651000002923,incorrect,c
240,4F4K,241,1,44.623441815557314,61.3311923954043,1.264619398148782,62.36373185356043,1,c,2.0201054999997723,correct,c
241,4F4K,242,1,67.0680154094363,42.48974373565744,2.0167614717284503,46.001009272044925,2,n,1.1038031999996747,correct,n
242,4F4K,243,2,57.50435305629046,41.3604589153617,1.6530502624241787,44.98007290714794,1,b,2.555340899998555,incorrect,v
243,4F4K,244,2,66.56034264613442,54.4861512336941,1.9955829929775108,56.67987590517577,1,v,1.4312985000015033,correct,v
244,4F4K,245,1,27.18590267498281,47.9227243270307,0.8800010072962565,50.90030421622178,1,n,0.9774737000007008,incorrect,c
245,4F4K,246,1,53.73217555884887,40.46689699482285,1.5283397251710664,44.17308079164526,2,n,3.0155336999996507,correct,n
246,4F4K,247,2,38.26792389552148,49.66069289411846,1.1080613159089678,52.45197872883588,2,b,1.4700453999994352,correct,b
247,4F4K,248,1,36.08837008847591,52.877443934883495,1.0589622072472755,55.28621440634463,1,c,0.9214776000007987,correct,c
248,4F4K,249,2,62.0795763056487,42.77864061048558,1.8180442184487091,46.26227485004888,1,v,2.1922725999993418,correct,v
249,4F4K,250,2,79.58038983351608,61.89341479913693,2.616089131447958,62.80916171958023,1,v,1.0125252999987424,correct,v
250,4F4K,251,1,50.36703311102672,33.87544211360503,1.4250484729714326,38.289129831402406,2,c,2.4012643999994907,incorrect,n
251,4F4K,252,1,57.45845562740154,39.518872542225566,1.6514733270291664,43.31827585584215,2,n,2.2372565000005125,correct,n
252,4F4K,253,1,44.25570220375915,32.316762128740365,1.2549858223995412,36.92781547426271,2,n,1.7421400000002905,correct,n
253,4F4K,254,2,63.08488798048664,50.08082400426155,1.8564502316030047,52.82520044332222,1,v,2.3247594999993453,correct,v
254,4F4K,255,1,67.8251996458554,44.729905159021165,2.048767097970513,48.02623284779405,2,n,1.560122599999886,correct,n
255,4F4K,256,2,43.15402713113816,53.41350223378965,1.2265625552983914,55.75259911193353,2,v,1.8793956999998045,incorrect,b
256,4F4K,257,1,50.45582882112801,35.84548173042964,1.4276821914558662,40.02958664811664,2,c,1.3902593000002526,incorrect,n
257,4F4K,258,2,48.21571550059284,31.357800919259923,1.3627032860240675,36.09831708914076,1,b,2.415812900000674,incorrect,v
258,4F4K,259,2,33.713521894905384,45.746392085654925,1.007937132231338,48.943606016663566,2,v,0.8001334000000497,incorrect,b
259,4F4K,260,1,37.40753982163963,61.07116191940869,1.0884130764260216,62.15648426534525,1,c,1.260457000000315,correct,c
260,4F4K,261,1,50.80904374514697,39.36364157003721,1.438206975748097,43.178480647425765,2,n,0.7529536000001826,correct,n
261,4F4K,262,1,47.20356252551412,61.2209501518908,1.334322013439201,62.27596167510316,1,n,0.545237399999678,incorrect,c
262,4F4K,263,2,65.46385621338098,76.05251508741183,1.9505969234593,72.55800334030268,2,b,0.5465676000003441,correct,b
263,4F4K,264,1,54.715643949950746,41.19662786584758,1.5599170543087653,44.832041859451216,2,c,1.1777791999993497,incorrect,n
264,4F4K,265,2,50.37470401672065,62.34951788348489,1.4252758034334014,63.16778094607263,2,b,0.5933561000001646,correct,b
265,4F4K,266,1,39.14653893540972,54.67011396485472,1.1284919819427506,56.83806614429394,1,c,1.6148151999987022,correct,c
266,4F4K,267,1,48.79038348926337,34.30266128781023,1.3790851189879882,38.6648160030075,2,c,0.4723737999993318,incorrect,n
267,4F4K,268,2,57.33272244174079,34.417990346552,1.6471611102946824,38.7664087882257,1,b,1.9714526999996451,incorrect,v
268,4F4K,269,1,45.8562971228594,58.95851827199789,1.2974589675110757,60.44512612441874,1,c,0.7286578000002919,correct,c
269,4F4K,270,2,65.61089267486263,45.554411131996936,1.9565700731453948,48.77047293369136,1,v,0.7700533999995969,correct,v
270,4F4K,271,1,58.22171098299386,43.14108286274413,1.6778937118863688,46.59005578635833,2,n,2.9438248999995267,correct,n
271,4F4K,272,1,70.32513692747207,53.17241220606215,2.158088618184403,55.54308025913043,2,n,1.6307329999999638,correct,n
272,4F4K,273,1,75.43672512896212,65.46211161949026,2.4001120396566025,65.54553984134247,2,n,1.0442333000009967,correct,n
273,4F4K,274,2,42.72678307273255,53.295747700690846,1.2157136809548288,55.65031352814999,2,b,1.6193865000004735,correct,b
274,4F4K,275,1,47.72878432011557,41.19527530973156,1.3489749232750572,44.83081986224106,2,n,1.8623681000008219,correct,n
275,4F4K,276,2,42.61901593971275,35.97483709863293,1.212992372174987,40.14453856169127,1,v,0.8911542000005284,correct,v
276,4F4K,277,2,57.98754030542252,42.8465344645504,1.6697431656032424,46.32367625893456,1,b,0.6193839999996271,incorrect,v
277,4F4K,278,1,58.56823652121542,50.57680154155843,1.6900279375474478,53.264731394426015,2,c,1.710474699999395,incorrect,n
278,4F4K,279,2,48.902965616702176,66.20116231643118,1.3823174490198666,66.09120541642855,2,v,2.4024162000005163,incorrect,b
279,4F4K,280,1,49.44933627487983,26.59902833360161,1.398112146764049,32.09282710900882,2,c,1.0451262000005954,incorrect,n
280,4F4K,281,2,46.66336428734832,66.6834603663052,1.3194173018937354,66.44317169500505,2,v,1.6070351999987906,incorrect,b
281,4F4K,282,1,53.45278704236032,40.53860401945229,1.5194862410047472,44.23780089333281,2,n,0.5829924000008759,correct,n
282,4F4K,283,1,44.35446118610251,32.504612023724555,1.2575657538040683,37.09105276362324,2,c,0.9518563999990874,incorrect,n
283,4F4K,284,1,46.77114289716064,57.20234331623483,1.322377687117988,58.98786472667607,1,n,0.916835699999865,incorrect,c
284,4F4K,285,1,52.929725767381214,66.32925101899582,1.5030487192921516,66.18500201290085,1,c,1.1328069000010146,correct,c
285,4F4K,286,1,78.31117216362281,60.58168736426635,2.5479468173662387,61.76429398217119,2,n,0.8486867000010534,correct,n
286,4F4K,287,1,57.86511564925629,75.65122425237611,1.6654978244256782,72.3266260528387,1,n,0.9107089999997697,incorrect,c
287,4F4K,288,2,29.08426105974479,49.008329607321805,0.915434032247488,51.870926116784304,2,b,0.8063216000009561,correct,b
288,4F4K,289,1,65.51697718173477,47.75605170279624,1.95275278130708,50.75091994987401,2,c,1.758993499999633,incorrect,n
289,4F4K,290,1,60.50726932393042,43.22247882607776,1.759564109814569,46.6636653905282,2,c,0.637625699999262,incorrect,n
290,4F4K,291,2,44.06914259834552,63.42355936194466,1.2501266643895712,64.00227087848882,2,v,1.4728517000003194,incorrect,b
291,4F4K,292,2,43.77249920505388,63.16266766460993,1.242438960894676,63.80088229705726,2,b,0.5540195000012318,correct,b
292,4F4K,293,1,52.247293111868224,38.48412414941964,1.481869900838276,42.387529055760034,2,c,0.703440799999953,incorrect,n
293,4F4K,294,2,37.63730293532811,25.013097320530417,1.0936257276992576,30.806250592141943,1,v,1.3645390000001498,correct,v
294,4F4K,295,1,56.5397898971272,42.11383040926218,1.620224464759414,45.66108224024243,2,n,0.5587161999992531,correct,n
295,4F4K,296,1,60.37069273845377,49.43614121319092,1.7545739839161345,52.25217632127488,2,n,0.5088606999997864,correct,n
296,4F4K,297,2,59.25319430007512,78.33889161889545,1.7142717527803932,73.819877006673,2,v,0.6983381000009103,incorrect,b
297,4F4K,298,1,39.990949584260456,48.42047288123641,1.1484821924852129,51.34586566084534,1,n,0.7760674000001018,incorrect,c
298,4F4K,299,2,71.16267800594349,56.99289937001788,2.1960034793895584,58.812132882339775,1,b,0.552700599999298,incorrect,v
299,4F4K,300,1,57.13509415366257,66.4410883095652,1.6404058851316343,66.26670850513335,1,c,0.6801803999987897,correct,c
300,4F4K,301,1,60.34482596934521,51.87948202746247,1.7536304798135094,54.41309268586336,2,c,0.5868522000000667,incorrect,n
301,4F4K,302,2,42.73435882046519,64.57114900617447,1.2159052113623294,64.87778762607198,2,b,0.7095988000000943,correct,b
302,4F4K,303,1,73.86210525930602,55.82658570989184,2.322797131914234,57.82649946227292,2,n,0.8242857999994158,correct,n
303,4F4K,304,2,56.48273905488175,63.51025431347013,1.618303469129451,64.06900294760462,2,v,1.6861676999997144,incorrect,b
304,4F4K,305,2,44.27046600526566,57.94298944437455,1.2553711679955455,59.60605643992062,2,b,0.4920105000001058,correct,b
305,4F4K,306,1,43.224200729279886,59.82546964356764,1.2283536851312058,61.15318718352526,1,n,0.794069400000808,incorrect,c
306,4F4K,307,2,40.66775282964114,59.239317557048935,1.1647598935828718,60.675314471968,2,b,0.8429221999995207,correct,b
307,4F4K,308,1,48.17132866710719,37.189750044188585,1.3614460935520971,41.22763332732328,2,c,0.7758287999986351,incorrect,n
308,4F4K,309,1,56.54376996708095,39.23662804433028,1.6203585653154329,43.064137774732814,2,n,0.8318994000001112,correct,n
309,4F4K,310,2,63.77886864664595,46.58857485488221,1.8834347580872808,49.7022238057424,1,v,1.5890681000000768,correct,v
310,4F4K,311,2,33.67161947774577,42.581769748966,1.0070592625661463,46.08423211140114,2,b,0.8017133000012109,correct,b
311,4F4K,312,2,55.32138954991066,61.11566179414007,1.5796902368246617,62.19200590045913,2,v,1.2748677999989013,incorrect,b
312,4F4K,313,1,52.05856032085818,47.8191411829915,1.476065569175817,50.807475974358255,2,c,0.6301822999994329,incorrect,n
313,4F4K,314,2,54.75789259670251,47.98855795143992,1.5612880996277991,50.95928406564694,1,b,2.390165499999057,incorrect,v
314,4F4K,315,2,32.74492694910899,46.55725485645935,0.9878389833954968,49.67404002360342,2,v,0.6376064999985829,incorrect,b
315,4F4K,316,1,28.95768504790286,52.42823107917629,0.9130277101733038,54.89395449797401,1,c,1.456939699999566,correct,c
316,4F4K,317,2,41.76312282551179,23.80188054228272,1.1915947602121129,29.842399805811286,1,v,0.872275300000183,correct,v
317,4F4K,318,1,65.46366342809117,81.151381690612,1.9505891038100576,75.23692022572287,1,n,1.479854900000646,incorrect,c
318,4F4K,319,1,54.07824967109628,39.13853713785353,1.5393779528650609,42.97585826503872,2,c,0.5587202000006073,incorrect,n
319,4F4K,320,2,59.1841003746685,42.65328210380077,1.711810510886595,46.14890470005268,1,b,0.6003522999999404,incorrect,v
320,4F4K,321,2,41.622431702786585,55.04023149919175,1.1881137374179616,57.15555152009958,2,v,1.528478800000812,incorrect,b
321,4F4K,322,1,58.55462422681433,51.43875293207493,1.6895496264372554,54.02561118045137,2,n,0.6921146000004228,correct,n
322,4F4K,323,1,33.55586411153948,40.85266579400724,1.004638120381983,44.52134996872554,1,c,0.69693929999994,correct,c
323,4F4K,324,2,65.2337239610169,46.70172155668248,1.9412847082867648,49.80402056124377,1,v,0.20677020000039192,correct,v
324,4F4K,325,2,38.68476220377812,56.82095195259448,1.117707636818693,58.667567481572746,2,b,1.0184874000005948,correct,b
325,4F4K,326,2,38.87340180183909,47.76056290557116,1.12210062330757,50.75496440265642,2,v,2.098103899999842,incorrect,b
326,4F4K,327,2,59.37273065703511,43.22686255676392,1.7185381989750896,46.667629730637074,1,v,0.6085240000011254,correct,v
327,4F4K,328,1,53.227327557254014,32.59164033014127,1.5123791096004535,37.16675835543146,2,n,2.179273599998851,correct,n
328,4F4K,329,1,51.15487412710044,67.48107589337995,1.4485868900177168,67.01791864427429,1,n,1.7042360000014014,incorrect,c
329,4F4K,330,1,43.07448517635217,54.4313054708666,1.22453546283159,56.63266482496349,1,n,1.558756300000823,incorrect,c
330,4F4K,331,2,59.9405403163894,46.63109714311911,1.738949708350326,49.74048431435141,1,v,1.420501200000217,correct,v
331,4F4K,332,1,55.41873499962388,47.72288639005794,1.5828911503254803,50.721184084074025,2,c,2.1606202000002668,incorrect,n
332,4F4K,333,2,62.03080671051615,42.55692545268247,1.8162014103598692,46.06176423969168,1,v,0.7407961999997497,correct,v
333,4F4K,334,2,45.16263474258984,60.74596694518824,1.2788783536975905,61.89622151672682,2,b,1.0974844000011217,correct,b
334,4F4K,335,2,50.23522824801136,65.31656667670804,1.4211480404881331,65.43719115104035,2,b,0.6914082999992388,correct,b
335,4F4K,336,2,25.691633286578867,34.32783939265978,0.8530776659677526,38.68698902083787,2,b,0.951843299999382,correct,b
336,4F4K,337,1,48.33974329518946,61.96030130372138,1.3662223503213309,62.86190728790346,1,n,1.5489534999996977,incorrect,c
337,4F4K,338,2,53.41627711290336,36.81798712007605,1.5183330808356956,40.89557530199298,1,b,1.4798337000011088,incorrect,v
338,4F4K,339,2,45.79998123655847,61.17360600784999,1.295940459789928,62.23822561235174,2,b,0.8850879999990866,correct,b
339,4F4K,340,2,33.106712426036445,18.817328522422788,0.9952986368795136,26.06864621140795,1,v,0.6326282999998512,correct,v
340,4F4K,341,1,72.1207273603703,54.98764318792554,2.2401911215174968,57.11050584630964,2,n,1.7590436999998929,correct,n
341,4F4K,342,1,54.72226284063251,68.157437191826,1.5601317697697994,67.49797781696475,1,n,1.4387307000015426,incorrect,c
342,4F4K,343,1,66.27894318189834,43.53271091605676,1.9839398628719045,46.944203058891006,2,n,1.8007775000005495,correct,n
343,4F4K,344,2,58.16940804273974,48.734859653027854,1.676069811496674,51.6268328818984,1,b,1.2010382999997091,incorrect,v
344,4F4K,345,2,60.66735612621974,48.19050340249383,1.7654313032266808,51.140114315253626,1,b,1.1483418000007077,incorrect,v
345,4F4K,346,2,50.393825491973,40.68072993734261,1.4258426341396369,44.36610126071573,1,v,0.5634396000004926,correct,v
346,4F4K,347,1,63.20010884013608,48.075068356382864,1.860903527122814,51.0367660335333,2,c,0.8743601999995008,incorrect,n
347,4F4K,348,2,38.44714030371075,47.15478839017644,1.1121984326132577,50.21130829573725,2,b,0.5708919999997306,correct,b
348,4F4K,349,1,78.47548373851293,60.49655022491496,2.556667437813292,61.69580547276413,2,n,1.0311743000002025,correct,n
349,4F4K,350,2,54.46240734387198,41.060249467244525,1.551724266046928,44.70883799905172,1,v,2.086859099999856,correct,v
350,4F4K,351,1,31.062655097996583,43.352162748032434,0.9538799762537686,46.78094030147352,1,n,2.0447352999999566,incorrect,c
351,4F4K,352,2,37.775000314232784,43.40309005527709,1.096761633595726,46.82699313940964,2,v,1.7833492000008846,incorrect,b
352,4F4K,353,1,69.19798370670156,49.81939596817576,2.108094457302072,52.59305617001735,2,n,1.2128057000008994,correct,n
353,4F4K,354,1,60.60417608910147,77.35513368216819,1.7631134167572868,73.28879982759574,1,n,1.2055533999991894,incorrect,c
354,4F4K,355,2,43.2611587490256,60.27633935554331,1.229298062856075,61.51828736939795,2,v,0.6365912000001117,incorrect,b
355,4F4K,356,2,51.11507578619046,31.74511337964473,1.4473885597222866,36.432555257013895,1,b,0.44345350000003236,incorrect,v
356,4F4K,357,2,62.173426457911866,43.320293341003975,1.8215957034413088,46.75212081856691,1,v,0.7031612999999197,correct,v
357,4F4K,358,2,48.00205880542419,38.3868086674925,1.356662407167689,42.30014054674025,1,v,1.0078422999995382,correct,v
358,4F4K,359,2,65.5244529728869,49.10791635670164,1.953056369514622,51.959741439116,1,b,0.8304597000005742,incorrect,v
359,4F4K,360,2,43.09175054886361,53.35976753788602,1.224975178558491,55.7059349528092,2,v,0.7574193999989802,incorrect,b
360,4F4K,361,2,41.99955744642757,58.65894393993127,1.1974676847008203,60.19866578552709,2,b,1.2905743999999686,correct,b
361,4F4K,362,1,46.078456316210506,62.40999475653231,1.3034666666108228,63.21514485664463,1,n,1.4751820000001317,incorrect,c
362,4F4K,363,2,49.84657059486179,37.99773739043904,1.409708739740846,41.95103942856132,1,v,0.6726816999998846,correct,v
363,4F4K,364,1,42.489710726367576,52.54869678218362,1.209735227267323,54.99927174159086,1,n,0.4130986000000121,incorrect,c
364,4F4K,365,1,42.53049017913285,55.51306784571839,1.2107614995205664,57.559590744415104,1,n,1.0185802000014519,incorrect,c
365,4F4K,366,1,48.82295081142956,35.469041521423875,1.3800193771544935,39.69550065973621,2,c,0.44341130000066187,incorrect,n
366,4F4K,367,1,59.84547246832828,69.63591316007914,1.7355154086033446,68.5232378159702,1,c,0.570881499999814,correct,c
367,4F4K,368,1,41.86774632928847,55.40076201376421,1.1941899974772163,57.46378655559169,1,n,1.7772454999994807,incorrect,c
368,4F4K,369,2,43.181484865804194,33.03379772796957,1.2272630826746993,37.552154127100806,1,b,0.9158723000000464,incorrect,v
369,4F4K,370,2,40.21352605027167,56.35975347994645,1.153810087328658,58.27852583100147,2,b,0.7212342000002536,correct,b
370,4F4K,371,2,29.74412695927009,47.10753047879289,0.9280817583940936,50.16885128523004,2,b,0.7758513000007952,correct,b
371,4F4K,372,1,56.96518833108197,72.02595920413329,1.6346204061351417,70.10748766522073,1,c,0.8316894000017783,correct,c
372,4F4K,373,2,52.56251977894301,68.72438014832358,1.4916153960085397,67.89508992100895,2,b,1.6430410000011761,correct,b
373,4F4K,374,2,53.96663565968706,43.86361869875653,1.5358092794549354,47.24339008170908,1,b,1.2491530000006605,incorrect,v
374,4F4K,375,1,42.729204486350646,23.69836809300005,1.2157748959661543,29.760817328436904,2,n,0.8366704999989452,correct,n
375,4F4K,376,2,61.747931096133016,68.30712484876324,1.8055494497933329,67.60329811271484,2,b,0.5043975000007777,correct,b
376,4F4K,377,2,41.54715985138546,56.91046191428904,1.186255515880648,58.742856237765146,2,b,0.9639938999989681,correct,b
377,4F4K,378,1,30.85982629389111,50.96877479137136,0.9498652629550411,53.61122765234204,1,c,2.2034618000016053,correct,c
378,4F4K,379,1,27.685335182627615,50.97030127956594,0.8891877976570485,53.6125754833925,1,c,0.7758358999999473,correct,c
379,4F4K,380,1,39.1158192626388,49.32652601910152,1.1277713341298026,52.1545637752925,1,c,0.6729452999989007,correct,c
380,4F4K,381,2,60.056468956886185,36.359200868323605,1.74314679616427,40.486540069781,1,v,1.5528069000010873,correct,v
381,4F4K,382,1,53.45696466464964,43.60318021547847,1.519618246351804,47.00792203933286,2,c,0.8244276000004902,incorrect,n
382,4F4K,383,1,57.374020372876736,43.8028272018576,1.648576244353775,47.18843074786645,2,n,0.5041075999997702,correct,n
383,4F4K,384,2,48.26429917434235,34.463248932627906,1.3640806786902726,38.80629674869737,1,v,0.7407966999999189,correct,v
384,4F4K,385,1,35.013209312725884,49.99509198388016,1.035549329403063,52.74910641007644,1,n,0.7044089999999414,incorrect,c
385,4F4K,386,2,58.550526113911054,71.52198746874102,1.6894056527647694,69.78117912646684,2,b,0.5769290999996883,correct,b
386,4F4K,387,2,28.034654658498724,43.10479553070299,0.8956702793545114,46.55723929264497,2,v,1.0185839999994641,incorrect,b
387,4F4K,388,1,67.6049371164179,55.785908636767,2.0394047296134903,57.79191517432093,2,c,1.7104534000009153,incorrect,n
388,4F4K,389,2,51.74046531374152,63.24538520331703,1.466334206291637,63.86482646178694,2,b,2.2148890999997093,correct,b
389,4F4K,390,2,58.6238243553866,44.22121729880956,1.6919825982474006,47.566627636372765,1,b,0.6423691999989387,incorrect,v
390,4F4K,391,2,60.44783441108566,47.14563995607913,1.7573907827254895,50.2030897315698,1,v,1.0382162000005337,correct,v
391,4F4K,392,2,48.02315569076255,30.539745289078493,1.3572577020029069,35.39604185659751,1,v,0.8901396000001114,correct,v
392,4F4K,393,2,62.48282019056879,45.08888841228929,1.8333530148691384,48.3503927463406,1,v,0.8257819999998901,correct,v
393,4F4K,394,1,56.910179460788136,43.738942115858585,1.6327516699638378,47.13067215577382,2,n,1.7650766000006115,correct,n
394,4F4K,395,2,62.32555596906885,47.8570188055818,1.8273673442177767,50.84142487370663,1,v,2.318723200000022,correct,v
395,4F4K,396,1,37.47584290291641,51.67070678287365,1.0899600725237475,54.22967890952085,1,n,3.665335600000617,incorrect,c
396,4F4K,397,1,38.46067216832086,51.84908839595398,1.112511435067079,54.38640686135095,1,c,2.26492799999869,correct,c
397,4F4K,398,1,73.15402405655738,57.38061213786455,2.2888465142188084,59.13712500749845,2,n,1.0125163000011526,correct,n
398,4F4K,399,1,69.65830450725988,50.777608655543,2.1283702384796594,53.44233919988792,2,n,0.7751638999998249,correct,n
399,4F4K,400,1,48.3678302143072,59.91157730903839,1.3670205270038576,61.22308314193538,1,c,0.765525400000115,correct,c
