,condition,trial,sub_task,x,y,xt,yt,cat,resp,rt,acc,correct_resp
0,2F4K,1,1,50.05720409173536,65.23509201175003,1.4158968066086095,64.52798937406322,1,c,3.745044700001017,correct,c
1,2F4K,2,2,39.02037918394547,50.13741509333215,1.1255353553773502,52.3260994971908,2,v,2.1716691000001447,incorrect,b
2,2F4K,3,1,46.22115972898828,58.37162282152087,1.307340362602204,59.24258692866357,1,c,1.716527499998847,correct,c
3,2F4K,4,2,27.09276982935489,37.95291752642511,0.878298408629369,41.62389223848565,2,b,1.8501489000009315,correct,b
4,2F4K,5,1,40.85855117074312,47.28589195771495,1.1693903046074334,49.8406755736668,1,c,1.6815421999999671,correct,c
5,2F4K,6,1,41.8282178217074,58.10080114786749,1.1932088097986238,59.023616729369394,1,c,1.3889939000000595,correct,c
6,2F4K,7,1,60.84441010077671,71.14262320482175,1.771943131554402,68.58490846543826,1,c,1.9228887999997823,correct,c
7,2F4K,8,2,57.80297053583263,40.24236935793351,1.6633469394420035,43.63424083328593,1,v,1.449572800000169,correct,v
8,2F4K,9,1,59.63219840058697,45.21456954909728,1.727835596944867,48.02008388589709,2,c,2.1071890000002895,incorrect,n
9,2F4K,10,2,71.67644323924941,54.96766346136305,2.2195901367542445,56.44315125137698,1,b,1.3038429000007454,incorrect,v
10,2F4K,11,2,48.16771019652968,67.19460853155795,1.3613436567828932,65.92977266455945,2,v,2.215508499999487,incorrect,b
11,2F4K,12,1,41.11078552777517,29.226473039716616,1.1755399474807626,34.17543179646133,2,n,1.7824973999995564,correct,n
12,2F4K,13,2,51.30605860647395,31.49247205415289,1.4531481131658872,36.06374746686628,1,v,2.0928603000011208,correct,v
13,2F4K,14,1,56.36791769160539,39.27633070939874,1.6144441471497304,42.78446413223704,2,n,3.1331370000007155,correct,n
14,2F4K,15,2,36.48580196649217,53.85991008317728,1.0677501191682663,55.51208903844618,2,b,1.5638686999991478,correct,b
15,2F4K,16,2,43.20524909241287,59.256772818144455,1.227869700798904,59.95331538267677,2,b,2.2080263000007108,correct,b
16,2F4K,17,1,50.70457533520309,35.20857671327547,1.4350860642390313,39.236303389136985,2,c,1.4130592000001343,incorrect,n
17,2F4K,18,1,51.1454566577953,39.22935533407362,1.448303239907833,42.743191845128585,2,n,1.931034199998976,correct,n
18,2F4K,19,2,40.17579640274948,58.52901505466256,1.152905202222542,59.36952342779035,2,b,1.230947500000184,correct,b
19,2F4K,20,1,56.29280746778717,41.17758021210168,1.6119245582610324,44.45838755716576,2,c,1.6679631000006339,incorrect,n
20,2F4K,21,1,51.12239499576685,39.85135735742297,1.4476088671217933,43.29006706153702,2,n,1.8768044999997073,correct,n
21,2F4K,22,1,66.20946223559015,52.47379293331425,1.9810755052200504,54.3352352658444,2,c,2.013894199999413,incorrect,n
22,2F4K,23,1,44.30295901012094,66.45495258925321,1.2562196750747334,65.40685778837235,1,n,1.14030830000047,incorrect,c
23,2F4K,24,2,54.88468344105246,31.804139118065684,1.5654099317809549,36.326484052125,1,b,2.0382073000000673,incorrect,v
24,2F4K,25,2,41.66521328854735,56.60776869688887,1.1891711751519405,57.80436577151684,2,v,1.6147252999999182,incorrect,b
25,2F4K,26,2,69.2763887204271,56.64264888058593,2.11153426923972,57.83307456923413,1,v,1.381718099999489,correct,v
26,2F4K,27,1,36.94913680857285,61.765788541345614,1.0780873722527524,61.92378660237512,1,n,3.8177816000006715,incorrect,c
27,2F4K,28,1,56.0894487240864,52.35311658761124,1.605122562681523,54.2322035131264,2,c,2.2215800000012678,incorrect,n
28,2F4K,29,2,36.2893047074258,50.36075530581023,1.0633961447831517,52.51937086764165,2,v,2.519015699999727,incorrect,b
29,2F4K,30,2,68.04003661952578,52.469490863916185,2.0579402539760303,54.33156372956155,1,v,1.6012494000005972,correct,v
30,2F4K,31,2,68.38105727487645,53.56143446666644,2.07258564374174,55.25973924219628,1,v,1.6871432999996614,correct,v
31,2F4K,32,1,34.23707003410084,50.358686889051285,1.0189703700940766,52.51758200319869,1,n,1.9788695000006555,incorrect,c
32,2F4K,33,2,52.20650441977264,45.33258915666144,1.4806135457409906,48.1240441316561,1,b,2.1110330000010435,incorrect,v
33,2F4K,34,1,73.6822023650426,60.12286246621037,2.314123838115501,60.641110750055226,2,c,1.8453738999996858,incorrect,n
34,2F4K,35,2,60.32854624016372,44.29922601849449,1.753036928228774,47.213151932304335,1,v,5.0,incorrect,v
35,2F4K,36,1,56.84560547986682,50.23677216304117,1.6305607179513604,52.41210869266244,2,c,1.3766651000005368,incorrect,n
36,2F4K,37,1,49.87984783626616,35.66157186437053,1.410684568685023,39.62824485590469,2,c,2.049061800000345,incorrect,n
37,2F4K,38,2,62.22805860310535,77.03115115591754,1.8236662913566903,72.0765494231201,2,b,1.3705955000004906,correct,b
38,2F4K,39,2,57.02007227847443,66.65406281475232,1.6364870300286147,65.5483764283747,2,b,1.2249611999995977,correct,b
39,2F4K,40,2,71.72761602830197,51.550370089840186,2.221953277990007,53.54466458566823,1,v,1.3731190000016795,correct,v
40,2F4K,41,2,30.34047147573381,45.313467573968055,0.9396622162130164,48.107201917076296,2,v,5.0,correct,b
41,2F4K,42,2,32.36249735319132,48.05557912315538,0.9800144459384452,50.51441265731236,2,v,1.7367236000009143,incorrect,b
42,2F4K,43,1,37.24145244576675,58.91187304338692,1.0846605190033412,59.67729510657036,1,n,1.6558189000006678,incorrect,c
43,2F4K,44,1,42.91797501695287,27.913341721982853,1.2205566446455487,33.10062042791223,2,n,1.7351091000000451,correct,n
44,2F4K,45,2,58.75457273738344,44.19210875571591,1.69658908103345,47.1186616548639,1,v,1.367115200000626,correct,v
45,2F4K,46,1,58.472631523001375,77.6848514438213,1.686671414996679,72.42682051200927,1,c,1.126719999998386,correct,c
46,2F4K,47,1,39.73938154610597,53.287190034820966,1.1424899276846645,55.02734792072365,1,n,0.9461666000006517,incorrect,c
47,2F4K,48,1,49.727286981044045,28.69126401536245,1.406216384703774,33.73551996982204,2,n,0.7821294999994279,correct,n
48,2F4K,49,1,51.89648462589172,42.07436636373127,1.47109920435329,45.24955957022395,2,n,0.903575100001035,correct,n
49,2F4K,50,1,70.74098194334931,53.92359490650536,2.1768310772534707,55.56585311014222,2,c,0.8051843000012013,incorrect,n
50,2F4K,51,2,37.37392126412124,47.64616361070894,1.08765245641389,50.1562607629117,2,v,1.0321258000003581,incorrect,b
51,2F4K,52,2,38.68862724845042,20.08304525255294,1.117797472094287,27.065398136385443,1,v,1.073480600000039,correct,v
52,2F4K,53,1,48.94185129264675,63.96658993635913,1.383435649711959,63.59317354229413,1,n,1.2674753999999666,incorrect,c
53,2F4K,54,2,28.352153782579467,47.6607242420732,0.9016032452361809,50.16900724581549,2,v,1.384161399999357,incorrect,b
54,2F4K,55,1,46.36644153767848,29.03417612156919,1.3112958754670627,34.017090625622224,2,n,1.2067815000009432,correct,n
55,2F4K,56,2,57.399043625599816,42.633838899803486,1.6494342941874711,45.74337593804829,1,b,1.2310483000001113,incorrect,v
56,2F4K,57,1,51.71007812213394,41.39537387948423,1.4654079460110137,44.65047005043356,2,n,1.5601495999999315,correct,n
57,2F4K,58,1,29.331721212379637,39.13619925033275,0.920156803587501,42.66136060644824,1,c,1.0368181000012555,correct,c
58,2F4K,59,2,66.25818345617519,54.52884969405276,1.9830836079228884,56.07539522599917,1,b,0.9228098999992653,incorrect,v
59,2F4K,60,2,31.02915075828949,49.66597982449533,0.9532156365125012,51.91738805940346,2,b,0.9387004999989585,correct,b
60,2F4K,61,2,35.539113303939736,50.13426811650349,1.0469361068255696,52.323374546107885,2,b,0.8500359000008757,correct,b
61,2F4K,62,2,42.11566106162897,27.892256753391575,1.2003622318382576,33.08348851775301,1,b,1.133924499999921,incorrect,v
62,2F4K,63,2,63.819150029836784,41.66662096026801,1.8850130363421893,44.88975672363917,1,v,0.9046396999983699,correct,v
63,2F4K,64,1,43.50591699793447,34.37341868271744,1.2355706530217625,38.51635222731531,2,c,1.0976334999995743,incorrect,n
64,2F4K,65,1,41.20424030813164,57.2317467459182,1.1778266395609416,58.31634985604624,1,c,1.3537909999995463,correct,c
65,2F4K,66,2,45.15250638043726,28.1733835386896,1.278609033179826,33.312244789888055,1,v,1.3819593000007444,correct,v
66,2F4K,67,1,60.736870402345374,44.17012933997985,1.7679850949162297,47.0992719391617,2,c,1.2541249000005337,incorrect,n
67,2F4K,68,2,64.0360812360512,76.3223669466711,1.8935354579498191,71.68806415016098,2,b,1.0260890000008658,correct,b
68,2F4K,69,2,46.1019413616342,62.01721013248097,1.3041033801716386,62.117411620803175,2,b,1.0367951999996876,correct,b
69,2F4K,70,2,47.11843627289164,60.64325390687647,1.3319621517181806,61.05059149289968,2,b,0.8247403999994276,correct,b
70,2F4K,71,2,63.550542088693575,51.528440037043936,1.8745135609341916,53.52583078747183,1,b,1.0114424000003055,incorrect,v
71,2F4K,72,2,68.27953385960336,60.23082597839722,2.0682147819192864,60.72630151087025,1,v,0.6315721999999369,correct,v
72,2F4K,73,1,55.79457092642376,46.43541020386383,1.595310367826677,49.0942859868631,2,n,0.9942424000000756,correct,n
73,2F4K,74,2,64.41162760875024,45.44118528705488,1.908380471344838,48.219684097814415,1,b,0.9219663999992918,incorrect,v
74,2F4K,75,1,39.33145654180434,48.51144276178051,1.1328396733453083,50.9125431646204,1,c,0.7940015999993193,correct,c
75,2F4K,76,1,43.40087749401489,59.451698610700376,1.2328748214946978,60.1087848111186,1,n,0.9032903000006627,incorrect,c
76,2F4K,77,2,40.86635551073631,47.88561508239117,1.1695800964867291,50.36579487048213,2,v,1.084606899999926,incorrect,b
77,2F4K,78,2,72.9178176748438,51.0979143866413,2.2776317829349906,53.155565102639606,1,v,0.867363800000021,correct,v
78,2F4K,79,1,71.5453722756389,51.42429942972717,2.213548782755348,53.43635773224623,2,c,0.9762589000001753,incorrect,n
79,2F4K,80,1,47.10453327129859,30.858318998359746,1.3315771307375193,35.53130821880228,2,c,0.9220782000011241,incorrect,n
80,2F4K,81,1,35.452847650047225,48.32411405783499,1.045059750384454,50.74902576559198,1,c,2.304990499998894,correct,c
81,2F4K,82,2,62.51788712942372,50.87764342836026,1.8346903770003733,52.965748715090506,1,b,1.140016999999716,incorrect,v
82,2F4K,83,1,48.36828829664261,58.13332351414043,1.3670335486942422,59.049949039034686,1,c,1.0867381999996724,correct,c
83,2F4K,84,2,70.97811657364551,60.52650445977604,2.187591705695102,60.9589773643245,1,b,0.9275972000014008,incorrect,v
84,2F4K,85,1,38.28514821317194,55.00469704471363,1.1084582608881113,56.4741219686079,1,n,0.9896081999995658,incorrect,c
85,2F4K,86,1,50.58127270579372,42.990077450119706,1.4314112080094177,46.05783887180158,2,n,0.7698037000009208,correct,n
86,2F4K,87,1,58.69102071301626,46.07739460983423,1.6943484732618086,48.77957304242148,2,c,1.0842680000005203,incorrect,n
87,2F4K,88,1,48.47995323518212,67.42275730230678,1.370211498510046,66.08950758791647,1,c,0.7262267000005522,correct,c
88,2F4K,89,1,65.51701160614584,49.43148264675329,1.9527541791573528,51.71372907091752,2,n,0.8793807999991259,correct,n
89,2F4K,90,2,32.336256872036024,49.29404265684607,0.9794798415675406,51.59425641124647,2,b,0.6484172000000399,correct,b
90,2F4K,91,2,61.99533497207531,56.9177219073984,1.8148622486082575,58.059111791035726,1,v,0.6121898000001238,correct,v
91,2F4K,92,2,70.82944384124566,50.43679423582598,2.18083907255634,52.58511877217193,1,v,1.0975173999995604,correct,v
92,2F4K,93,1,34.69867074259946,49.785704215391526,1.0287982703532206,52.021276750657535,1,n,1.1533462000006693,incorrect,c
93,2F4K,94,2,25.8303747587018,45.12442235291988,0.8555423895300963,47.94066152570146,2,v,1.3463594000004377,incorrect,b
94,2F4K,95,1,38.18162603800758,48.00026224100503,1.1060746679865423,50.46605350386414,1,c,1.5305444000005082,correct,c
95,2F4K,96,2,61.538573822563016,54.79107137630435,1.7977061438183506,56.29532732479327,1,v,1.637637800000448,correct,v
96,2F4K,97,1,43.38340946144359,27.347618768554,1.2324270764187444,32.64240020642723,2,n,1.7847005000003264,correct,n
97,2F4K,98,2,51.16571774664671,39.096762056030535,1.4489135639668314,42.6267238988775,1,b,1.334509700000126,incorrect,v
98,2F4K,99,1,58.55108040880514,41.57639329301555,1.6894251253691164,44.810153540361405,2,n,1.103585099999691,correct,n
99,2F4K,100,1,35.854380630507826,56.25762290319627,1.0538221574209856,57.515600241191294,1,c,1.3355655999985174,correct,c
100,2F4K,101,2,40.74628692383597,51.99207789491542,1.1666635827030267,53.92343788969806,2,b,1.0787268000003678,correct,b
101,2F4K,102,2,43.06520298275932,57.69631370284483,1.2242991285124278,58.69529136502772,2,b,0.9275479000007181,correct,b
102,2F4K,103,2,44.61633592901069,30.41357395625728,1.2644325483053296,35.15968746649124,1,v,0.86783209999885,correct,v
103,2F4K,104,1,38.0383895975674,59.34678287480349,1.102785106070184,60.02515361133088,1,c,0.8414999999986321,correct,c
104,2F4K,105,1,78.7612771144852,62.98841278931126,2.571906710470196,62.85840094608909,2,n,0.5835619999998016,correct,n
105,2F4K,106,2,58.85040923207111,34.05832101178147,1.6999735233830475,38.24567266044711,1,v,1.4862858999986202,correct,v
106,2F4K,107,2,59.17478487172431,75.54920193846489,1.7114789474373806,71.25408879237979,2,v,0.8875224999992497,incorrect,b
107,2F4K,108,1,54.77449611118092,67.40713947451357,1.5618272436135463,66.07859669379803,1,n,1.1582098999988375,incorrect,c
108,2F4K,109,2,63.785529702259886,45.54310776497561,1.8836956558977105,48.3094289591158,1,b,1.3524172999987059,incorrect,v
109,2F4K,110,2,37.163853645820126,57.317053837694864,1.0829116986190446,58.38607953299038,2,b,0.8561446000003343,correct,b
110,2F4K,111,1,62.778179698789245,70.70310659647345,1.844647804143422,68.30114207726554,1,n,1.0298086000002513,incorrect,c
111,2F4K,112,1,62.245871622341326,48.91493705771762,1.8243419231213345,51.2643158635173,2,c,0.8753496999997878,incorrect,n
112,2F4K,113,2,47.10539642793612,70.17337702314325,1.3316010312138036,67.95508564241447,2,b,1.2370981999993091,correct,b
113,2F4K,114,1,50.925130458095424,33.57211941945657,1.4416829368672874,37.829097581923065,2,c,1.4205259000009391,incorrect,n
114,2F4K,115,1,57.77687461890922,72.13949557447222,1.662444570184985,69.21704550907889,1,c,0.8297870000005787,correct,c
115,2F4K,116,2,38.43687614361825,26.96765524281828,1.1119610734156369,32.33635082954792,1,b,1.2577046000005794,incorrect,v
116,2F4K,117,1,59.14475696840039,47.95031559194821,1.7104106118298534,50.42238052011542,2,n,0.9942313000010472,correct,n
117,2F4K,118,1,50.57064637143876,36.75002518463012,1.431094946292601,40.57371138415607,2,n,1.0489649999999529,correct,n
118,2F4K,119,2,66.2624820055795,51.24542133309676,1.983260875403765,53.28253694347356,1,v,1.315884300000107,correct,v
119,2F4K,120,1,56.61702153025832,75.97446957865719,1.6228286141952244,71.4940996585906,1,c,1.3052069999994274,correct,c
120,2F4K,121,2,69.28714179937921,49.7341374403788,2.112006469519872,51.97653826128982,1,b,1.942196199999671,incorrect,v
121,2F4K,122,2,47.4236270649442,56.27871950787031,1.340442014583386,57.5330278030928,2,v,1.1363650999992387,incorrect,b
122,2F4K,123,2,50.37165126817867,68.66118098225014,1.425185329624124,66.94342899616156,2,b,1.0112485000008746,correct,b
123,2F4K,124,2,61.36810424846515,42.44833787543006,1.7913448892598578,45.579633704995125,1,v,1.1764225999995688,correct,v
124,2F4K,125,2,51.3066798359757,43.36652501572872,1.4531668852060673,46.39012864507296,1,b,0.6315439999998489,incorrect,v
125,2F4K,126,2,67.53701853750539,77.49438742719819,2.036526455965822,72.32556416709265,2,b,0.8547557000001689,correct,b
126,2F4K,127,1,59.33763049832268,70.86847097609977,1.717284317452705,68.40826618283482,1,n,0.9350431000002573,incorrect,c
127,2F4K,128,2,64.47176635291123,48.40024986938757,1.9107684894549477,50.81549891170754,1,b,0.8537805999985721,incorrect,v
128,2F4K,129,2,43.47175317591199,28.605884958032124,1.2346931947041588,33.66557348245217,1,v,0.9117519999999786,correct,v
129,2F4K,130,1,59.274462388064975,43.91929196088527,1.7150300699193557,46.87796219591406,2,n,1.0124992999990354,correct,n
130,2F4K,131,1,42.22129550432397,59.40566791534759,1.203001853343019,60.0721062352572,1,c,0.7749905999990006,correct,c
131,2F4K,132,2,41.69267305342169,60.02453881184892,1.1898503973997483,60.56341951254375,2,v,0.8693841000003886,incorrect,b
132,2F4K,133,2,46.3598107738996,34.48128079515754,1.31111508271037,38.60913263564091,1,b,0.8669974000004004,incorrect,v
133,2F4K,134,1,42.02565050731478,24.250727495292647,1.1981175949305305,30.190911068187205,2,c,1.0320760000013252,incorrect,n
134,2F4K,135,2,47.51228254976344,65.03744839060046,1.3429154509257448,64.38371352532091,2,v,1.2056795000007696,incorrect,b
135,2F4K,136,1,53.46602066704285,44.97662765912459,1.519904439107573,47.81042479949809,2,n,1.2071579999992537,correct,n
136,2F4K,137,2,31.713750080530996,45.29779328722119,0.9668825133189,48.09339563987624,2,v,0.9269796000007773,incorrect,b
137,2F4K,138,2,56.031456240034366,44.61199076104408,1.6031880802444227,47.48898468246172,1,v,0.8790089000012813,correct,v
138,2F4K,139,1,29.78241689535783,46.65268720164434,0.92882100697854,49.28514233792161,1,c,1.0853729999998905,correct,c
139,2F4K,140,1,51.592525123013566,38.78270741805079,1.4618302101420546,42.35103367019919,2,n,0.8363172999997914,correct,n
140,2F4K,141,1,72.20512475664492,58.78610013727872,2.244126096575399,59.576346831865926,2,n,0.7833037000000331,correct,n
141,2F4K,142,1,53.738516110277246,60.37791106219837,1.5285412470842668,60.842162802239,1,c,0.6726519000003464,correct,c
142,2F4K,143,1,44.57535143685103,55.69425743206291,1.263355396558072,57.04885895102112,1,c,0.7480988000006619,correct,c
143,2F4K,144,2,51.68207305852594,42.14276127546356,1.464554815700729,45.30992194090176,1,b,1.2370743999999831,incorrect,v
144,2F4K,145,2,33.66701487096992,23.483848058149004,1.0069628411511329,29.59993775359792,1,b,0.965331999999762,incorrect,v
145,2F4K,146,1,52.786153684802784,44.25859380531656,1.4985680628795572,47.17731064554936,2,n,1.0125268000010692,correct,n
146,2F4K,147,1,56.47579984298053,40.90128099595142,1.618069969875528,44.21478024342887,2,n,0.8985882999986643,correct,n
147,2F4K,148,2,69.75531355940576,54.687600400031606,2.132668019341104,56.2086042210473,1,b,1.0361298000007082,incorrect,v
148,2F4K,149,1,44.01019671247871,56.34479793796963,1.2485952663276954,57.5875900587212,1,c,1.0139196000000084,correct,c
149,2F4K,150,1,43.93448504205632,37.36341285756024,1.2466310496212607,41.10859529164656,2,c,0.7626967999985936,incorrect,n
150,2F4K,151,2,22.170738715357647,33.07631543143879,0.792851269140634,37.405720395949,2,b,1.3425650999997742,correct,b
151,2F4K,152,2,52.751207323128384,60.91686320880187,1.497479465293737,61.26471440690128,2,v,1.0489465999999084,incorrect,b
152,2F4K,153,2,50.90301927699308,60.14843878073245,1.4410202191554595,60.66130339090488,2,b,1.5832840000002761,correct,b
153,2F4K,154,2,40.7350903553327,54.680514729055496,1.1663919845936952,56.202662535298806,2,v,0.8985934000011184,incorrect,b
154,2F4K,155,2,41.844018999279385,59.55487999681874,1.193600934293289,60.19092429691996,2,v,0.9640194999992673,incorrect,b
155,2F4K,156,2,60.52932275473505,36.659787422814006,1.760371210204356,40.49514219330086,1,v,0.7943001000003278,correct,v
156,2F4K,157,2,55.200863920860805,45.31424098545341,1.5757360795164888,48.10788314600286,1,b,1.5783456999997725,incorrect,v
157,2F4K,158,2,51.69985638587863,70.11217965041651,1.465096499282082,67.9148248741691,2,v,1.3583889000001363,incorrect,b
158,2F4K,159,1,39.75092297521534,49.87890902878684,1.142764155055509,52.10211003545589,1,c,1.1463260000000446,correct,c
159,2F4K,160,1,55.37557997076876,45.12061799980768,1.5814713269292031,47.9373095158383,2,n,0.7758698000016011,correct,n
160,2F4K,161,1,69.51571768373906,46.72147919792892,2.122068946514493,49.34554582748103,2,n,1.8876297000006161,correct,n
161,2F4K,162,1,61.56830222323906,42.64627710857632,1.7988178018451246,45.75435539777148,2,n,1.121792899999491,correct,n
162,2F4K,163,2,54.03995205688356,35.77094677940222,1.5381525164588303,39.72302083761632,1,v,1.3544081000000006,correct,v
163,2F4K,164,2,49.395815144037606,25.96439468545757,1.396556996508455,31.5351180329685,1,b,1.2431635000011738,incorrect,v
164,2F4K,165,2,45.5136766426762,60.31165973183716,1.2882479522863837,60.79000408130911,2,b,0.830486099999689,correct,b
165,2F4K,166,2,51.25857577167855,45.5296922947549,1.4517140151054004,48.29761736063181,1,b,0.8318077999992965,incorrect,v
166,2F4K,167,2,54.31478855065142,41.54105740740598,1.5469683243343002,44.77898031110343,1,b,2.5990010000004986,incorrect,v
167,2F4K,168,2,53.88264000081989,43.56066431072526,1.5331291139015912,46.56147929107126,1,v,0.8368668999992224,correct,v
168,2F4K,169,1,41.92404512630551,24.82302463384525,1.1955888550530185,30.636273444700432,2,c,1.4678225999996357,incorrect,n
169,2F4K,170,1,62.57195277607377,50.938856515067656,1.8367542123848208,53.018523477808,2,c,1.3062379000002693,incorrect,n
170,2F4K,171,2,37.74564850652253,46.687848941799984,1.0960924253411863,49.3160178921362,2,v,1.3584953999998106,incorrect,b
171,2F4K,172,1,43.60594905531477,27.852287536763104,1.2381434485334175,33.05102410607584,2,n,1.0752642000006745,correct,n
172,2F4K,173,2,47.55185111708411,39.78926861753951,1.3440208634845143,43.235441722749776,1,v,0.9336681999993743,correct,v
173,2F4K,174,2,52.11540990101769,71.02591383663923,1.4778115374751484,68.50985615131631,2,b,0.7339768000001641,correct,b
174,2F4K,175,2,49.24223875072671,65.05278645327994,1.3921041619167065,64.39492844318433,2,b,0.8547505999995337,correct,b
175,2F4K,176,1,34.35088333062036,50.5560857113569,1.021384803845944,52.68820947350832,1,c,1.1024308999985806,correct,c
176,2F4K,177,2,55.20067227290739,42.405065244252086,1.5757297998942996,45.54143798326874,1,v,1.1874227000007522,correct,v
177,2F4K,178,1,72.48807707855224,64.84971170592253,2.2573690703035325,64.24619359434601,2,n,1.1343280999990384,correct,n
178,2F4K,179,1,26.715455302615855,38.31431222538361,0.8714342121408833,41.94033818055229,1,c,0.8490989000001719,correct,c
179,2F4K,180,1,52.13958431858082,65.1387245255884,1.4785546095677689,64.45770749591668,1,n,0.7481754000000365,incorrect,c
180,2F4K,181,1,51.18614663619047,70.8469659337149,1.4495292030787184,68.39435954180864,1,c,0.7151623999998264,correct,c
181,2F4K,182,2,36.55023041392991,53.52972708256891,1.0691815981190778,55.23289639761331,2,v,1.1706439000008686,incorrect,b
182,2F4K,183,1,36.81747348752329,46.97422495883978,1.0751397549523254,49.56737016167424,1,c,1.042858900000283,correct,c
183,2F4K,184,2,29.639210766049928,45.31616016206976,0.9260591965080712,48.10957357279364,2,b,0.8550893999999971,correct,b
184,2F4K,185,1,30.76306463930044,43.38109048634001,0.9479559586215822,46.40298486048105,1,n,1.8939450999987457,incorrect,c
185,2F4K,186,1,77.03815354273695,64.10367041316199,2.481383300542356,63.6951907720326,2,n,0.7263751999998931,correct,n
186,2F4K,187,1,53.83106007291811,33.49047217661364,1.5314856003414847,37.75927637968883,2,c,1.3099031999990984,incorrect,n
187,2F4K,188,2,74.26126892446023,58.41056431375776,2.3421574571526538,59.2740152946256,1,v,1.7360784000011336,correct,v
188,2F4K,189,2,27.592476923121453,45.05906446677615,0.8874724920003201,47.88307191084232,2,b,0.605949499999042,correct,b
189,2F4K,190,1,68.63001385964814,49.21384419227872,2.083343047143493,51.5245064343592,2,n,1.1230556000009528,correct,n
190,2F4K,191,2,66.48691978087405,47.78371577957665,1.992538490420112,50.276648897217854,1,v,1.5708757000011246,correct,v
191,2F4K,192,1,40.76794710673686,57.32163995397796,1.1671891789870084,58.38982636405449,1,c,0.9447216999997181,correct,c
192,2F4K,193,2,44.214536593048045,59.63812360875491,1.2539119956205955,60.25711258266917,2,b,1.6559570000008534,correct,b
193,2F4K,194,2,46.93617967818674,38.28017351095736,1.3269236763340768,41.91042888424317,1,b,0.8911881999993057,incorrect,v
194,2F4K,195,1,41.72928337412517,58.527595553222014,1.1907565637513042,59.36837966787874,1,c,1.0732122999997955,correct,c
195,2F4K,196,1,52.285055264788326,44.44416226564061,1.4830339841508149,47.34098614031903,2,n,1.0853690000003553,correct,n
196,2F4K,197,1,54.0772130052118,66.15704520407544,1.5393447690660975,65.1940941330755,1,n,1.0575300000000425,incorrect,c
197,2F4K,198,2,59.70998593222403,72.47007686038114,1.7306327125523748,69.42310488462766,2,v,1.5880990000005113,incorrect,b
198,2F4K,199,2,62.37814389488323,47.37113061225078,1.829366727685693,49.91537574802231,1,b,0.8499993999994331,incorrect,v
199,2F4K,200,1,38.35260554232624,30.25718111292057,1.1100142259394572,35.029370828461126,2,c,0.8972389999998995,incorrect,n
200,2F4K,201,1,36.71942290281913,55.5342724281282,1.0729498808017102,56.91584588578258,1,c,1.3232418000006874,correct,c
201,2F4K,202,2,43.795535221646674,53.9174803598603,1.2430342571933592,55.56069229964008,2,b,0.92149419999987,correct,b
202,2F4K,203,1,49.13761633001968,34.70568347571742,1.389078844968951,38.80235482874489,2,n,0.9821962000005442,correct,n
203,2F4K,204,1,47.07298148119887,60.39357044868968,1.3307037681482596,60.854484362191286,1,n,1.0968315999998595,incorrect,c
204,2F4K,205,2,55.09676346816427,42.48346700719006,1.5723287601835267,45.61064171521395,1,b,0.8486553000002459,incorrect,v
205,2F4K,206,1,53.50725180418673,66.5497061704635,1.5212081296120388,65.47427312030968,1,n,1.400635299998612,incorrect,c
206,2F4K,207,2,53.02270068318321,31.700324451243507,1.5059574630118084,36.23889219338752,1,b,1.2142178999984026,incorrect,v
207,2F4K,208,2,54.00279405567487,41.01776910983791,1.5369644774895286,44.317474573444585,1,v,0.7263919000015449,correct,v
208,2F4K,209,1,35.53345216808483,54.033558547511056,1.0468128687498102,55.65862039918114,1,n,1.3597953999997117,incorrect,c
209,2F4K,210,1,30.781787744381617,52.19504010854352,0.9483251038824512,54.09710842988493,1,c,0.9578815999993822,correct,c
210,2F4K,211,2,50.24358685397688,66.8604138368733,1.4213950750010669,65.69445790176216,2,b,1.0078735000006418,correct,b
211,2F4K,212,2,62.347616947589465,52.50685818241615,1.8282058324391004,54.363450559407646,1,b,1.400956600000427,incorrect,v
212,2F4K,213,2,48.69258924323002,63.43337382413188,1.3762834967204316,63.1941052263936,2,v,0.9336685999987822,incorrect,b
213,2F4K,214,1,49.87946836324232,32.124835255753084,1.4106734371302927,36.59753474434251,2,n,1.1399799000009807,correct,n
214,2F4K,215,2,35.97256331168441,46.301619274922935,1.056415152169498,48.97670994607483,2,b,1.7178915999993478,correct,b
215,2F4K,216,2,55.09770776152558,40.81234693326496,1.57235963477889,44.13638852987669,1,b,1.2552877000016451,incorrect,v
216,2F4K,217,2,46.00974026322564,66.28923493721707,1.3016054599239155,65.28865415884115,2,v,1.0671322999987751,incorrect,b
217,2F4K,218,2,31.937722886035324,51.37367991838849,0.9713961587708052,53.39284642833119,2,v,1.190937600000325,incorrect,b
218,2F4K,219,1,29.529815217485208,42.09982269042922,0.923954976050012,45.272025953539504,1,c,1.3827505000008387,correct,c
219,2F4K,220,2,51.43928670283827,35.738817391826984,1.457179496947372,39.6951743463691,1,b,1.7422151999999187,incorrect,v
220,2F4K,221,2,60.62909170305446,48.430113481463486,1.764027132419551,50.84156686819137,1,v,1.2491310000004887,correct,v
221,2F4K,222,2,47.05488948822222,43.112180343759455,1.330203235025728,46.16562190010799,1,v,0.7757051000007777,correct,v
222,2F4K,223,1,55.80883742336166,60.82845570943669,1.5957837083342885,61.19561730900128,1,c,1.6319194999996398,correct,c
223,2F4K,224,1,42.07956046981575,24.232509361247224,1.199461469210003,30.17679385870036,2,n,0.8668774999987363,correct,n
224,2F4K,225,2,49.69463441089112,64.47047212877087,1.405261900362235,63.96699425107704,2,b,2.0638399999988906,correct,b
225,2F4K,226,1,48.83479193118917,36.47006872065273,1.3803592200089367,40.33006086508054,2,n,1.5162509000001592,correct,n
226,2F4K,227,2,71.2998908181568,59.37421174956447,2.202278196198169,60.04702869158694,1,b,1.790579099999377,incorrect,v
227,2F4K,228,2,37.93469723995361,61.38171662563178,1.100409818351624,61.62661046960645,2,v,0.9447832999994716,incorrect,b
228,2F4K,229,1,80.14566351862153,65.32396417627494,2.647021486464493,64.59269574279364,2,n,1.3465601000007155,correct,n
229,2F4K,230,2,45.29820341846364,56.01632626354509,1.28248868954827,57.31600659873978,2,b,1.1217741999989812,correct,b
230,2F4K,231,2,53.59107461253358,68.76420709156753,1.5238619780295182,67.01345130124383,2,v,0.9931620999996085,incorrect,b
231,2F4K,232,1,49.11140624285763,67.44436447849561,1.3883219707135006,66.10459699095735,1,c,1.2809600999989925,correct,c
232,2F4K,233,1,41.70702713866204,58.02255666503411,1.1902056026802823,58.96022397992604,1,n,1.1877123000012944,incorrect,c
233,2F4K,234,2,33.20262804615309,51.154294457897855,0.9972857502161748,53.20410973722013,2,b,1.3901590999994369,correct,b
234,2F4K,235,2,77.0844431918422,64.91879664565975,2.4837729461308338,64.29685305319663,1,v,0.7576702999995177,correct,v
235,2F4K,236,1,27.86616081299038,42.68494011061222,0.8925375828819159,45.788484143014,1,c,1.4314262000007147,correct,c
236,2F4K,237,1,56.94292073598117,40.90144126584463,1.6338636840599554,44.21492152377989,2,n,0.9579121000006126,correct,n
237,2F4K,238,2,34.93062352206263,20.287405841913724,1.0337724826218109,27.213509408471538,1,b,1.4437577999997302,incorrect,v
238,2F4K,239,1,63.196777443463965,50.87274480969177,1.860774618526409,52.96152455592605,2,c,1.1632463999994798,incorrect,n
239,2F4K,240,1,59.7564605831585,49.584203745780144,1.7323060272729536,51.846392707625945,2,n,0.9407744999989518,correct,n
240,2F4K,241,2,41.83653085818602,56.63621273803769,1.1934150913509196,57.82777796254457,2,v,1.8080659999995987,incorrect,b
241,2F4K,242,2,55.94051980438879,48.38551009235015,1.6001593641574796,50.80263139689572,1,b,1.4009432000002562,incorrect,v
242,2F4K,243,1,31.909113944051438,44.16512682976228,0.970818441010726,47.09485878732918,1,c,1.4679101000001538,correct,c
243,2F4K,244,1,62.06039328351,54.03134398032768,1.817319145723748,55.65675298388998,2,n,0.8179370999987441,correct,n
244,2F4K,245,1,47.79389739750292,63.35287593385447,1.3508026567321336,63.13355256497339,1,n,1.115700400001515,incorrect,c
245,2F4K,246,1,49.537361358346814,46.28111724691127,1.4006736369936492,48.958689167492885,2,c,0.8911650999998528,incorrect,n
246,2F4K,247,1,59.54716432934779,77.35121860951416,1.7247830792160337,72.24901772244675,1,n,0.9154656999999133,incorrect,c
247,2F4K,248,1,56.60731547149573,74.40720456776614,1.6225011087973855,70.59391684874468,1,n,0.780926699999327,incorrect,c
248,2F4K,249,1,52.718359795735466,36.92336753252111,1.4964569684831468,40.72472713609421,2,n,1.1110284000005777,correct,n
249,2F4K,250,1,57.8415290181109,37.35795565336604,1.664681147658289,41.10383051607175,2,n,0.9206292999988364,correct,n
250,2F4K,251,2,60.34183322581991,47.0989419750744,1.7535213506597516,49.67676799103549,1,v,1.3112455999998929,correct,v
251,2F4K,252,2,39.37102792190247,55.16084691274827,1.1337722296397252,56.60459330809949,2,b,0.8180994000013015,correct,b
252,2F4K,253,1,43.72012886421447,54.02603697676055,1.2410866681321515,55.65227775765776,1,c,1.1037940999995044,correct,c
253,2F4K,254,1,28.4203644285158,41.8193887388132,0.9028829871154512,45.02454964955089,1,c,1.3835737000008521,correct,c
254,2F4K,255,2,56.34721898110227,67.56689171350831,1.6137494115230702,66.19003743673112,2,b,1.4981379999990168,correct,b
255,2F4K,256,1,45.76284702637463,27.65024953281183,1.2949401413169104,32.88714902522688,2,n,1.1159552999997686,correct,n
256,2F4K,257,1,44.44009004554222,56.9271446596955,1.259806972761966,58.06684318121428,1,c,0.8001356999993732,correct,c
257,2F4K,258,2,56.69751338284453,46.58930491315673,1.625547148409749,49.22947876597952,1,v,1.0793226999994658,correct,v
258,2F4K,259,1,59.48182597427548,52.71194594222271,1.7224412544385104,54.538307142580365,2,n,1.0187458000000333,correct,n
259,2F4K,260,2,40.36693872387348,56.30054585278253,1.1574967652439914,57.55105428248934,2,b,1.091451700000107,correct,b
260,2F4K,261,1,47.64696861537908,57.22835582597899,1.3466818502498583,58.31357679037736,1,c,1.043319700000211,correct,c
261,2F4K,262,2,55.01449573498893,42.73410807631642,1.5696412619833056,45.83188610030031,1,v,1.322141600001487,correct,v
262,2F4K,263,1,71.7614205991068,59.64867783589966,2.223515740898964,60.26549933151093,2,n,1.061098199999833,correct,n
263,2F4K,264,1,58.73936331790897,73.23539627343717,1.696052583974296,69.89321111374537,1,n,1.4275720000005094,incorrect,c
264,2F4K,265,1,45.86020941350495,64.9065303800439,1.2975645250181176,64.28786285297328,1,c,1.0003585000013118,correct,c
265,2F4K,266,2,50.23321086822632,34.72779032346351,1.421088424246742,38.82140410968096,1,b,1.0914554999999382,incorrect,v
266,2F4K,267,2,41.61792757387865,53.90963127095158,1.188002463031942,55.55406711767164,2,b,0.8926105999998981,correct,b
267,2F4K,268,2,34.23912001305669,47.1534349514945,1.0190138078050066,49.72455439862426,2,v,0.8966600999992806,incorrect,b
268,2F4K,269,2,62.83194023007163,45.75840417620789,1.846711123737912,48.49894263473172,1,v,0.9336475999989489,correct,v
269,2F4K,270,1,50.71906088894191,67.51416453504744,1.435518403996859,66.15329624138768,1,c,1.1570673000005627,correct,c
270,2F4K,271,1,40.24665103993648,56.72461272953258,1.1546051225729004,57.90049544432885,1,c,0.8304692000001523,correct,c
271,2F4K,272,1,49.60783107591003,38.538863752121465,1.4027276559274304,42.13715298372177,2,n,0.7953911000004155,correct,n
272,2F4K,273,2,50.67402809612428,57.51691975799311,1.4341747698429852,58.54919338222482,2,b,1.2128269000004366,correct,b
273,2F4K,274,1,67.29606024043943,51.28856570690646,2.026347784981767,53.31965328874937,2,c,1.249525300001551,incorrect,n
274,2F4K,275,1,47.1156307380518,32.30356749101188,1.3318844480362206,36.74890023027183,2,c,0.7711684999994759,incorrect,n
275,2F4K,276,2,72.97403217606319,57.85737970576726,2.280295772076784,58.82621173289955,1,b,0.9023147000007157,incorrect,v
276,2F4K,277,2,57.05487630075195,48.853617585902406,1.6376718323234358,51.21089590169086,1,v,0.8911489999991318,correct,v
277,2F4K,278,1,53.74506837015893,41.340277201510666,1.5287495256505412,44.601873255530926,2,c,1.1778062000012142,incorrect,n
278,2F4K,279,1,22.05467247189812,40.54586797117927,0.7909400064412692,43.9015618401821,1,c,0.8061882000001788,correct,c
279,2F4K,280,1,47.75937304401903,35.119882780364044,1.3498332449522294,39.159677884252055,2,n,1.0853666999992129,correct,n
280,2F4K,281,1,54.71016861020781,36.825340003813615,1.5597394577400294,40.63931149265655,2,c,1.791375099999641,incorrect,n
281,2F4K,282,2,47.75429875193653,31.344051037840963,1.349690822196212,35.93886989435701,1,v,1.4312294999999722,correct,v
282,2F4K,283,2,56.74689748001235,37.56607631837479,1.6272173020147862,41.28561686665064,1,b,1.46760119999999,incorrect,v
283,2F4K,284,1,38.4547173196441,49.951399330505474,1.1123736839781655,52.164951650718976,1,c,0.9943056000010984,correct,c
284,2F4K,285,1,35.37505528229041,42.07261463211245,1.0433705794208916,45.24801359799727,1,c,0.7903380000007019,correct,c
285,2F4K,286,1,47.08357582163399,59.86966101178271,1.3309969586291577,60.4408359977812,1,n,0.7275036999999429,incorrect,c
286,2F4K,287,2,32.241097287682365,47.30020884480199,0.9775435750436018,49.85322383404146,2,v,0.9215055999993638,incorrect,b
287,2F4K,288,1,55.879404665333546,44.54093564427215,1.5981270875218867,47.42632883210013,2,n,0.7105043000010483,correct,n
288,2F4K,289,2,74.04941565885537,54.20361364731243,2.3318620931733096,55.80191483687253,1,b,0.9213865000001533,incorrect,v
289,2F4K,290,2,49.66454051913194,36.683068382541705,1.4043827838006828,40.51540966418292,1,b,1.5661239999990357,incorrect,v
290,2F4K,291,2,65.1933220887577,49.0384945412708,1.9396544552395445,51.37191192514696,1,v,0.709208000000217,correct,v
291,2F4K,292,2,57.65480459795211,40.98564040106839,1.658230014229264,44.28914870996068,1,v,0.8248175000007905,correct,v
292,2F4K,293,1,62.66918952377414,51.571098317094766,1.8404718523343968,53.56246381521295,2,n,0.8379674999996496,correct,n
293,2F4K,294,1,35.46066412637101,56.64887149856567,1.0452296272149426,57.83819511935067,1,c,0.698355000000447,correct,c
294,2F4K,295,1,61.47678528704618,76.24367747394092,1.7953978326801754,71.64438034858321,1,n,0.684035500000391,incorrect,c
295,2F4K,296,1,47.7347291667491,65.4614714208897,1.3491416933374412,64.69260541040659,1,c,0.6244839000009961,correct,c
296,2F4K,297,2,28.856754781182303,46.279651550007415,0.9111134699868936,48.9574008207661,2,b,1.1574313999990409,correct,b
297,2F4K,298,1,29.321414191194417,50.62892918835061,0.9199596089111826,52.7511261774435,1,c,0.8087589999995544,correct,c
298,2F4K,299,2,29.054893123101643,51.95238908772558,0.9148751573523418,53.88944910602293,2,b,1.0296509999989212,correct,b
299,2F4K,300,1,56.77731314733727,42.19754422399469,1.6282468034733095,45.35827253342034,2,n,0.6983271000008244,correct,n
300,2F4K,301,2,51.51605475904887,40.56768934386625,1.4595075185200903,43.92078750751603,1,v,1.3184306000002834,correct,v
301,2F4K,302,2,57.31289840279373,45.13246101966989,1.6464822421556629,47.94774431414281,1,v,0.8729545999995025,correct,v
302,2F4K,303,1,53.831163213830834,66.33237226945224,1.5314888850063837,65.31945980060883,1,n,1.146367100000134,incorrect,c
303,2F4K,304,1,77.60191763501665,63.262250067228784,2.5106440952621045,63.06528606651892,2,n,0.7947515000014391,correct,n
304,2F4K,305,1,30.931938531350305,40.05179401391239,0.9512906846092636,43.466459781083984,1,c,0.6558578000003763,correct,c
305,2F4K,306,2,34.113523647129426,48.32952496149798,1.0163559186973137,50.75375062028812,2,b,0.9943034999996598,correct,b
306,2F4K,307,1,50.82037964585801,67.10645132325367,1.4385460347878356,65.86785233722533,1,c,0.939676199999667,correct,c
307,2F4K,308,2,58.99650369321032,50.44124341466699,1.7051458086952762,52.58896494770598,1,v,1.1824546999996528,correct,v
308,2F4K,309,2,47.29455102517463,62.64551097706533,1.3368490108063344,62.59805898849006,2,v,1.1828117999993992,incorrect,b
309,2F4K,310,1,41.42265849601183,53.29995970350223,1.1831883519974216,55.03817981596036,1,c,0.6544843000010587,correct,c
310,2F4K,311,2,57.80643436261035,51.718925446539046,1.663466751730981,53.68933340808316,1,v,1.243150099999184,correct,v
311,2F4K,312,2,61.28132950450187,48.58584496884927,1.7881154471968188,50.97745338390378,1,v,0.8682587000002968,correct,v
312,2F4K,313,1,34.958296866864295,46.349189722662445,1.0343675392559797,49.018519637920576,1,c,0.9579088000009506,correct,c
313,2F4K,314,1,46.88514071401772,62.878854006917805,1.3255161255683363,62.77537410106064,1,c,0.7521777000001748,correct,c
314,2F4K,315,2,37.534562804951285,55.49523586804874,1.0912917768205284,56.883359716952334,2,b,1.4070742999992945,correct,b
315,2F4K,316,2,42.78606365422616,58.40199232353761,1.2172132213894131,59.26709837635196,2,b,0.6800164000014775,correct,b
316,2F4K,317,1,48.98520825820532,37.609842150024,1.3846834938665338,41.323863565293045,2,c,1.290606900000057,incorrect,n
317,2F4K,318,2,55.050483976296846,38.43394822656981,1.5708163496269114,42.04517899495406,1,v,1.3365434999996069,correct,v
318,2F4K,319,2,58.24637510828327,67.45975511503201,1.6787544841303068,66.11534098640402,2,v,1.0914288999993005,incorrect,b
319,2F4K,320,2,66.02154845089885,56.906538421950735,1.973349444009193,58.04993471052525,1,b,0.9765392999997857,incorrect,v
320,2F4K,321,2,37.72660746496583,52.35288929326008,1.0956585163822388,54.23200936989944,2,v,2.2323605000001407,incorrect,b
321,2F4K,322,2,63.83689307241909,48.731618457774935,1.8857086519036084,51.10457093972101,1,v,0.9056032999997115,correct,v
322,2F4K,323,2,47.33125557270644,64.69058429087676,1.3378697497809668,64.12926980432258,2,b,0.8488796000001457,correct,b
323,2F4K,324,1,33.33035538871137,52.30476238990551,0.9999380772997324,54.19089487800695,1,c,0.7529427000008582,correct,c
324,2F4K,325,2,53.22596332544797,75.94863607536519,1.5123362064290855,71.47961096043824,2,v,1.0935560999987501,incorrect,b
325,2F4K,326,1,41.0656946850242,45.54595036367028,1.1744382334747605,48.31193167454604,1,c,0.5573825999999826,correct,c
326,2F4K,327,2,45.31732906867455,57.64243241589176,1.2829988453522574,58.65144144104445,2,b,1.0246124999994208,correct,b
327,2F4K,328,2,42.43948110096066,52.02513102031708,1.2084723236914952,53.95173707129645,2,b,0.6922673999997642,correct,b
328,2F4K,329,2,60.52445179506822,74.29439629222172,1.760192913419346,70.5274787825203,2,v,0.8488287000000128,incorrect,b
329,2F4K,330,1,54.17786905357359,67.51248939375971,1.5425701207740423,66.15212831986271,1,n,0.9714030000013736,incorrect,c
330,2F4K,331,2,42.71337269157095,50.19181700632983,1.2153747130420085,52.3731986000535,2,b,1.0430271999994147,correct,b
331,2F4K,332,1,58.2406352502194,42.95669929891192,1.6785541250004423,46.02837494210734,2,n,1.0624575999991066,correct,n
332,2F4K,333,1,67.76808228744981,55.737414083569206,2.046335176564435,57.08470484062339,2,n,0.8061932000000525,correct,n
333,2F4K,334,1,63.10976925143534,74.00519440413836,1.857410991666793,70.35615835333218,1,n,0.8182116999996651,incorrect,c
334,2F4K,335,2,45.37788278127815,30.67525498161595,1.284615388170636,35.37816066716561,1,b,0.9653725999996823,incorrect,v
335,2F4K,336,1,40.794694444133405,48.88325344623944,1.167838544628814,51.23671570457444,1,c,0.7091108000004169,correct,c
336,2F4K,337,1,52.91712097938521,32.46904880806751,1.5026548080241775,36.88923256458842,2,n,0.8001322000000073,correct,n
337,2F4K,338,1,43.982872261009184,57.75558124859785,1.2478860210123803,58.74349400198407,1,c,0.7699990999990405,correct,c
338,2F4K,339,2,39.40512319912936,26.122801723050586,1.1345763493762298,31.66094910187413,1,b,0.9665475000001607,incorrect,v
339,2F4K,340,1,28.982649631836285,40.156209515602754,0.9135018077525644,43.55837861511812,1,c,0.8860034999997879,correct,c
340,2F4K,341,1,58.74682239832775,49.0171906587464,1.6963156743733188,51.35336436411584,2,n,2.28843820000111,correct,n
341,2F4K,342,2,53.14013525576274,68.93248503911099,1.509639479848729,67.12748134661165,2,v,1.2796109999999317,incorrect,b
342,2F4K,343,2,47.96469104463847,33.52430544945446,1.3556086346706744,37.78820438086071,1,b,0.8499534999991738,incorrect,v
343,2F4K,344,1,61.4694470156626,46.18936163194893,1.795123884735809,48.87802708122717,2,n,0.9516956000006758,correct,n
344,2F4K,345,1,61.47618067004042,43.87008110160307,1.795375259900613,46.83453893472399,2,n,0.6421948999995948,correct,n
345,2F4K,346,1,49.65142485341956,42.42989948751093,1.4039998150572532,45.56335851604913,2,c,0.6376280999993469,incorrect,n
346,2F4K,347,2,69.49259091370763,53.70701274102684,2.121048672644526,55.38289592402486,1,v,1.176623199999085,correct,v
347,2F4K,348,1,41.490862721346936,60.449491450050616,1.1848676195290635,60.89846427265968,1,c,0.9518762000006973,correct,c
348,2F4K,349,2,48.84465676155589,59.02981275000403,1.3806424068068042,59.77181446944821,2,v,1.13916590000008,incorrect,b
349,2F4K,350,1,66.94549567744573,45.15228408193089,2.0116298554325707,47.96520981360919,2,n,1.2977639000000636,correct,n
350,2F4K,351,2,34.19173971361343,47.13333382308291,1.0180103233253002,49.70692809943627,2,b,1.1399732999998378,correct,b
351,2F4K,352,2,46.68621078868346,38.97422151792242,1.3200442791102416,42.51912353161863,1,b,0.739341800001057,incorrect,v
352,2F4K,353,1,48.4983336586754,44.97687141728641,1.370735307364551,47.81063962413237,2,c,1.3659109000000171,incorrect,n
353,2F4K,354,1,40.74475886018895,51.29294701793249,1.1666265123346795,53.32342189982755,1,c,0.7332181999991008,correct,c
354,2F4K,355,2,52.96612412785661,33.561929040388065,1.504186781392532,37.82038107141571,1,v,0.9882871999998315,correct,v
355,2F4K,356,2,33.68790619449429,46.09202191080857,1.0074003838608678,48.79243649568607,2,b,0.680135299999165,correct,b
356,2F4K,357,1,53.429442476351056,33.64527853921227,1.5187488057686294,37.89169325786512,2,n,0.8426084999991872,correct,n
357,2F4K,358,1,56.17207867961761,40.29052193406317,1.6078829218787312,43.67664374204198,2,n,0.6618942999994033,correct,n
358,2F4K,359,2,42.12724283840008,52.61232821952987,1.2006513574243245,54.453405928521896,2,b,0.9207563999989361,correct,b
359,2F4K,360,2,41.13510541842488,24.74066692385717,1.1761345894328892,30.571958766428065,1,b,0.6558624000008422,incorrect,v
360,2F4K,361,2,68.88030799233539,56.8093070034423,2.09421453170101,57.97010153482704,1,v,2.9435431999991124,correct,v
361,2F4K,362,2,50.20896849577751,65.35059994914123,1.420372225632739,64.61206837200945,2,v,1.2721595000002708,incorrect,b
362,2F4K,363,1,45.81238854326611,35.94515590780108,1.2962748590505806,39.87408778497947,2,c,1.091724100000647,incorrect,n
363,2F4K,364,1,37.72275683051701,50.19499453680815,1.095570788662898,52.37594916091094,1,c,0.9700673000006645,correct,c
364,2F4K,365,1,44.67268077631173,52.24890859403192,1.2659148992547735,54.14316207344415,1,c,0.7092594999994617,correct,c
365,2F4K,366,1,32.361384407362245,49.231927946046575,0.9799917656698204,51.54023646113062,1,c,0.6012215999999171,correct,c
366,2F4K,367,1,58.44316942568145,42.76441720931877,1.6856383971312854,45.85864093069128,2,n,0.5331344999995054,correct,n
367,2F4K,368,1,65.16983646136894,75.24249179206369,1.9387074176733845,71.07901473634604,1,n,0.5344889000007242,incorrect,c
368,2F4K,369,1,65.23058212474498,55.75196245349037,1.9411578831580223,57.09678534199615,2,n,0.7820992999986629,correct,n
369,2F4K,370,1,39.0976025188486,24.5712317430898,1.1273442078793772,30.43987904198792,2,c,0.6983159000010346,incorrect,n
370,2F4K,371,2,73.70471932619313,59.68524032224767,2.315207627189752,60.29454426780347,1,v,0.9882307999996556,correct,v
371,2F4K,372,2,41.58323981073861,45.02338227972496,1.1871458518674636,47.8516282747287,2,b,0.6194340999991255,correct,b
372,2F4K,373,2,59.90389998781613,71.62208766129415,1.737625282464739,68.89095033230785,2,v,0.7346998000011808,incorrect,b
373,2F4K,374,2,55.00143510973671,43.2390301736611,1.5692150240301173,46.27759257235159,1,v,1.249608399999488,correct,v
374,2F4K,375,1,56.00069407457879,40.00158630976838,1.6021628788291282,43.42226793752372,2,n,0.9214946999982203,correct,n
375,2F4K,376,1,49.91762858368344,59.38432712186987,1.4117932782263816,60.0550939819224,1,c,0.7324313999997685,correct,c
376,2F4K,377,2,52.8620744369966,57.89164766660808,1.5009357622150772,58.85403506414017,2,v,1.1727230999986205,incorrect,b
377,2F4K,378,2,64.37296916353955,48.99937617876866,1.9068469793463976,51.33785338004885,1,v,1.0672587000008207,correct,v
378,2F4K,379,2,42.73658569920804,54.39923100000341,1.2159615171529023,55.96649452963482,2,b,0.7411807999997109,correct,b
379,2F4K,380,2,51.480874137890666,68.57526771990527,1.45844019099653,66.88491671184886,2,v,0.7661418000006961,incorrect,b
380,2F4K,381,2,62.272040353899854,52.83193188267989,1.8253349335172229,54.64048581991499,1,v,1.0055409999986296,correct,v
381,2F4K,382,1,47.79009534581059,63.44833360976793,1.350695864547422,63.20534957766274,1,c,1.2384201000004396,correct,c
382,2F4K,383,2,37.22747381111933,24.363553646274852,1.0843452783753822,30.27842321749616,1,b,1.2006678999987344,incorrect,v
383,2F4K,384,2,48.202801343621104,62.38601223726907,1.362337391619603,62.40010646111303,2,b,1.6496774000006553,correct,b
384,2F4K,385,2,66.71070130502538,52.14369249709483,2.001832187841401,54.05319405226928,1,v,1.456958399998257,correct,v
385,2F4K,386,1,61.23925591777395,70.20363194767822,1.7865517169375034,67.97496836682075,1,n,1.11606269999902,incorrect,c
386,2F4K,387,2,50.66117866912844,31.534654070260096,1.4337916148092904,36.09926701885467,1,v,1.41447590000098,correct,v
387,2F4K,388,1,49.195437404484,56.12281542222785,1.3907500159473547,57.404150647262384,1,c,1.199812999999267,correct,c
388,2F4K,389,2,33.818452518549684,44.65041996544086,1.0101388229406136,47.52286891636908,2,b,1.2613578000000416,correct,b
389,2F4K,390,1,40.16432390943967,45.48929690702656,1.152630193590826,48.26204955340717,1,c,0.8621997999998712,correct,c
390,2F4K,391,1,42.25460545209151,59.65591861488215,1.2038354143333216,60.27125243893345,1,n,1.2613660999995773,incorrect,c
391,2F4K,392,1,40.3032408287412,25.31363570670294,1.1559646057014958,31.020932604372728,2,c,0.7697981000001164,incorrect,n
392,2F4K,393,2,48.37523275611431,65.66429897947799,1.3672309707609551,64.83951362221285,2,v,1.2748530999997456,incorrect,b
393,2F4K,394,2,43.664395325963866,64.09016573625736,1.239649148436772,63.685150960322495,2,v,0.7939975999997841,incorrect,b
394,2F4K,395,2,56.87229493890982,41.244634630319936,1.6314659167795529,44.51752089814085,1,v,2.221643299999414,correct,v
395,2F4K,396,2,54.53557831983901,62.86561887745644,1.554087085604967,62.76533433300767,2,b,0.7455002000006061,correct,b
396,2F4K,397,2,26.215396872249432,37.95911032731205,0.8624196208108608,41.62931145963346,2,b,1.0566756000007445,correct,b
397,2F4K,398,1,44.63359346864126,51.94104128597842,1.264886384563341,53.87972938922977,1,n,1.0186068000002706,incorrect,c
398,2F4K,399,2,35.472418937785044,54.756594307115975,1.0454851485526904,56.26643957509677,2,b,1.1035632000002806,correct,b
399,2F4K,400,1,51.13555155123323,58.807618792750944,1.4480049623044762,59.59362922832727,1,n,1.497502700000041,incorrect,c
