,condition,trial,sub_task,x,y,xt,yt,cat,resp,rt,acc,correct_resp
0,2F4K,1,1,35.2571785394372,46.63351658000696,1.04081622432208,49.89451848135276,1,n,2.9073637999999846,incorrect,c
1,2F4K,2,1,64.40247344229944,42.647158829715934,1.9080172351228528,46.29082851486676,2,n,2.0017906000000494,correct,n
2,2F4K,3,2,48.19188058335058,62.180418168176764,1.3620280524217905,63.20320463215488,2,v,3.509065899999996,incorrect,b
3,2F4K,4,2,35.36318585178699,47.29969257419824,1.0431130886962308,50.49404111320319,2,v,2.2094452999999703,incorrect,b
4,2F4K,5,2,55.36020125968189,46.52450210780711,1.5809656670038494,49.7963019693288,1,b,2.5675578000000314,incorrect,v
5,2F4K,6,2,42.12220060587995,58.84611352952717,1.2005254753956334,60.51757202099472,2,b,1.6971060000000762,correct,b
6,2F4K,7,2,63.0319647383844,49.57448108325935,1.8544083172690475,52.53036746372807,1,v,1.4919895000000452,correct,v
7,2F4K,8,2,47.23942229938436,64.93083750369462,1.3353173657898891,65.31932269558054,2,v,1.5879863000000114,incorrect,b
8,2F4K,9,2,63.18508964567325,48.01371994875339,1.860322429098925,51.135193457001584,1,b,2.938741700000037,incorrect,v
9,2F4K,10,1,55.58029609037246,44.76641074384834,1.5882179242927843,48.20900621080452,2,n,3.878377300000011,correct,n
10,2F4K,11,1,75.02441347207522,52.30926368949377,2.3796219715393665,54.94788078458605,2,c,1.62550310000006,incorrect,n
11,2F4K,12,1,72.32723587251233,55.2555064131808,2.249831688083018,57.500860007599655,2,n,1.692480899999964,correct,n
12,2F4K,13,2,33.13179884779622,44.26831665934598,0.9958179773008202,47.75844514977626,2,v,3.6243292000001475,incorrect,b
13,2F4K,14,1,45.630456655639385,56.34800095893835,1.2913800991439288,58.43085814029414,1,c,1.7361468999999943,correct,c
14,2F4K,15,2,67.57636734256678,46.747947847351256,2.038193495924825,49.997583697330526,1,b,1.3355325999998513,incorrect,v
15,2F4K,16,2,51.39043102795993,61.07135913809933,1.4556998633029334,62.32366054989442,2,v,1.2309376000000611,incorrect,b
16,2F4K,17,2,39.04731104794258,50.69366378653879,1.1261658681448825,53.52440257321594,2,b,4.223495299999968,correct,b
17,2F4K,18,1,55.76104557205935,73.82805909784805,1.5941986004983404,71.41733203623966,1,n,4.200033399999938,incorrect,c
18,2F4K,19,1,59.93309155089641,53.11421141205281,1.7386803785522462,55.65132245600567,2,c,5.0,incorrect,n
19,2F4K,20,2,45.388244285804056,59.845153780443866,1.284892203058866,61.33498510126585,2,v,1.698253300000033,incorrect,b
20,2F4K,21,2,69.4451598077294,50.31236256384297,2.118957709169488,53.18640903138168,1,b,2.4217561000000387,incorrect,v
21,2F4K,22,2,56.29728598649216,41.18349858861498,1.6120746808490796,44.96602543023074,1,b,1.2371090999999979,incorrect,v
22,2F4K,23,1,72.20408179760943,63.3087973648881,2.2440774271170034,64.08295347735374,2,c,2.234291600000006,incorrect,n
23,2F4K,24,1,43.22525245703578,62.31772590501642,1.2283805495985065,63.31108792275427,1,c,2.1827902999998514,correct,c
24,2F4K,25,2,57.57941791956473,40.58126451897741,1.6556325729664836,44.42148957508224,1,b,1.1267917000000125,incorrect,v
25,2F4K,26,1,56.04315760833497,42.20786213400782,1.6035782204225906,45.89308347710062,2,n,2.16697309999995,correct,n
26,2F4K,27,2,30.76251397807406,51.37768914015993,0.9479451039450087,54.1288611789362,2,v,1.0056632999999238,incorrect,b
27,2F4K,28,1,39.9917601194271,54.45181887884944,1.1485015498620064,56.81061914387157,1,c,2.0623986000000514,correct,c
28,2F4K,29,1,55.2330845094229,33.37987525363351,1.5767921895356756,37.99200916187971,2,n,0.8112981000001582,correct,n
29,2F4K,30,1,34.97263342395021,48.5634260084862,1.0346759512112498,51.62763980392938,1,c,1.1155822000000626,correct,c
30,2F4K,31,2,55.36870851801324,61.38562690369484,1.58124537004598,62.57434344021729,2,b,0.921786099999963,correct,b
31,2F4K,32,1,46.70831784363637,57.640396972303385,1.32065124730276,59.51770778853,1,c,0.9760595000000194,correct,c
32,2F4K,33,2,60.49916987652888,73.00610767632647,1.75926778322138,70.90739376364986,2,v,1.376788900000065,incorrect,b
33,2F4K,34,1,49.72682938412635,58.47565496541177,1.4062030039711135,60.21187452446192,1,n,1.6693390000000363,incorrect,c
34,2F4K,35,1,45.04836657386493,58.14346812056687,1.27584316742264,59.9366058700018,1,c,1.2994937999999365,correct,c
35,2F4K,36,1,52.58838959920255,37.47045481233032,1.492418023079584,41.62046231602822,2,n,1.3234466999999768,correct,n
36,2F4K,37,2,52.98444417640401,58.69026919837612,1.5047599175790376,60.38913827374281,2,b,2.7542525999999725,correct,b
37,2F4K,38,1,67.92088028573303,53.56548720064299,2.0528474298698898,56.04383751110903,2,n,2.080637999999908,correct,n
38,2F4K,39,2,43.832935109680186,56.1165106937325,1.2440013518945,58.23463006596829,2,v,1.0660809000000881,incorrect,b
39,2F4K,40,1,52.36767207776526,63.50783185632976,1.4855839793454078,64.23649167468908,1,c,1.0175142999999025,correct,c
40,2F4K,41,2,45.32791353977871,59.58142758464465,1.283281261768335,61.12021503304632,2,b,3.562514799999917,correct,b
41,2F4K,42,1,41.65503563652808,26.830567224156784,1.1889195275874889,32.4134014760465,2,c,1.085445400000026,incorrect,n
42,2F4K,43,1,47.31356840749673,32.31088789189957,1.3373777794426231,37.05891480359089,2,n,1.1898870999998508,correct,n
43,2F4K,44,2,72.90372131260048,59.02057082731616,2.276964248564393,60.66105435589727,1,v,1.7226949000000786,correct,v
44,2F4K,45,2,45.04061519822153,64.22401424418713,1.275637536799584,64.78477594541802,2,b,0.8852773999999499,correct,b
45,2F4K,46,1,33.20285448030164,50.93306739350343,0.9972904460127562,53.73623948364733,1,c,1.1095920000000206,correct,c
46,2F4K,47,2,45.16957709203272,51.950851707682425,1.2790629885869993,54.633372512184,2,v,1.0987817999998697,incorrect,b
47,2F4K,48,1,38.45102536062265,47.18740721479575,1.1122882879596014,50.39307525343853,1,c,1.1945766999999705,correct,c
48,2F4K,49,1,32.313679515047895,43.62909374086184,0.9790201004203882,47.17989866277084,1,c,0.7930091999999149,correct,c
49,2F4K,50,2,40.80580965381718,28.25570200941409,1.1681085033560263,33.59620009019204,1,b,1.4433621000000585,incorrect,v
50,2F4K,51,1,65.13234547494568,50.61487089086509,1.9371965842730128,53.45461830248275,2,n,1.1216480000000502,correct,n
51,2F4K,52,1,32.587747561371586,49.362888730012926,0.9846155483224144,52.341793091308176,1,c,0.7697313000001031,correct,c
52,2F4K,53,2,40.16545014029019,55.478404842748496,1.1526571877132266,57.69139999068031,2,v,2.597822899999983,incorrect,b
53,2F4K,54,1,45.07733004194393,27.288540607993085,1.276611811633429,32.79134231532121,2,n,1.3028415999999652,correct,n
54,2F4K,55,1,46.062349517439465,61.8192903929713,1.3030301677137015,62.91839108384952,1,c,1.8209755999998833,correct,c
55,2F4K,56,1,37.3337879530252,29.185701850078893,1.086745136077771,34.378313881169554,2,c,1.2916715999999724,incorrect,n
56,2F4K,57,1,23.436135705364823,45.82911723942867,0.813990617923824,49.16916093627562,1,c,1.181398199999876,correct,c
57,2F4K,58,1,44.26834731316158,34.010923830954226,1.255315861371831,38.54617106316135,2,n,1.054472300000043,correct,n
58,2F4K,59,2,43.92400940460591,57.9762254610656,1.246359519625032,59.7976139141162,2,b,1.3525038000000222,correct,b
59,2F4K,60,2,66.54047533645736,48.8416659607247,1.9947587298655864,51.87647559231525,1,v,1.0854284999998072,correct,v
60,2F4K,61,2,43.36720174544512,56.49637237555264,1.2320117815338747,58.55638667272005,2,b,1.1035205000000587,correct,b
61,2F4K,62,2,55.94221719937392,45.54991676867004,1.600215844917542,48.91708405772737,1,v,1.0260634999999638,correct,v
62,2F4K,63,1,34.87299548768748,52.49844628382774,1.0325344123386149,55.11357487553397,1,c,0.9942324999999528,correct,c
63,2F4K,64,1,56.18654767343259,41.75059307679639,1.6083667652603262,45.47915394369105,2,n,0.819516399999884,correct,n
64,2F4K,65,2,69.56153354041297,55.246742725157965,2.1240916345847665,57.49336045300895,1,b,1.2431794999999966,incorrect,v
65,2F4K,66,1,39.56081279135459,55.74657236040812,1.1382554631770674,57.920105056211554,1,c,0.8178104000000985,correct,c
66,2F4K,67,2,49.69028352378442,38.98690201687391,1.4051347662320155,42.98286268646902,1,b,2.2687968000000183,incorrect,v
67,2F4K,68,2,26.163116326435954,46.19117888410598,0.8614825564764725,49.49582159894476,2,v,1.1581694000001335,incorrect,b
68,2F4K,69,1,74.99845976100794,62.8352714167628,2.3783380544956927,63.71567221879325,2,c,2.7324842999998964,incorrect,n
69,2F4K,70,1,36.35098202018714,53.48219333927781,1.0647608717441612,55.97149333060037,1,c,0.8001090000000204,correct,c
70,2F4K,71,2,65.28578874198563,81.97875875082136,1.943387591296598,75.80827251627183,2,b,1.2555620999999064,correct,b
71,2F4K,72,1,61.4396658179051,54.03879881755845,1.7940125399069082,56.45400943540503,2,n,1.4555628000000524,correct,n
72,2F4K,73,2,43.93773319576847,37.765406625620905,1.246715254236442,41.88488960745327,1,b,2.001613099999986,incorrect,v
73,2F4K,74,2,27.55973265238533,37.9092665451163,0.8868684194628976,42.01396732547317,2,v,1.898668300000054,incorrect,b
74,2F4K,75,2,65.88843063601763,44.559230677115146,1.967894554661754,48.02163031052724,1,v,0.8486188000001675,correct,v
75,2F4K,76,2,51.2116313034506,65.95740580245099,1.4502975683592323,66.08367641989614,2,v,2.142723500000102,incorrect,b
76,2F4K,77,1,60.00105250602569,47.82666503035702,1.7411392331794775,50.967385873993415,2,n,1.4436683999999786,correct,n
77,2F4K,78,1,36.47294844208805,52.510307621796926,1.0674647674233206,55.12395615446274,1,c,1.000324800000044,correct,c
78,2F4K,79,1,61.62886038141487,50.936686980030174,1.8010844286828127,53.73944000283288,2,n,1.0184291999999004,correct,n
79,2F4K,80,1,48.61698813118638,59.2843134881205,1.3741215674903424,60.87737980685348,1,c,1.4494779999999992,correct,c
80,2F4K,81,2,45.12973949427684,37.19882973953861,1.2780038521286068,41.3772174979114,1,b,1.5880076999999346,incorrect,v
81,2F4K,82,2,49.85060381380615,37.67813098329253,1.4098269747579053,41.80661526816891,1,v,1.7468599999999697,correct,v
82,2F4K,83,1,49.96284694824737,32.342291045368945,1.4131213968717848,37.08621893890584,2,c,1.341643299999987,incorrect,n
83,2F4K,84,2,36.78079908494812,50.269660793649024,1.0743201414702055,53.14851278935269,2,b,2.1742229000001316,correct,b
84,2F4K,85,2,54.62474032967193,39.295123360313234,1.5569711475597017,43.26055808996622,1,v,0.7090789000001223,correct,v
85,2F4K,86,2,48.36041912737642,70.30905022212345,1.366809872768565,69.1541042724626,2,v,0.7333512000000155,incorrect,b
86,2F4K,87,1,65.73835182112381,46.81105587105192,1.9617627200256893,50.05440925054376,2,n,2.5803416999999627,correct,n
87,2F4K,88,2,50.14654383407747,30.52932600994648,1.4185296588411032,35.521455085773056,1,b,0.8063670000001366,incorrect,v
88,2F4K,89,1,50.699155744387326,42.49756289346482,1.434924343138026,46.155376613225535,2,c,0.7697229999998854,incorrect,n
89,2F4K,90,1,50.62370664604721,34.815961095981706,1.4326748269069287,39.25641157613563,2,n,1.3452548000000206,correct,n
90,2F4K,91,1,45.08649121265023,31.71469375393599,1.2768550308679516,36.54183420562475,2,n,1.2309531000000788,correct,n
91,2F4K,92,2,45.00193058975003,30.555665082244587,1.274611796201234,35.544011363190144,1,v,1.4433442000001833,correct,v
92,2F4K,93,1,58.30140505872816,74.66050214864903,1.6806766087077378,71.92177882278426,1,c,0.9343782999999348,correct,c
93,2F4K,94,1,51.32172511223461,32.22662147413332,1.4536215908165924,36.9856807507304,2,n,0.8182326000001012,correct,n
94,2F4K,95,1,31.493136982577383,50.732163801963495,0.9624570787066082,53.55848930632165,1,c,1.8749533000000156,correct,c
95,2F4K,96,2,56.40246753999668,43.45933583651079,1.6156044514560652,47.02621282316608,1,v,1.0185704000000442,correct,v
96,2F4K,97,1,52.06257187115455,67.56724868919996,1.4761887045179798,67.2524889518343,1,c,3.314843699999983,correct,c
97,2F4K,98,2,68.78760454389099,51.52636007355525,2.0901813736291874,54.259903858065854,1,v,1.0488955000000715,correct,v
98,2F4K,99,1,51.70575786291216,63.159445937237685,1.4652763036823664,63.96741388757097,1,n,1.358408099999906,incorrect,c
99,2F4K,100,2,47.91343089202494,66.33491886275404,1.354164427506721,66.36109076947507,2,v,0.7700479000000087,incorrect,b
100,2F4K,101,2,49.152542181270526,60.58318106150804,1.3895100463279046,61.93203596559863,2,b,0.861069499999985,correct,b
101,2F4K,102,2,48.24131384239669,33.72446336248427,1.3634288495553415,38.294320659934016,1,v,1.564886099999967,correct,v
102,2F4K,103,2,64.73390807625499,46.59886124312695,1.9212126890338237,49.863298918404055,1,v,2.238440899999887,correct,v
103,2F4K,104,1,53.719696822135056,67.09809734495087,1.527943190749005,66.91572303622908,1,n,1.9531746000000112,incorrect,c
104,2F4K,105,1,61.94724559647072,80.32975554277934,1.813048310796717,75.02118385288269,1,c,1.4130549999999857,correct,c
105,2F4K,106,1,46.890892067652175,39.4276101512294,1.3256746615234618,43.37999257902269,2,n,0.8234056000001146,correct,n
106,2F4K,107,1,49.05931656821996,58.69207560010155,1.3868189901303547,60.39062835223949,1,c,0.6544922999999017,correct,c
107,2F4K,108,1,46.59762814848971,61.20638309590894,1.3176149636939083,62.43150395831339,1,n,0.9032263999999941,incorrect,c
108,2F4K,109,2,28.13182827144181,36.87792345658175,0.8974819618404809,41.09019206699276,2,v,1.7650302999998075,incorrect,b
109,2F4K,110,2,56.91116264571061,40.33981121762461,1.6327850515141022,44.20331280490641,1,v,1.182470799999919,correct,v
110,2F4K,111,2,54.10526654377764,66.89379535624265,1.5402430184867972,66.7680688713028,2,b,0.9471372999998948,correct,b
111,2F4K,112,1,54.84210829883504,61.214342142753694,1.564024648233578,62.437854343744114,1,n,1.9046485999999732,incorrect,c
112,2F4K,113,2,61.79602348923108,49.55088243346611,1.8073559984710357,52.50934556187981,1,v,0.8668652000001202,correct,v
113,2F4K,114,2,22.826393548788115,36.202636481142015,0.8037349963709564,40.48753634075062,2,b,0.9639793999999711,correct,b
114,2F4K,115,1,49.73116657602617,36.14748656762597,1.4063298342535702,40.43840264420859,2,c,0.7758579999999711,incorrect,n
115,2F4K,116,2,54.11227009045379,59.90813218804309,1.5404673475881827,61.38616338615968,2,v,1.2676507000001038,incorrect,b
116,2F4K,117,2,53.15852599765292,42.96604842392358,1.5102169137196644,46.5795751627056,1,v,1.3281170999998722,correct,v
117,2F4K,118,1,27.87817922008511,48.87738146556746,0.8927606699564706,51.908395153970325,1,c,3.229056200000059,correct,c
118,2F4K,119,1,44.209249015768734,57.52204767531612,1.2537741329697096,59.41881296655885,1,n,0.8903314000001501,incorrect,c
119,2F4K,120,1,44.19800736470586,64.24557326696898,1.2534810805160546,64.80117780471748,1,c,0.9639627000001383,correct,c
120,2F4K,121,1,52.56741030849943,45.708965062855896,1.4917670945985635,49.06069896340005,2,n,1.3535981999998512,correct,n
121,2F4K,122,1,37.78174288388725,46.01367532834308,1.0969154189060215,49.33570742293827,1,c,0.66079179999997,correct,c
122,2F4K,123,2,35.750472491760384,51.65789101251904,1.0515476125982832,54.37573548542378,2,b,0.6313390000000254,correct,b
123,2F4K,124,2,62.55934265621069,54.55519835403114,1.836272641706553,56.89968202589547,1,v,1.0488901999999598,correct,v
124,2F4K,125,1,61.77930022356522,47.50228312876045,1.8067275987280629,50.67611537604057,2,n,0.8304165999998077,correct,n
125,2F4K,126,2,43.47526579372834,55.0126269921287,1.2347833834880937,57.29279092659049,2,v,0.7043641000000207,incorrect,b
126,2F4K,127,2,65.80505277620527,79.55234412481519,1.964485587255867,74.63187530874976,2,b,0.431298599999991,correct,b
127,2F4K,128,1,56.05455528464092,35.85063697687638,1.603958326357238,40.17416660158069,2,c,0.41910570000004554,incorrect,n
128,2F4K,129,2,43.30354295722552,37.38970123250191,1.23038198823553,41.54811848076282,1,v,1.2491933000001154,correct,v
129,2F4K,130,1,68.64194993406389,51.54004321665526,2.0838602047525687,54.27195835533034,2,n,1.2309735000001183,correct,n
130,2F4K,131,2,51.753136590386,43.46100641555218,1.466720624223727,47.02772529841492,1,b,2.159511199999997,incorrect,v
131,2F4K,132,1,70.27557032414094,49.185241462441255,2.155865403754427,52.18332450537382,2,n,0.8783392000000276,correct,n
132,2F4K,133,1,48.399864084783005,63.16481736246006,1.367931437743206,63.97157411617555,1,c,0.9093162000001485,correct,c
133,2F4K,134,2,45.27391202721272,36.82714261136383,1.28184103567588,41.044808795544135,1,v,2.0187706000001526,correct,v
134,2F4K,135,1,52.153125638051065,38.90835232448789,1.4789710052486853,42.91213012334961,2,n,1.8500315999999657,correct,n
135,2F4K,136,1,50.11448784595202,30.743814663350523,1.4175844025735065,35.705297372149616,2,n,0.8672002000000703,correct,n
136,2F4K,137,2,68.38849920434279,54.2615582077466,2.07290640237549,56.64649943047303,1,v,2.8153308999999354,correct,v
137,2F4K,138,2,71.66869143179862,50.63818223877489,2.2192323803011065,53.47526766477233,1,v,0.7090780000000905,correct,v
138,2F4K,139,1,58.274691001971,43.20227509275342,1.679743246750839,46.79346908271645,2,n,1.6632942999999614,correct,n
139,2F4K,140,1,49.14869940440648,32.51420270104592,1.3893990173805286,37.235809040538456,2,c,1.9592783999999028,incorrect,n
140,2F4K,141,1,46.61936881490421,34.40931876241359,1.3182107715961773,38.897209975109455,2,n,0.5769239000001107,correct,n
141,2F4K,142,2,49.83480163693368,63.758598396509846,1.409363785906064,64.42922043254154,2,b,1.5274461999999858,correct,b
142,2F4K,143,2,43.24657789649986,32.37188305349864,1.2289253958082689,37.11195444982646,1,v,0.7818483999999444,correct,v
143,2F4K,144,1,44.42029628175332,28.46948148417563,1.2592885432309,33.775292888866524,2,n,1.5044405999999526,correct,n
144,2F4K,145,2,32.0980046855841,42.39253296954615,0.9746391909111422,46.06028010253626,2,v,1.5040407999999843,incorrect,b
145,2F4K,146,2,55.22856214319554,43.73981395155858,1.5766439150300653,47.28012863873464,1,b,1.5101654999998573,incorrect,v
146,2F4K,147,1,65.95989071012747,55.95468234524738,1.9708209615903187,58.09718278019361,2,n,2.7200734000000466,correct,n
147,2F4K,148,2,47.362566250346674,39.09546610670157,1.3387411033337384,43.08064827679924,1,v,2.0444786000000477,correct,v
148,2F4K,149,2,63.43985823468692,50.23780716866224,1.8702041304080672,53.120238155823614,1,b,1.279519100000016,incorrect,v
149,2F4K,150,2,60.28771123834084,44.23748466234958,1.7515489862914324,47.73054708396953,1,v,0.8424721999999747,correct,v
150,2F4K,151,2,59.896353035636544,37.66354653197861,1.7373526105778867,41.79353750277076,1,v,0.8439961999999923,correct,v
151,2F4K,152,2,45.1187587919052,57.63249034651994,1.2777120695103332,59.51110495087511,2,b,0.8851316999998744,correct,b
152,2F4K,153,2,48.98308261538045,35.28835845189048,1.3846222901318377,39.6747768233818,1,v,1.4675480999999309,correct,v
153,2F4K,154,2,52.79182098069861,32.77173267248032,1.4987446766928,37.46026819079933,1,v,0.6012081999999737,correct,v
154,2F4K,155,2,63.08752655855675,81.0627131437597,1.8565520935304665,75.37755659017967,2,b,0.7818750999999793,correct,b
155,2F4K,156,2,38.03693756993927,55.44291918999257,1.102751809006932,57.66109250828416,2,v,1.242185500000005,incorrect,b
156,2F4K,157,1,46.56722833857412,62.81743907466245,1.3167823015113156,63.70178652732231,1,c,2.384047899999814,correct,c
157,2F4K,158,1,42.32270946189684,54.2118677566306,1.2055414734287715,56.60359237056981,1,c,0.8598484000001463,correct,c
158,2F4K,159,1,58.23889252887342,72.40236322676384,1.678493297195165,70.52545242740003,1,n,1.831865999999991,incorrect,c
159,2F4K,160,2,65.88097071769013,45.85391434537748,1.9675893094022137,49.1915419537167,1,v,1.1828947999999855,correct,v
160,2F4K,161,2,42.70418970318083,57.07507897534517,1.215142653472332,59.0441504560618,2,b,1.4552573000000848,correct,b
161,2F4K,162,1,42.900670442104726,57.728592845103336,1.220117520363054,59.59132052444871,1,c,1.0429059000000507,correct,c
162,2F4K,163,2,68.9934060977072,49.56967676310607,2.099145520354115,52.52608792657268,1,v,1.487208100000089,correct,v
163,2F4K,164,1,55.45010954856697,41.95872524814772,1.583924189843989,45.66754453339468,2,n,1.1885227999998733,correct,n
164,2F4K,165,1,66.85932111767296,58.63414687038079,2.008028343956541,60.34282743041885,2,c,0.7576165999998921,incorrect,n
165,2F4K,166,1,29.444889259492484,50.38587674456383,0.9223247247447992,53.25162943878063,1,c,0.8674657000001389,correct,c
166,2F4K,167,2,36.08006690033392,47.78005606771824,1.058779382676089,50.92555500357754,2,b,1.4312680999998975,correct,b
167,2F4K,168,1,50.98462102081945,67.07385736528407,1.4434675052957586,66.89823581504643,1,n,0.8789459000001898,incorrect,c
168,2F4K,169,2,46.666880300405765,34.08299867833465,1.3195137725529702,38.60961241862458,1,v,3.3200131000000965,correct,v
169,2F4K,170,1,50.46666358950695,39.057996014522224,1.4280038883103234,43.046894988670736,2,n,1.9484498000001622,correct,n
170,2F4K,171,2,56.78619043713091,43.5878338360581,1.6285474024051247,47.142546313989634,1,b,1.4242095999998128,incorrect,v
171,2F4K,172,2,75.67746561783255,64.3573070345092,2.412157263481197,64.88608604521964,1,b,2.7625970999999936,incorrect,v
172,2F4K,173,2,43.16700108989835,62.32140282749073,1.2268935092079734,63.31397378033446,2,v,1.3467309999998633,incorrect,b
173,2F4K,174,2,38.87751404795299,50.15720284742618,1.1221965802026836,53.04866864918593,2,v,0.6908700999999837,incorrect,b
174,2F4K,175,2,50.26611506500565,60.80118868445271,1.4220610991200382,62.10725559809087,2,b,0.8112701999998535,correct,b
175,2F4K,176,1,55.77085081714719,42.58360789128785,1.5945236817091957,46.23328570375788,2,n,1.4738068000001476,correct,n
176,2F4K,177,1,56.27856953901417,72.51900367259339,1.6114473873565656,70.59972388221662,1,c,0.7934913999999935,correct,c
177,2F4K,178,1,76.3119336412515,61.77828341527361,2.4441926620670773,62.88595221499155,2,c,2.889224499999955,incorrect,n
178,2F4K,179,1,76.32768696708166,67.29068669556212,2.444993464792834,67.05435709306435,2,n,0.6302026999999271,correct,n
179,2F4K,180,1,45.15704344412861,48.38750115129305,1.2787296699905084,51.47015712933976,1,c,0.9943269000000328,correct,c
180,2F4K,181,1,43.61851503553695,49.93507250419093,1.2384670204295416,52.851278120205095,1,c,0.6732735999999022,correct,c
181,2F4K,182,2,52.7119948009048,41.27576908271183,1.4962589160129425,45.04949441753936,1,b,4.63183980000008,incorrect,v
182,2F4K,183,1,53.40457846776978,39.55801798188181,1.5179637662042058,43.49759134750299,2,c,1.2856930000000375,incorrect,n
183,2F4K,184,2,54.159610909278605,57.66467945585413,1.5419845682942108,59.53798246970875,2,b,0.9821885000001203,correct,b
184,2F4K,185,1,66.28863306394935,48.81759037997916,1.9843396579701311,51.85495602428145,2,n,1.249385299999858,correct,n
185,2F4K,186,2,51.63810540178351,42.799443645758096,1.463216411938239,46.42871821336868,1,v,1.206725600000027,correct,v
186,2F4K,187,1,30.238421879892957,46.75438602494921,0.9376703092455796,50.003381413902574,1,c,1.0549490999999307,correct,c
187,2F4K,188,1,29.307529110255366,42.85927002409836,0.9196940253466376,46.48288971564096,1,c,0.6423539999998411,correct,c
188,2F4K,189,1,58.80790914988237,47.30635569744228,1.698471811040529,50.50003138613855,2,n,0.7272714999999152,correct,n
189,2F4K,190,2,45.64911937754317,33.34833085283061,1.291881355696752,37.96437080285422,1,v,0.7650763999999981,correct,v
190,2F4K,191,1,71.36875922459858,53.422344873424585,2.205434290256658,55.91948311757829,2,n,0.8243168999999853,correct,n
191,2F4K,192,1,49.5888774123761,64.60963750168077,1.402174907315622,65.0772311986747,1,n,1.8491977999999563,incorrect,c
192,2F4K,193,2,45.82998029135137,60.4556219726002,1.2967491362516126,61.82926805563699,2,v,1.4992617000000337,incorrect,b
193,2F4K,194,1,64.99273613341492,80.12399382169123,1.931580874657446,74.91927389299575,1,n,0.9022999000001164,incorrect,c
194,2F4K,195,2,70.26471981297547,51.30319155245327,2.1553790306366007,54.06315092658687,1,v,2.7070525999999973,correct,v
195,2F4K,196,1,70.57706633615095,57.93243774645965,2.169423915833743,59.7611784927358,2,c,0.9447024000000965,incorrect,n
196,2F4K,197,1,55.005828684998185,33.67603819559897,1.5693583969343512,38.25179369770535,2,n,0.962892199999942,correct,n
197,2F4K,198,1,66.63687089201588,48.57356763851823,1.99876121237568,51.63671481381167,2,n,1.6315284999998312,correct,n
198,2F4K,199,1,61.62484019956756,69.69500587114779,1.8009338691242538,68.7383557848331,1,n,1.158161600000085,incorrect,c
199,2F4K,200,2,64.69361517124169,48.802766174000254,1.9196036417215128,51.84170452795557,1,v,1.0867425000001276,correct,v
200,2F4K,201,2,38.867829176203685,56.520417388412966,1.121970602390416,58.57671181285954,2,v,3.429134299999987,incorrect,b
201,2F4K,202,1,51.88595646771706,31.457300061131377,1.4707771764243212,36.319375406291286,2,n,1.5465396000001874,correct,n
202,2F4K,203,1,53.6404061851827,42.94537153428711,1.5254259900362497,46.5608527414187,2,n,1.2613466000000244,correct,n
203,2F4K,204,1,46.8491024934049,57.27739890837514,1.3245231642003987,59.21396795381082,1,n,1.0184214000003067,incorrect,c
204,2F4K,205,2,49.60644590613656,67.42207190448822,1.4026872526285044,67.14862286068994,2,b,2.3733664000001227,correct,b
205,2F4K,206,2,50.62334527285268,65.06404204211188,1.4326640610488854,65.4193144850755,2,b,0.7103290000000015,correct,b
206,2F4K,207,2,51.07970841270243,30.544406220678752,1.446324478032187,35.53436882012843,1,v,0.7204130000000077,correct,v
207,2F4K,208,2,43.54368769551477,58.49930942442523,1.236541475601882,60.23143466078294,2,b,0.6377124000000549,correct,b
208,2F4K,209,1,38.252974613527954,60.28647328348448,1.1077169157507782,61.69271742252149,1,n,2.0881159999999,incorrect,c
209,2F4K,210,1,63.314807915998855,51.033091467667326,1.865347265830511,53.82465764525518,2,n,1.3038416999997935,correct,n
210,2F4K,211,2,31.80954241232275,45.18544943304969,0.9688104101252542,48.58781940183877,2,v,5.0,correct,b
211,2F4K,212,2,42.32847149437138,55.57222481042633,1.205685927767826,57.771480426573554,2,b,0.6899496999999428,correct,b
212,2F4K,213,2,30.152007044023005,46.2308466576898,0.9359868793078394,49.53159400799623,2,b,1.1727044000003843,correct,b
213,2F4K,214,2,61.53048009259277,41.1314676490448,1.797403607454322,44.91896170111972,1,b,1.0610572999999022,incorrect,v
214,2F4K,215,2,65.17603528868118,55.086877732056905,1.9389573350862392,57.35644895655366,1,v,0.5269605999997111,correct,v
215,2F4K,216,2,46.74803617303728,56.738091791981056,1.3217424494034684,58.76048094434715,2,v,0.970270100000107,incorrect,b
216,2F4K,217,2,51.02919650611299,68.96270956017378,1.444806106161058,68.23479421883002,2,b,0.7408110999999735,correct,b
217,2F4K,218,1,49.68979451394034,35.935568728958714,1.4051204779475222,40.24972702768076,2,n,1.7108914000000368,correct,n
218,2F4K,219,2,36.39305549357712,57.38876648727439,1.0656928315028156,59.30728480246595,2,v,0.7275722999997924,incorrect,b
219,2F4K,220,1,45.01047989374058,61.19378254271373,1.27483841399828,62.42144871464542,1,c,1.2269705999997313,correct,c
220,2F4K,221,1,48.57465622710068,65.23090837546572,1.372912505573967,65.54423663526806,1,c,0.7686926000001222,correct,c
221,2F4K,222,2,56.90253552691092,43.44117698181735,1.632492162855359,47.0097724542506,1,b,0.8487131000001682,incorrect,v
222,2F4K,223,1,42.028684039591646,30.97462536664609,1.198193175207632,35.90352838345884,2,c,1.2492048999997678,incorrect,n
223,2F4K,224,1,41.46953092099054,59.660886269911614,1.1843421497568,61.185001037206966,1,c,1.9957801000000472,correct,c
224,2F4K,225,2,58.58609415177555,47.71024731941611,1.6906556273474864,50.86288963188183,1,b,1.771183800000017,incorrect,v
225,2F4K,226,1,43.68109483986967,29.009668205983225,1.240079699573258,34.22967988441547,2,n,1.0927667000000838,correct,n
226,2F4K,227,1,63.64432833719189,50.12446304523887,1.878172860991835,53.01958978327765,2,n,0.9942492000000129,correct,n
227,2F4K,228,2,61.24121540328139,44.31261465286693,1.7866245138922348,47.79852626447556,1,v,1.0369883000003028,correct,v
228,2F4K,229,2,38.17914906753931,46.85272482343626,1.106017698696684,50.09192438746573,2,b,1.0009892000002765,correct,b
229,2F4K,230,1,49.13392117006967,55.198589940188825,1.388972114069347,57.45214269090954,1,n,1.5585791999997127,incorrect,c
230,2F4K,231,1,51.11968231483856,65.999059172714,1.44752721181487,66.11438342846395,1,c,0.7698176000003514,correct,c
231,2F4K,232,1,58.81687307790316,45.63387013572239,1.6987884350881928,48.992896654494544,2,n,0.9835577000003468,correct,n
232,2F4K,233,1,49.61499663947477,34.20013014208583,1.4029366831184422,38.71277611945428,2,n,0.9275132999996458,correct,n
233,2F4K,234,1,44.44333088374894,28.006896800598536,1.2598918756977528,33.38829833489584,2,n,0.9539672999999311,correct,n
234,2F4K,235,1,65.34712709224279,51.16928394067584,1.9458679542262571,53.94496215245943,2,c,1.012513300000137,incorrect,n
235,2F4K,236,2,34.621911993461545,51.51514101906404,1.027157460422505,54.2500193752204,2,v,2.530165499999839,incorrect,b
236,2F4K,237,1,51.84242714186108,65.1344527761457,1.4694464799715423,65.4720725049891,1,c,1.2445377000003646,correct,c
237,2F4K,238,2,53.53324562321782,60.68567753092972,1.5220306048347667,62.014481586976494,2,b,1.133899399999791,correct,b
238,2F4K,239,1,51.68073584010308,34.32365208737985,1.4645140918665815,38.82165155184688,2,n,1.929095899999993,correct,n
239,2F4K,240,2,50.5038424251077,61.3390700891631,1.4291083223404324,62.537277784223576,2,b,2.421848200000113,correct,b
240,2F4K,241,2,36.99759003104154,52.5793991155181,1.0791741535283512,55.18440893400332,2,v,1.3414204999999129,incorrect,b
241,2F4K,242,1,50.72474391429294,44.81253164697063,1.4356880566811332,48.25071136452012,2,n,0.5889876000001095,correct,n
242,2F4K,243,1,64.63074850626997,46.81798574905171,1.917095830377572,50.0606486281241,2,n,0.8911359000003358,correct,n
243,2F4K,244,2,38.698052009189176,48.733194540883495,1.1180165621826086,51.77950246088682,2,v,0.8000582999998187,incorrect,b
244,2F4K,245,1,49.91134279631774,31.825111226642164,1.4116087558120227,36.63741131455279,2,n,1.084330399999999,correct,n
245,2F4K,246,2,51.83244826929529,34.279576583205774,1.469141594375686,38.78279252375909,1,b,0.9569201999997858,incorrect,v
246,2F4K,247,1,72.22824448338008,56.16235711867943,2.2452052447206423,58.27352909575576,2,n,1.8560317000001305,correct,n
247,2F4K,248,1,43.51890343659441,60.63973257701857,1.235904358249084,61.97753904029096,1,c,1.2548001999998633,correct,c
248,2F4K,249,1,51.62384984379219,64.42636656553057,1.4627827262086626,64.93848347547278,1,c,0.7999086999998326,correct,c
249,2F4K,250,2,62.52469653907805,47.00685250244178,1.8349501833188544,50.23064793672186,1,v,1.7893549999998868,correct,v
250,2F4K,251,1,54.87322261639997,38.17736938582122,1.5650369059393416,42.25469824558592,2,n,1.7543743999999606,correct,n
251,2F4K,252,1,59.352067011204966,73.17476775624084,1.7177999216111488,71.01298043467327,1,c,0.641399999999976,correct,c
252,2F4K,253,1,40.23224955242289,51.75863866032243,1.1542594041522227,54.46439147679812,1,n,1.8440489999998135,incorrect,c
253,2F4K,254,2,53.12988992226484,41.43766216573526,1.5093178918752246,45.19596580442463,1,v,1.4494454999999107,correct,v
254,2F4K,255,1,63.543241799299246,39.51780085506468,1.8742290215316637,43.46132049407838,2,n,0.786942100000033,correct,n
255,2F4K,256,2,54.65952987934872,34.73467549263673,1.558097912142666,39.18453878793877,1,v,2.185238500000196,correct,v
256,2F4K,257,2,49.80712135222216,39.46368946080727,1.4085527961031008,43.41252431458032,1,v,0.708026300000256,correct,v
257,2F4K,258,2,47.14146759263312,56.806959558724856,1.3326002115802575,58.81853487616205,2,b,0.8911270999997214,correct,b
258,2F4K,259,1,55.80407545642298,44.88709942798624,1.5956256979547132,48.318134025025245,2,n,1.3159528999999566,correct,n
259,2F4K,260,1,38.95335261638102,47.57256076012474,1.123967701369354,50.739247219763904,1,n,2.7008089999999356,incorrect,c
260,2F4K,261,1,36.02933000713051,47.86045325800916,1.0576629128707988,50.99770592100607,1,c,0.7394879999997102,correct,c
261,2F4K,262,1,66.42598285934814,52.0140424255106,1.9900152489310563,54.68887837416025,2,c,1.4979938000001312,incorrect,n
262,2F4K,263,1,55.43183417513551,41.92016411081171,1.5833223722941727,45.63263886694864,2,n,0.7461284000000887,correct,n
263,2F4K,264,2,63.2905014292187,42.36993957215729,1.864404684460503,46.03982393300886,1,v,2.201958399999967,correct,v
264,2F4K,265,1,42.25307698441274,53.49675735780334,1.2037971527278906,55.98414622112167,1,n,1.4373476000000664,incorrect,c
265,2F4K,266,2,27.127047675825388,44.89381118507697,0.8789246721714282,48.32420230013604,2,v,1.959248000000116,incorrect,b
266,2F4K,267,2,30.82242793584496,50.72903737404866,0.949126861749508,53.55572154495374,2,b,0.7711231000002954,correct,b
267,2F4K,268,1,55.71122520473497,38.287297652660925,1.5925478892046796,42.353467563805786,2,n,1.2916654999999082,correct,n
268,2F4K,269,2,37.439488716237605,52.73782999708023,1.089136413249781,55.32291723896108,2,b,2.524026799999774,correct,b
269,2F4K,270,1,53.61739072121963,33.78121603996354,1.5246961063269877,38.34417846354013,2,n,0.7809339999998883,correct,n
270,2F4K,271,2,34.5624941568942,42.00195998573166,1.0258891303061248,45.706681795873045,2,v,1.4446642000002612,incorrect,b
271,2F4K,272,2,25.47008988373289,40.785887491049664,0.8491566904935988,44.60645483187513,2,b,1.541033399999833,correct,b
272,2F4K,273,1,71.1981866847847,56.31863168911504,2.1976255680980312,58.40598797453789,2,c,1.2273497999999563,incorrect,n
273,2F4K,274,1,37.97192465153316,53.85506696987511,1.1012619998923316,56.29497501598103,1,c,1.3706802000001517,correct,c
274,2F4K,275,1,51.96399496590792,38.53057843551605,1.4731658396706226,42.57217952638887,2,n,1.012537699999939,correct,n
275,2F4K,276,1,28.690082861878885,47.55503512339716,0.9079611576742233,50.72350499285612,1,n,1.2066546999999446,incorrect,c
276,2F4K,277,2,67.49678458404678,47.81556943127485,2.0348233258852524,50.95742837035783,1,b,1.7772720000002664,incorrect,v
277,2F4K,278,2,64.80220938194466,55.47739647202746,1.9239432986527776,57.69053890459026,1,v,0.87896580000006,correct,v
278,2F4K,279,1,67.06071892247077,49.06394808373212,2.016455499424859,52.07505099021366,2,n,2.324862199999643,correct,n
279,2F4K,280,1,60.31822571026167,48.79897475258694,1.7526607504168763,51.83831520416805,2,n,0.7211916000001111,correct,n
280,2F4K,281,1,44.36822096377431,51.08988390039593,1.257925628215515,53.874836820203726,1,n,1.412163899999996,incorrect,c
281,2F4K,282,2,43.83117245959952,25.99452203909674,1.2439557560027266,31.72896461256405,1,v,1.5223006999999598,correct,v
282,2F4K,283,2,62.9143929607154,45.0346299653771,1.849880129934305,48.45150609847871,1,b,1.1399758999996266,incorrect,v
283,2F4K,284,1,41.05351342302762,52.24725538155092,1.1741407833342978,54.8935235140363,1,n,1.679057599999851,incorrect,c
284,2F4K,285,2,38.0551703716601,49.415283165736085,1.1031699860964772,52.38850571078953,2,b,1.7949241999999686,correct,b
285,2F4K,286,1,66.24579960730401,48.243352468493725,1.9825730000974773,51.34103623013928,2,n,1.0975021999997807,correct,n
286,2F4K,287,1,54.80952702564791,66.28484380750697,1.5629653670706425,66.32440869024086,1,c,0.9872228000003815,correct,c
287,2F4K,288,1,57.27290844029179,42.62063602531572,1.6451136495047936,46.26681310826386,2,n,0.7202601999997569,correct,n
288,2F4K,289,2,36.154715716747525,44.23889965259731,1.0604241794079012,47.73182744460279,2,v,1.061268899999959,incorrect,b
289,2F4K,290,2,56.36899524924039,41.89242686378099,1.6144803226974025,45.60753158277157,1,v,1.4879747999998472,correct,v
290,2F4K,291,1,58.74296592608675,70.22079825981127,1.69617964703916,69.09472090634297,1,c,2.7982680999998593,correct,c
291,2F4K,292,1,54.840210440358526,44.69811950368808,1.5639629254415592,48.147248511530215,2,n,1.0792883999997684,correct,n
292,2F4K,293,1,40.71373555943803,57.56516374507109,1.1658741509725858,59.45485668088951,1,c,1.7092837000000145,correct,c
293,2F4K,294,1,36.61749276838913,21.62939039140229,1.0706780887828296,28.283144933229305,2,n,0.9457339000000502,correct,n
294,2F4K,295,2,46.38336054466041,58.47966565738548,1.3117572978734426,60.21519139937375,2,b,1.8316919000003509,correct,b
295,2F4K,296,1,35.42643123033295,48.42079096308941,1.0444858420694951,51.49996583814583,1,n,1.3159593000000314,incorrect,c
296,2F4K,297,2,64.24541114112422,46.38262771500938,1.9017957803067984,49.66843781940198,1,v,1.9714050000002317,correct,v
297,2F4K,298,2,39.83419098088789,48.18116385548596,1.1447445761113977,51.28530826160492,2,b,1.1640590000001794,correct,b
298,2F4K,299,1,53.116977915024925,67.55046312542254,1.5089126979788436,67.24049566283435,1,c,0.9579266000000644,correct,c
299,2F4K,300,1,50.46974985622749,43.98144463576851,1.4280955364170151,47.49884010957889,2,n,0.7468783000003896,correct,n
300,2F4K,301,2,37.169696236681645,47.12578348917776,1.083043273085753,50.33764861556764,2,v,0.9205896000003122,incorrect,b
301,2F4K,302,1,56.83813565621322,43.06231518863562,1.630307461620122,46.66674188554912,2,n,1.1339413000000604,correct,n
302,2F4K,303,1,47.98511595676374,57.16940112223717,1.3561845166250863,59.12336620900191,1,c,1.0367771000001085,correct,c
303,2F4K,304,2,49.54049627045827,61.519946570607445,1.4007649480139717,62.68114015063874,2,b,2.2748656999997365,correct,b
304,2F4K,305,2,44.4616809324156,35.779581394899594,1.2603727151269732,40.11097647905847,1,v,0.7090407999999115,correct,v
305,2F4K,306,1,26.214676486326976,36.99599675684879,0.8624067018581407,41.19575384878722,1,n,1.52868750000016,incorrect,c
306,2F4K,307,2,52.81933448303737,66.30431957840808,1.4996023946224806,66.33867972220705,2,b,1.206971799999792,correct,b
307,2F4K,308,2,38.85438597453637,28.20190898385657,1.121657006612761,33.551201688788765,1,v,1.3886449000001448,correct,v
308,2F4K,309,1,50.613675381677325,64.46686753486165,1.4323760103019387,64.96918348835514,1,c,1.1827796000002309,correct,c
309,2F4K,310,2,52.31610147617469,63.23519812375477,1.483991721941374,64.02605142408053,2,b,1.4806613999999172,correct,b
310,2F4K,311,2,39.99843734200687,52.59163280504194,1.1486610291564796,55.19510989180826,2,v,0.9882557999999335,incorrect,b
311,2F4K,312,1,41.65068857509044,61.75173961702895,1.1888120605380172,62.86494401190981,1,c,0.8365261999997529,correct,c
312,2F4K,313,2,32.444826136268496,53.89353028165899,0.9816936469755912,56.32828794320339,2,b,0.982162100000096,correct,b
313,2F4K,314,2,57.89539342367751,40.41537622674647,1.6665467663880131,44.27158332549219,1,v,0.9265052000000651,correct,v
314,2F4K,315,2,50.45554206133467,70.73389641188405,1.4276736782091033,69.43822640873763,2,b,1.1339271000001645,correct,b
315,2F4K,316,2,58.04466359933637,43.28396546482054,1.6717277409658164,46.86743399291651,1,v,0.7225588000001153,correct,v
316,2F4K,317,1,59.535342663620334,43.749156941854174,1.724359137166943,47.28858611170772,2,n,0.8246365999998488,correct,n
317,2F4K,318,2,36.03107176433509,25.515687250271853,1.0577012208702243,31.340273654834004,1,v,1.1581326999998964,correct,v
318,2F4K,319,1,72.61636079086196,63.90615659517872,2.2633988326102004,64.54225116864343,2,n,2.0927812999998423,correct,n
319,2F4K,320,1,40.93546967465778,56.063639339644574,1.171262212179263,58.18974855950502,1,c,0.8365295000003243,correct,c
320,2F4K,321,2,62.12330096397406,42.63009175183102,1.8196979881601925,46.27537490282537,1,v,2.8282765999997537,correct,v
321,2F4K,322,1,49.80986669749012,36.18935089784589,1.408633209649088,40.47569885294874,2,n,0.9641821000000164,correct,n
322,2F4K,323,1,53.93230240025764,47.95439017918317,1.5347131950029165,51.0819810648912,2,n,1.1108181000004151,correct,n
323,2F4K,324,2,44.80651050690406,29.225288246670413,1.2694427343182215,34.41177594509917,1,v,1.1083142000002226,correct,v
324,2F4K,325,2,43.51356996745624,58.24999192599952,1.2357672961801631,60.024994762674886,2,b,0.7453840000002856,correct,b
325,2F4K,326,2,32.510190578755456,55.03514933462554,0.9830288873037638,57.31210475049401,2,b,1.1823151000003236,correct,b
326,2F4K,327,1,45.79391137029496,34.246174425664776,1.29577689738813,38.753350804010935,2,n,0.6958857999998145,correct,n
327,2F4K,328,1,38.409377009673065,58.5651506112584,1.1113254042418106,60.28585033542872,1,c,0.75895730000002,correct,c
328,2F4K,329,1,53.20783074925205,72.48595206130913,1.5117660779934905,70.57870143916804,1,n,1.0367802000000665,incorrect,c
329,2F4K,330,1,51.43041830937794,64.12784991669028,1.456910798797217,64.7115413054843,1,c,1.2065923000000112,correct,c
330,2F4K,331,2,50.64557760742543,47.61100594798753,1.4333265468043854,50.7737769077724,1,b,2.9731533999997737,incorrect,v
331,2F4K,332,1,62.38860302948276,52.87511828475218,1.829764642833587,55.44281224114288,2,n,1.6375941000001148,correct,n
332,2F4K,333,1,41.99956782354013,56.58733056320751,1.197467943097598,58.63324669651809,1,c,0.7033427000001211,correct,c
333,2F4K,334,1,58.33443614260274,46.230005012330864,1.681831398283775,49.53083504786197,2,n,1.1156553999999232,correct,n
334,2F4K,335,1,55.34294022731964,40.116792463227455,1.5803983079596822,44.00187851810596,2,n,0.7357279999996535,correct,n
335,2F4K,336,2,36.206910330248334,54.16696778877354,1.061575742473133,56.56480633506043,2,v,1.243167099999937,incorrect,b
336,2F4K,337,1,32.95277164745971,42.33986488688183,0.9921176719768438,46.01259442368402,1,c,1.206976499999655,correct,c
337,2F4K,338,1,37.36727553999529,27.27079301513995,1.0875021598119263,32.77665738263235,2,n,1.0125132999996822,correct,n
338,2F4K,339,1,47.40272638694066,52.34152501410413,1.3398595617669888,54.97615219235213,1,c,1.0236399000000347,correct,c
339,2F4K,340,1,54.52829163447349,41.29166915878818,1.553851624497484,45.063878719805615,2,n,1.1874981999999363,correct,n
340,2F4K,341,2,34.348146906121166,48.66387658512356,1.0213266863061328,51.71750877488272,2,b,1.388778900000034,correct,b
341,2F4K,342,2,68.16992600169534,54.30976043094864,2.063506209991286,56.68810413926881,1,v,0.7772577999999157,correct,v
342,2F4K,343,1,28.28318584054315,40.80891579900815,0.9003111394686819,44.627274512206526,1,c,0.8246748999999909,correct,c
343,2F4K,344,1,23.50642462152973,39.45848351476184,0.8151812302828979,43.40783007519501,1,c,0.5466000999999778,correct,c
344,2F4K,345,2,57.52623388139942,36.18097889918562,1.6538025697224878,40.46823977438587,1,v,1.2012859999999819,correct,v
345,2F4K,346,2,34.68262777364112,51.11558689847934,1.0284551162113686,53.89754115291761,2,b,0.8547017000000778,correct,b
346,2F4K,347,2,55.517175246352,66.26554423511726,1.586134658808895,66.31026148368511,2,v,0.8547429000000193,incorrect,b
347,2F4K,348,2,43.107776777550015,59.69559784378713,1.225383476986444,61.2132819418719,2,b,0.8257862999998906,correct,b
348,2F4K,349,1,26.343064618767144,37.81876528202167,0.8647121936443892,41.932757526273946,1,c,1.468272799999795,correct,c
349,2F4K,350,1,43.40440815279338,55.88419591774615,1.2329653400030645,58.03724720955308,1,n,1.3220422000003964,incorrect,c
350,2F4K,351,2,40.94623968343721,55.22094591673273,1.1715245527974107,57.47128121549789,2,b,2.4037476999997125,correct,b
351,2F4K,352,1,58.6300274451023,47.48299993842426,1.6922008605237489,50.6587902619211,2,n,1.9470971000000645,correct,n
352,2F4K,353,2,55.53666750598165,68.74917628552551,1.5867776973114334,68.0863947507605,2,b,2.165617999999995,correct,b
353,2F4K,354,2,56.65540027075029,40.0651224157549,1.6241242513666776,43.95522171460643,1,v,0.8911533000000418,correct,v
354,2F4K,355,2,60.29789133940882,72.41478607010814,1.7519198096319892,70.5333736808593,2,b,0.7758101999997962,correct,b
355,2F4K,356,2,61.46254510411032,43.1779874882307,1.7948662648604237,46.77147805109366,1,b,1.2573812000000544,incorrect,v
356,2F4K,357,2,33.678782238808026,55.90932151272269,1.007209270611327,58.058616598478295,2,b,2.264109400000052,correct,b
357,2F4K,358,2,57.79952276333911,77.20128692530665,1.6632276910335186,73.3846739008426,2,v,1.2795046999999613,incorrect,b
358,2F4K,359,1,56.6425239619694,42.13557147538626,1.6236894416819616,45.82763693677212,2,c,0.787967799999933,incorrect,n
359,2F4K,360,1,60.51218579376736,46.06262818184413,1.7597440082515623,49.37987118973187,2,n,0.7272719999996298,correct,n
360,2F4K,361,2,63.369565971361006,80.7880392053739,1.8674724751313807,75.24522532420096,2,b,3.9873403999999937,correct,b
361,2F4K,362,2,41.72032852963095,32.00904235651138,1.1905348527140036,36.79681335608763,1,v,0.8001506000000518,correct,v
362,2F4K,363,1,51.0052435591312,61.8635290579323,1.4440866454483965,62.953364200439815,1,n,1.1655900000000656,incorrect,c
363,2F4K,364,2,64.59510440276053,44.20799911141335,1.915675408687816,47.70386653471055,1,b,1.0867745000000468,incorrect,v
364,2F4K,365,2,46.62140045653579,61.92615395297784,1.3182664629594711,63.002833159812816,2,b,1.2552346000002217,correct,b
365,2F4K,366,2,70.31423110745122,53.16201210092797,2.157599262009828,55.69296378253868,1,v,0.7115733000000546,correct,v
366,2F4K,367,1,41.48240155262585,54.55436689431383,1.1846591662665535,56.89896603074477,1,n,1.9046720999999707,incorrect,c
367,2F4K,368,2,61.468293485541984,44.096746388011525,1.795080825643398,47.60319065719157,1,v,1.929375500000333,correct,v
368,2F4K,369,2,59.57503509531126,41.387475976183,1.7257829778113647,45.1505575438375,1,v,1.1281096000002435,correct,v
369,2F4K,370,1,46.104815090364895,59.96144768327847,1.3041813124696406,61.42945611779329,1,c,1.5587141999999403,correct,c
370,2F4K,371,1,58.01791641663997,75.78914670642209,1.6707981978491389,72.58606453891687,1,n,2.293015100000048,incorrect,c
371,2F4K,372,2,32.99142168759937,44.31407270427702,0.992915362411968,47.79984548748256,2,b,1.5091176000000814,correct,b
372,2F4K,373,1,70.89919799155778,60.61556615308197,2.184004667893708,61.95809834153975,2,n,1.4192518999998356,correct,n
373,2F4K,374,2,47.96217060371221,63.96627498258274,1.355537587598697,64.58822186891877,2,v,2.9134422000001905,incorrect,b
374,2F4K,375,2,60.38193043211046,45.003513380530485,1.7549840429030843,48.42337827286905,1,b,0.8132428999997501,incorrect,v
375,2F4K,376,2,46.75106081920454,38.223324819143656,1.3218255839990434,42.295984249082295,1,b,1.4798214999996162,incorrect,v
376,2F4K,377,2,40.33700105636324,27.40636577616162,1.1567764057447238,32.88891309531846,1,v,0.9032466000003296,correct,v
377,2F4K,378,1,74.28069881367594,59.92771614363248,2.343103957692462,61.40206929803504,2,n,0.9517624999998588,correct,n
378,2F4K,379,1,55.35442255828718,70.84335833969635,1.5807757021250666,69.51095852829201,1,n,0.860809700000118,incorrect,c
379,2F4K,380,2,44.13390632314224,35.45339665041805,1.25181137388278,39.82120011702997,1,b,1.5829760000001443,incorrect,v
380,2F4K,381,2,30.504508210452244,44.54775551437706,0.9428729219639436,48.011250598141785,2,v,0.7758113999998386,incorrect,b
381,2F4K,382,2,57.75265130488374,43.07613325526344,1.6616073916698682,46.67925364982589,1,v,1.0067056000002594,correct,v
382,2F4K,383,1,50.88312972078231,63.43139464196949,1.440424348393588,64.17758609701687,1,n,1.1352881000002526,incorrect,c
383,2F4K,384,1,52.197548346515546,69.88750462675885,1.4803378274161147,68.86933350345647,1,n,0.6544614999997975,incorrect,c
384,2F4K,385,1,58.77446758436876,68.62654231355333,1.6972911080471809,68.00085183087782,1,c,0.6619203999998717,correct,c
385,2F4K,386,1,53.2662872053094,47.58067362670192,1.5136048495553374,50.74653420077717,2,n,0.824595600000066,correct,n
386,2F4K,387,2,43.36412016311511,48.17247708456984,1.231932837114079,51.27752286903697,2,b,1.208987900000011,correct,b
387,2F4K,388,1,56.16901451950633,39.59629116567465,1.6077804749939484,43.53211224510165,2,c,1.6862722000000758,incorrect,n
388,2F4K,389,2,25.386306276973176,34.82546176446127,0.8476785512821623,39.26481432964679,2,b,1.2491924999999355,correct,b
389,2F4K,390,2,54.33507412574449,69.92078649096128,1.547621014490968,68.89191939305955,2,v,2.676748399999724,incorrect,b
390,2F4K,391,1,40.61979139327048,23.742464044031376,1.1635988226427734,29.92305214451525,2,n,1.3159688000000642,correct,n
391,2F4K,392,1,41.89786887365036,61.3038044166856,1.1949382493656169,62.50918483188804,1,n,1.7416929000000891,incorrect,c
392,2F4K,393,2,42.65325344667713,32.89417949600616,1.2138562683002787,37.56714296400665,1,b,1.3549417999997786,incorrect,v
393,2F4K,394,1,42.78179441087647,57.640817092621134,1.2171051663540122,59.51805861538008,1,n,3.5446357000000717,incorrect,c
394,2F4K,395,2,27.74326100104537,37.24995624433847,0.8902594994959823,41.422981751772106,2,v,1.0793104999997922,incorrect,b
395,2F4K,396,1,48.8042277064608,40.23827696752794,1.3794821904789116,44.11159477487358,2,n,0.5565140000003339,correct,n
396,2F4K,397,2,48.478993334597895,63.88667645194261,1.3701841485784112,64.52734528654733,2,v,1.916741600000023,incorrect,b
397,2F4K,398,2,72.61847820886496,53.67987454410513,2.2634984933176514,56.14310964424557,1,v,1.5890331000000515,correct,v
398,2F4K,399,1,57.67236945027768,68.21605202292795,1.6588357947524155,67.71285174955935,1,n,1.323421099999905,incorrect,c
399,2F4K,400,1,63.174207573026216,53.971902123204856,1.859901511172464,56.39613295676708,2,c,0.7523425999997926,incorrect,n
