,condition,trial,sub_task,x,y,xt,yt,cat,resp,rt,acc,correct_resp
0,2F4K,1,1,64.38584141016057,52.75613597754331,1.907357455002624,54.550461574948784,2,c,3.6175263000004634,incorrect,n
1,2F4K,2,1,34.39804742995695,43.71545265843347,1.0223870182444823,46.66665836522181,1,n,3.933012200000121,incorrect,c
2,2F4K,3,1,78.94357427134413,64.21111004228575,2.581674701147349,63.75643090686189,2,c,2.9209805000000415,incorrect,n
3,2F4K,4,1,40.281213806595,63.28610636757552,1.1554352500149772,63.06419317351678,1,c,2.331807700000354,correct,c
4,2F4K,5,1,37.73664945092237,58.12412777330756,1.0958873326455725,59.020384703288784,1,c,1.3283203000000867,correct,c
5,2F4K,6,2,49.774100442965725,66.09971977896234,1.4075859445975407,65.13549997801064,2,v,2.7374605999993946,incorrect,b
6,2F4K,7,1,49.81840922627576,41.684217138597056,1.4088834571007425,44.87250197198868,2,c,4.2001062999997885,incorrect,n
7,2F4K,8,1,47.663564316905166,59.08168254156007,1.3471466675431845,59.7918016911408,1,c,3.3191744999994626,correct,c
8,2F4K,9,2,67.51259533689421,48.83255978148486,2.0354924356497524,51.164508652913575,1,b,2.9741580999998405,incorrect,v
9,2F4K,10,2,30.807854666887003,38.461439656571415,0.94883927944639,42.034358232628726,2,v,2.0745137000003524,incorrect,b
10,2F4K,11,2,58.89383750786904,43.29565479054107,1.7015094044024306,46.29586684455211,1,b,1.6193968999996287,incorrect,v
11,2F4K,12,2,58.65958140380912,46.46933781293099,1.6932411345276934,49.09449670574846,1,v,2.525101799999902,correct,v
12,2F4K,13,1,49.52285466201344,29.081804767460618,1.4002511759302854,34.015319407908486,2,c,1.115977099999327,incorrect,n
13,2F4K,14,2,46.06666590586578,30.5390225328988,1.3031471287469725,35.22430755007553,1,v,3.890559100000246,correct,v
14,2F4K,15,2,38.0127877555449,50.96920088163488,1.1021981667259797,53.018035371016026,2,b,2.0749163999998927,correct,b
15,2F4K,16,2,46.954997117379534,42.10266317820364,1.3274430000456914,45.24203157899209,1,v,3.7995677000008072,correct,v
16,2F4K,17,2,40.78313657916259,59.1362789121774,1.1675579011538026,59.83551434912306,2,v,0.8728470999994897,incorrect,b
17,2F4K,18,2,45.81322577821641,23.952538055121018,1.2962974271477976,29.916273295199616,1,b,3.029710900000282,incorrect,v
18,2F4K,19,2,56.73280506327923,35.08451012917686,1.626740526312497,39.09199399041879,1,v,1.7047293000005084,correct,v
19,2F4K,20,2,35.97283603368794,19.40483427119063,1.0564211432167872,26.53130698856262,1,b,1.5039378999999826,incorrect,v
20,2F4K,21,1,49.395823600738304,32.315648804461944,1.3965572420960233,36.72021727960185,2,c,1.9410752000003413,incorrect,n
21,2F4K,22,1,65.09013470822936,52.25677119925398,1.93549695945339,54.12407358425917,2,c,3.072255699999914,incorrect,n
22,2F4K,23,2,45.475932900858766,40.95674912584804,1.2872372559055745,44.23041467305642,1,v,4.794827099999566,correct,v
23,2F4K,24,1,32.86162292817901,40.33861776418784,0.9902390086414066,43.685326299974186,1,n,3.017739800000527,incorrect,c
24,2F4K,25,2,75.33288422383566,56.9720605135324,2.3949350429081884,58.080858342489314,1,v,5.0,incorrect,v
25,2F4K,26,2,46.62671280289257,34.834906259465534,1.3184120961251031,38.87644296999711,1,v,0.9447632999999769,correct,v
26,2F4K,27,1,46.53611608048755,29.22887139509145,1.3159306699441036,34.13653976405233,2,c,1.3272205000002941,incorrect,n
27,2F4K,28,2,33.08924675685134,48.82739874180811,0.9949372216142894,51.16000802760213,2,v,2.1161564000003636,incorrect,b
28,2F4K,29,1,40.716023157280354,52.50500436897361,1.1659296120621252,54.33621966665728,1,c,1.42547039999954,correct,c
29,2F4K,30,2,55.6043759942773,41.7104211748552,1.5890133878617978,44.89563938816296,1,v,2.561591199999384,correct,v
30,2F4K,31,2,38.78032686215872,52.23344292040577,1.119930966340093,54.1041177510122,2,b,1.2674006999995981,correct,b
31,2F4K,32,1,51.26066633232938,38.71633718191003,1.451777125369406,42.25805364253974,2,c,1.5648203999999168,incorrect,n
32,2F4K,33,1,56.790269299140114,37.287396578358894,1.6286855376656253,41.00654110384895,2,c,1.3583682999997109,incorrect,n
33,2F4K,34,2,42.20033940448833,60.384638017663946,1.202477735616898,60.826697347349615,2,v,2.8527993999996397,incorrect,b
34,2F4K,35,1,31.72801981159816,54.7598329295754,0.9671694596298582,56.24494251781149,1,n,2.051769400000012,incorrect,c
35,2F4K,36,1,63.345044306354055,45.875038639013376,1.8665204680940688,48.57158161432535,2,c,2.470345200000338,incorrect,n
36,2F4K,37,1,44.63515963775331,60.140611686051045,1.2649275795114463,60.634220698839535,1,n,1.497067700000116,incorrect,c
37,2F4K,38,1,52.73790661801675,35.5684591276134,1.4970653491139083,39.51078386746142,2,c,1.1155909999997675,incorrect,n
38,2F4K,39,1,53.93557800279699,35.180302297359106,1.5348177343859954,39.17479940385672,2,n,1.457650299999841,correct,n
39,2F4K,40,2,26.1928435199844,47.72244900404414,0.8620152548285157,50.19426438102722,2,v,3.67812640000011,incorrect,b
40,2F4K,41,1,40.481350852839874,29.2941643795547,1.1602538828620463,34.1904166640215,2,c,3.3381038999996235,incorrect,n
41,2F4K,42,1,66.04776376333737,51.70360341115709,1.9744254733924016,53.65002303955387,2,c,0.7641369999992094,incorrect,n
42,2F4K,43,2,42.16288074734984,33.79786537521532,1.2015414532760798,37.984378224450985,1,b,2.5797312999993665,incorrect,v
43,2F4K,44,1,69.43720375527764,45.37221895209396,2.118607174710179,48.12862172579256,2,c,5.0,incorrect,n
44,2F4K,45,2,50.16355875395436,40.48320800416815,1.419031645155202,43.81278121643254,1,b,2.2398113999997804,incorrect,v
45,2F4K,46,1,68.63221214576156,51.645782535884415,2.083438283253084,53.60037155899107,2,c,0.7750218000001041,incorrect,n
46,2F4K,47,2,45.16872542358141,57.34228787504464,1.2790403366491103,58.384093999326254,2,v,1.7589976999997816,incorrect,b
47,2F4K,48,1,46.25843206421264,57.44044423720457,1.3083540179155395,58.46428414666224,1,c,2.379394599999614,correct,c
48,2F4K,49,2,53.19124932824226,39.9697493154498,1.5112449094583924,43.360328967200815,1,b,1.9521440000007715,incorrect,v
49,2F4K,50,1,29.15863316687011,46.190554997013066,0.916850868701988,48.84929294555933,1,n,1.8682323000002725,incorrect,c
50,2F4K,51,2,52.92573553057892,42.336897178973246,1.5029240095371883,45.44892339879315,1,v,2.1922534000004816,correct,v
51,2F4K,52,2,26.505460380738786,43.06085496032643,0.8676371977939762,46.088452521089216,2,b,2.0759164999999484,correct,b
52,2F4K,53,1,45.15323525564866,62.45693204628345,1.2786284126078866,62.434737776401,1,n,1.6436542000001282,incorrect,c
53,2F4K,54,2,73.80878283690814,55.684475038401686,2.320223021834234,57.01710239593845,1,v,2.57266460000028,correct,v
54,2F4K,55,1,69.87622765542348,59.23092789414467,2.138037014365979,59.911224480589226,2,n,1.3888041999998677,correct,n
55,2F4K,56,2,34.715925545881205,49.21174833214336,1.0291674730538156,51.49489329389411,2,v,1.1338888000000225,incorrect,b
56,2F4K,57,1,48.83865418878316,62.789438711663855,1.3804700857876775,62.68814897799908,1,n,1.3090072000004511,incorrect,c
57,2F4K,58,1,40.14484078389094,54.15884793236307,1.1521633113392045,55.73962171664904,1,c,1.055270599999858,correct,c
58,2F4K,59,1,46.89595160745577,38.75687249217248,1.325814143320595,42.29364307469552,2,n,1.3098535999997694,correct,n
59,2F4K,60,1,57.64936611680533,75.84349478504075,1.65804249554037,71.40773325865793,1,c,0.8485074999998687,correct,c
60,2F4K,61,2,26.988786057905536,37.40217896897701,0.8764013317644853,41.10682865581072,2,b,1.1156447000003027,correct,b
61,2F4K,62,2,61.04666003203366,41.17106470034006,1.77941103075845,44.41952098751237,1,v,0.8000934000001507,correct,v
62,2F4K,63,2,69.24126410423594,53.99356306822395,2.1099925764418583,55.60019244634565,1,v,0.788390700000491,correct,v
63,2F4K,64,2,33.44795855172209,52.30502209705392,1.002386407356396,54.16533886100201,2,b,1.1098422999994,correct,b
64,2F4K,65,1,57.86463532206752,40.06220361361724,1.665481189311463,43.44176499362131,2,c,2.5492428999996264,incorrect,n
65,2F4K,66,1,36.69256922076818,47.55278170504399,1.0723509057366865,50.04561633797204,1,n,0.7576730999999199,incorrect,c
66,2F4K,67,1,59.15301577270428,35.679963428332705,1.7107043778545228,39.607431104877286,2,c,0.6605435999999827,incorrect,n
67,2F4K,68,2,49.20343383227916,68.20803934662248,1.3909812905361223,66.6171839681404,2,v,2.0199659999998403,incorrect,b
68,2F4K,69,1,73.27310746311191,58.421395907845664,2.294521339075334,59.26081583338777,2,c,2.0800884000000224,incorrect,n
69,2F4K,70,1,44.31320351287378,31.02732379319592,1.256487314106277,35.63317620343207,2,n,2.8052213999999367,correct,n
70,2F4K,71,2,63.635671609734686,44.924226858110686,1.877834798543156,47.73361805323357,1,v,1.3827837000008003,correct,v
71,2F4K,72,1,54.35579890475166,64.01714872016835,1.5482881204610792,63.61216761037381,1,n,2.494770100000096,incorrect,c
72,2F4K,73,2,54.599824140596056,69.8953097203624,1.5561646623719922,67.75614649001719,2,v,0.8972128999994311,incorrect,b
73,2F4K,74,1,41.15895231410989,60.12289491927209,1.1767179583347935,60.62022193770294,1,c,2.525019599999723,correct,c
74,2F4K,75,1,48.80461578873876,58.889342306493376,1.3794933228679995,59.63756802479844,1,c,0.8729321000000709,correct,c
75,2F4K,76,2,51.83192247947366,68.75288215377849,1.4691255316156675,66.98964691918427,2,v,1.3695913000001383,incorrect,b
76,2F4K,77,2,60.60077027127072,47.60019686650358,1.762988553976662,50.08716626249496,1,b,1.2065205999997488,incorrect,v
77,2F4K,78,1,39.15440396022716,51.8425354129604,1.128676560312322,53.76924903558988,1,n,1.3950457000000824,incorrect,c
78,2F4K,79,1,51.44011887950313,59.7053341264392,1.4572047131136088,60.28933700764563,1,c,1.9837435999997979,correct,c
79,2F4K,80,2,55.99709613710087,38.57279287727503,1.6020430142825222,42.13205890231309,1,b,1.1887798999996448,incorrect,v
80,2F4K,81,2,36.970461277586814,56.58817927442958,1.0785655344009348,57.76517216865028,2,v,2.3427979000007326,incorrect,b
81,2F4K,82,2,43.92000732354912,52.83178667384468,1.2462558007350346,54.61492303823759,2,b,1.04286779999984,correct,b
82,2F4K,83,1,41.26064526845589,58.11944773058286,1.179208932549946,59.016592774892175,1,n,1.3826722000003429,incorrect,c
83,2F4K,84,1,43.887463996267954,22.852037332767715,1.2454127204709893,29.07352985862735,2,n,2.458590099999128,correct,n
84,2F4K,85,2,50.1923142643104,30.287490447384997,1.4198804145803494,35.0144042514698,1,v,2.4036815999998,correct,v
85,2F4K,86,2,39.86262830033392,54.342832990050105,1.145421706618084,55.89459809798337,2,b,0.672636500000408,correct,b
86,2F4K,87,2,49.85637526596348,64.70507228955158,1.4099961838489248,64.12165263197794,2,v,0.7272359999997207,incorrect,b
87,2F4K,88,1,54.09690191413524,46.44864475554564,1.539975135636141,49.07630208155633,2,n,3.203657199999725,correct,n
88,2F4K,89,2,58.97554395400751,47.924768280300825,1.7044027904591186,50.371402521616325,1,b,1.6122645000004923,incorrect,v
89,2F4K,90,1,46.534531037845866,63.55512448563864,1.3158872975377562,63.266616797840975,1,n,1.5465236999998524,incorrect,c
90,2F4K,91,1,49.72244625080186,39.97077111683176,1.4060748418676965,43.36122890995482,2,c,0.9097945000003165,incorrect,n
91,2F4K,92,2,61.68469453459753,46.484442739009445,1.8031767715930265,49.10777727483054,1,v,1.8560720000004949,correct,v
92,2F4K,93,2,46.18802990305077,55.1266449136222,1.3064400259049356,56.55205206743,2,b,0.5579145000001517,correct,b
93,2F4K,94,1,49.23893770358929,64.10970443618739,1.3920086065094264,63.68106767866983,1,c,2.4400917000002664,correct,c
94,2F4K,95,2,61.82980444243677,49.86571552585264,1.8086260310619229,52.06330839831416,1,v,3.878381900000022,correct,v
95,2F4K,96,2,70.18521853380616,48.51027471267095,2.151818739189244,50.88327315631372,1,v,0.7324794000005568,correct,v
96,2F4K,97,1,66.16113730165283,49.2222665425783,1.979085744640865,51.5040496342926,2,c,1.5710181000004013,incorrect,n
97,2F4K,98,1,40.6889192963969,52.911492293485495,1.165272668853237,54.68280078953396,1,c,1.5222493000001123,correct,c
98,2F4K,99,2,61.04754226955696,51.84690636726762,1.7794436754450196,53.77299824935832,1,v,0.6179940000001807,correct,v
99,2F4K,100,1,53.34390181821866,43.18300048522706,1.5160497052713502,46.19635321375503,2,n,2.4280140000000756,correct,n
100,2F4K,101,1,44.10628211177452,33.52861937072749,1.2510925032080389,37.7537499705214,2,n,0.7151425000001836,correct,n
101,2F4K,102,1,55.34908897300959,41.48453102346729,1.580600389929977,44.69620255421844,2,n,0.8425707000005787,correct,n
102,2F4K,103,2,66.59140222936182,60.23790993835241,1.9968722882470973,60.71104092479266,1,v,1.062485000000379,correct,v
103,2F4K,104,2,56.67051955520742,46.33645201369847,1.624634950919064,48.97763831716687,1,v,1.438751599999705,correct,v
104,2F4K,105,1,45.90280782927134,35.22023188397881,1.2987144287741388,39.2093288530446,2,n,1.3644874000001437,correct,n
105,2F4K,106,2,64.01555278146891,50.39484613611065,1.892727323311259,52.52183506642208,1,v,0.6908556000007593,correct,v
106,2F4K,107,2,64.60094423621882,42.53095963929995,1.9159080546245415,45.62034707207082,1,v,0.8547241999995094,correct,v
107,2F4K,108,2,55.39335909291317,62.54371930968434,1.582056115175149,62.50100732450265,2,v,0.544351700000334,incorrect,b
108,2F4K,109,2,63.94427807188326,50.15800553132509,1.8899241598332148,52.31675677763076,1,v,0.6049314000001687,correct,v
109,2F4K,110,1,73.30223638285506,55.29285078172864,2.2959115949295823,56.690868356723286,2,c,1.4910343999999895,incorrect,n
110,2F4K,111,2,38.52946618420263,52.604005929305295,1.1141040564217712,54.42072482424561,2,b,0.7153215999996974,correct,b
111,2F4K,112,2,54.85836939740341,35.671327381415274,1.5645535970131002,39.59994371056261,1,v,1.662156800000048,correct,v
112,2F4K,113,1,38.09123594403842,51.19674813805989,1.1039976325239618,53.21415781775567,1,c,1.3464750000002823,correct,c
113,2F4K,114,1,42.17575203839004,56.44319966236103,1.2018630900562357,57.64561871330476,1,c,0.6243288000005123,correct,c
114,2F4K,115,1,57.6197267561937,41.97985803676015,1.6570209037938664,45.133571548272506,2,c,2.1170341000006374,incorrect,n
115,2F4K,116,1,25.354797391388043,46.78087981531488,0.8471233267020646,49.36830147895109,1,n,2.7860291000006328,incorrect,c
116,2F4K,117,2,40.07089734311752,52.54125940459252,1.1503930940913896,54.36717296904361,2,b,1.0853237000001172,correct,b
117,2F4K,118,1,41.73951934019399,56.11452455894511,1.191010044369885,57.373931032398254,1,c,3.186598700000104,correct,c
118,2F4K,119,2,32.193329485068844,52.2015616855727,0.9765730596466956,54.0768402149837,2,b,1.540444899999784,correct,b
119,2F4K,120,2,46.87967186071643,60.66356011006209,1.3253653943147643,61.04591715785212,2,v,1.0056142000003092,incorrect,b
120,2F4K,121,1,40.28727220449554,58.13174948713814,1.1555808218909056,59.02655963088732,1,c,3.350364400000217,correct,c
121,2F4K,122,2,46.19323404672232,63.51856643278853,1.3065814127391402,63.23916105707226,2,v,1.3766111000004457,incorrect,b
122,2F4K,123,1,28.23783565230209,45.64995975504597,0.8994625186670671,48.373353312248405,1,n,3.0227992000000086,incorrect,c
123,2F4K,124,1,64.65421949602502,49.513025287604,1.9180317271049427,51.75698212559125,2,c,1.4313075999998546,incorrect,n
124,2F4K,125,1,48.20339749287415,35.0704999091896,1.36235428004223,39.07988693888762,2,n,1.230910400000539,correct,n
125,2F4K,126,2,49.097750983308366,34.7626939508991,1.3879278082954898,38.81414096779331,1,v,1.910710499999368,correct,v
126,2F4K,127,2,53.712533774888215,42.98017914491855,1.5277156184510516,46.01718412874457,1,v,1.7284865000001446,correct,v
127,2F4K,128,2,46.67330190918054,55.62280434465966,1.3196899837427332,56.96580944771616,2,v,0.9396526999998969,incorrect,b
128,2F4K,129,2,39.1819814414386,54.36173579011872,1.1293239940844595,55.91050678157667,2,b,1.9584256999996796,correct,b
129,2F4K,130,2,49.16556107951718,42.40927825110494,1.3898862659363105,45.51285948300941,1,v,1.6072011999995084,correct,v
130,2F4K,131,2,60.086866173980816,41.37196052270275,1.7442489742385736,44.59683108234518,1,v,0.6479512999994768,correct,v
131,2F4K,132,1,56.62174739100068,42.53810729733541,1.6229880998523318,45.62666108259421,2,n,1.8612804999993386,correct,n
132,2F4K,133,1,32.31319350383223,50.93833462708833,0.97901020618083,52.991411189216734,1,n,0.8542893999992884,incorrect,c
133,2F4K,134,1,42.66284075674907,53.81793347778802,1.2140982898549328,55.45182759108205,1,c,1.3344325999996727,correct,c
134,2F4K,135,1,40.47909617873314,51.58112186279338,1.1601994860632334,53.54482468654796,1,c,1.2795082000002367,correct,c
135,2F4K,136,1,56.67185214768598,39.7375035616392,1.6246799709597075,43.15583174051247,2,n,1.115642100000514,correct,n
136,2F4K,137,1,36.99957824642603,51.061216434250994,1.079218771585847,53.09737577291843,1,c,1.9653298000002906,correct,c
137,2F4K,138,2,71.06913114030844,57.365423935064186,2.191735850537236,58.40300311982714,1,v,1.2847550999995292,correct,v
138,2F4K,139,1,39.35718779597321,52.89250326959306,1.133445979970625,54.66663326725008,1,c,1.6245613000000958,correct,c
139,2F4K,140,1,48.76985297402543,40.66372013772113,1.378496485541343,43.97194516431002,2,n,1.7830909000003885,correct,n
140,2F4K,141,2,27.658940031023487,46.285605330132654,0.888699881510684,48.93291383061724,2,b,1.437468799999806,correct,b
141,2F4K,142,1,47.39004552475452,64.10120937191707,1.33950629928181,63.67474833270828,1,c,1.8560581000001548,correct,c
142,2F4K,143,2,70.15385500837786,51.59318550633607,2.1504158102879445,53.55518973555112,1,v,0.9752375000007305,correct,v
143,2F4K,144,1,60.26810802717702,40.35572534353933,1.7508351350691247,43.70040475301807,2,n,1.1945826000001034,correct,n
144,2F4K,145,2,43.27520183509301,57.42936962005977,1.2296570921483394,58.45524093510187,2,b,3.088756000000103,correct,b
145,2F4K,146,1,57.04646668009365,73.64854628476104,1.6373854725379235,70.129171890996,1,c,1.2795406000004732,correct,c
146,2F4K,147,1,55.84512032569543,40.98528189811911,1.596988152317413,44.25558814777772,2,n,1.2916188999997757,correct,n
147,2F4K,148,1,59.44883557863273,43.26102741356272,1.7212600374063107,46.26527894867658,2,n,2.1838404000000082,correct,n
148,2F4K,149,1,41.61423645096065,56.9697131167819,1.1879112817071829,58.078931840149394,1,c,1.3038174999992407,correct,c
149,2F4K,150,2,35.636517689735975,56.44882766548351,1.0490587906225732,57.65026301588632,2,b,1.8621116000003894,correct,b
150,2F4K,151,1,47.82292395154707,59.343496704156976,1.351618234121329,60.001151430863096,1,c,1.006396699999641,correct,c
151,2F4K,152,1,63.75298580326066,57.834481105277845,1.8824213312203173,58.78531654442362,2,c,1.1277737999998863,incorrect,n
152,2F4K,153,2,54.57735393951032,40.09906299593751,1.5554377069758305,43.47423592400244,1,v,1.9980697999999393,correct,v
153,2F4K,154,1,67.91220586957968,55.25565079307988,2.052477171849996,56.65981720841161,2,c,0.7644716999993761,incorrect,n
154,2F4K,155,1,35.195767686181775,50.89485653694973,1.039487947383086,52.95390020775216,1,n,2.9872808999998597,incorrect,c
155,2F4K,156,1,47.225471797792906,57.5446015424359,1.3349300563835809,58.54928168215795,1,c,1.3402201999997487,correct,c
156,2F4K,157,2,37.00807618212447,26.03460269549002,1.0794094967597776,31.548037742940256,1,b,0.7877908000000389,incorrect,v
157,2F4K,158,2,48.996618119382,51.85569003697699,1.3850120647784232,53.78053216982463,2,v,0.8607689000000391,incorrect,b
158,2F4K,159,2,37.99067133915064,47.97075489668936,1.1016913845915373,50.41164731318049,2,b,0.9881786999994802,correct,b
159,2F4K,160,2,25.348651519301807,44.23070065670583,0.847015071413366,47.1216204446119,2,b,0.6787211999999272,correct,b
160,2F4K,161,1,57.47258598885368,41.55233849835487,1.651958655039734,44.756064937267226,2,n,2.676450900000418,correct,n
161,2F4K,162,1,63.54522932180771,77.63800203021941,1.874306483834629,72.38992659879779,1,c,0.8659597000005306,correct,c
162,2F4K,163,2,35.22185173002528,49.69169337984175,1.0400519211222048,51.91223024932511,2,b,1.6861187000004065,correct,b
163,2F4K,164,1,26.76516218992632,39.26696436506943,0.8723354145796227,42.741849474203335,1,n,2.5744668999996065,incorrect,c
164,2F4K,165,1,32.45937601301465,45.549251899094415,0.981990709393418,48.28462964986159,1,n,0.7151354000006904,incorrect,c
165,2F4K,166,2,56.27353222898001,41.7554307052034,1.6112786004388795,44.9353826859493,1,v,2.3833199999999124,correct,v
166,2F4K,167,2,55.86555915871463,41.19175618638932,1.5976670382339797,44.437781316808525,1,v,0.4424748000001273,correct,v
167,2F4K,168,1,50.68751061305423,36.78020675000031,1.4345769129686816,40.563971285348025,2,n,1.0189452000004167,correct,n
168,2F4K,169,1,68.53208974478424,48.80533784371196,2.0791051046275544,51.14076893707804,2,c,1.9410047999999733,incorrect,n
169,2F4K,170,1,61.94866616381663,55.182565461512496,1.813101868794667,56.59878107528076,2,n,0.6486133999997037,correct,n
170,2F4K,171,2,60.722780095211256,41.90477701308455,1.767467151696306,45.06726497311161,1,v,2.877022699999543,correct,v
171,2F4K,172,2,51.38754327017337,59.53304237925041,1.4556124522642082,60.152282104799625,2,v,0.8425825000003897,incorrect,b
172,2F4K,173,2,51.21627372046817,60.678887844947056,1.4504375815480697,61.05793967320362,2,b,0.8425543000003017,correct,b
173,2F4K,174,1,44.18884731541391,27.271188700496687,1.253242342847326,32.53865387683946,2,n,2.190327100000104,correct,n
174,2F4K,175,2,62.30186631694846,47.67315102225568,1.826467381966244,50.15108273701637,1,v,0.832292499999312,correct,v
175,2F4K,176,1,61.31518553281767,49.38870022084456,1.7893747528824762,51.64887392807008,2,c,1.5951052000000345,incorrect,n
176,2F4K,177,2,49.37594034605436,60.85864615920139,1.395979939974222,61.19874449161826,2,v,2.7142032000001564,incorrect,b
177,2F4K,178,1,62.54685314320975,47.29586804965079,1.8357958013660531,49.82036766624866,2,c,1.52819240000008,incorrect,n
178,2F4K,179,1,43.10413614676855,54.32662800361258,1.2252907131004394,55.88095785930055,1,n,1.2252250999999887,incorrect,c
179,2F4K,180,1,56.80994837243627,75.54837284184505,1.629352156318941,71.24070432453878,1,c,1.04893439999978,correct,c
180,2F4K,181,2,66.63053494189418,47.1097515574475,1.998497888178291,49.65707314892791,1,v,0.6110500000004322,correct,v
181,2F4K,182,2,35.05238302362215,46.59454064575052,1.036393225776118,49.20456159828517,2,b,0.9639323000001241,correct,b
182,2F4K,183,1,68.94032151608096,58.025916931094926,2.096829630060847,58.94076776795693,2,c,1.140005100000053,incorrect,n
183,2F4K,184,1,75.4265135473729,66.81967082897154,2.3996024446851583,65.6485358394957,2,n,1.2916814999998678,correct,n
184,2F4K,185,1,57.75379404216602,67.84351851720258,1.6616468761739651,66.36555270179149,1,c,1.0316986999996516,correct,c
185,2F4K,186,1,51.83278561273218,34.32068828859752,1.4691519002337985,38.43338615695671,2,n,2.3866419999994832,correct,n
186,2F4K,187,1,55.48513418025648,70.35763955008895,1.5850782085427566,68.06065050807332,1,c,0.6605329000003621,correct,c
187,2F4K,188,1,55.0868144013673,58.86914665091486,1.5720035025506014,59.621352307952726,1,c,0.8913642000006803,correct,c
188,2F4K,189,2,54.156741207197854,69.04503732430388,1.5418925549960705,67.18754706771169,2,v,0.6857016000003568,incorrect,b
189,2F4K,190,1,52.78256873350464,73.04929380361155,1.4984563533401676,69.7657700655574,1,c,0.8486522000002878,correct,c
190,2F4K,191,1,76.7194471440483,65.30997006231391,2.4649927687010176,64.56457120328864,2,c,0.6665079000003971,incorrect,n
191,2F4K,192,2,59.4160114606966,45.339752993321845,1.7200855778696675,48.100005970745904,1,b,1.0857648999999583,incorrect,v
192,2F4K,193,2,52.74495117144657,69.43638434268584,1.497284666343495,67.45062058844846,2,v,1.5708139999997002,incorrect,b
193,2F4K,194,2,51.51443096756847,41.5850346768252,1.4594582379210164,44.78493144216025,1,b,1.9470574999995733,incorrect,v
194,2F4K,195,2,59.09562495120894,44.015229683439614,1.7086640262952186,46.93138367312984,1,v,0.6717846999999892,correct,v
195,2F4K,196,2,56.42125582521102,64.9690451473146,1.6162357775523275,64.31553040835023,2,v,0.9410586999993029,incorrect,b
196,2F4K,197,1,59.896151096290914,40.276903102920734,1.737345315083633,43.63093553291039,2,n,1.23689209999975,correct,n
197,2F4K,198,1,62.32903508590691,77.23028923574594,1.8274995520849344,72.17185987226947,1,c,0.5685582000005525,correct,c
198,2F4K,199,1,45.891125984461326,33.96720090793083,1.2983989871021024,38.12963917699416,2,n,0.6786766999994143,correct,n
199,2F4K,200,2,50.80416767484284,37.185645532908936,1.4380611560992982,40.91767826667326,1,b,1.1816727999994328,incorrect,v
200,2F4K,201,2,25.008160786389325,36.43832058639052,0.8410391264600463,40.26619942090376,2,b,1.8499314000000595,correct,b
201,2F4K,202,2,49.13277890493566,59.40469967899574,1.3889391225736298,60.0499904012978,2,v,0.5634895999992295,incorrect,b
202,2F4K,203,2,66.30701019707121,51.280704371544815,1.985098101887695,53.28645093331265,1,v,0.6435179000000062,correct,v
203,2F4K,204,1,45.69161253732048,63.403985231182126,1.293023392928105,63.15300140971822,1,c,0.9518348999990849,correct,c
204,2F4K,205,2,63.8912524934178,48.35889291555453,1.8878414100627068,50.751042784500136,1,v,1.6677361999991263,correct,v
205,2F4K,206,2,60.09697993947251,42.46996498306194,1.7446158455400895,45.566466817163935,1,v,0.6049003999996785,correct,v
206,2F4K,207,1,49.33301333244791,59.42861114397381,1.3947343854342609,60.06906103214003,1,c,2.6940095000009023,correct,c
207,2F4K,208,1,44.11319661381635,61.83533797156996,1.251272402009168,61.95751388725657,1,c,0.6304197999997996,correct,c
208,2F4K,209,1,26.8379614499406,40.463980021669656,0.8736569717261868,43.79583006573164,1,n,0.6422664000001532,incorrect,c
209,2F4K,210,1,66.40738890497755,57.085779618461785,1.9892459574493369,58.17412937121472,2,c,0.5634464000013395,incorrect,n
210,2F4K,211,2,38.30706388633045,51.8401067004131,1.1089635266123057,53.76716574516377,2,b,1.097421000000395,correct,b
211,2F4K,212,1,61.00163046935775,42.69224662568013,1.777745635167629,45.76282493630833,2,n,1.1693792999994912,correct,n
212,2F4K,213,2,33.10054288537453,47.47324699840257,0.995170956225674,49.97590498608903,2,b,0.9518300999989151,correct,b
213,2F4K,214,1,55.70133778950806,35.81391709110072,1.592220490208023,39.723611228577454,2,n,2.09275770000022,correct,n
214,2F4K,215,2,39.236405091981,51.971538742010566,1.1306027825518428,53.87985663878898,2,b,0.6108322999989468,correct,b
215,2F4K,216,1,41.48253189872365,61.61750611512095,1.1846623772551084,61.789217590601126,1,c,1.048778400001538,correct,c
216,2F4K,217,1,52.80439685656352,71.33267133656418,1.4991366616475408,68.69182536540369,1,c,0.8068166000011843,correct,c
217,2F4K,218,1,58.74901713201107,42.16417280156058,1.6963930929406217,45.29635894696179,2,n,1.2733910999995715,correct,n
218,2F4K,219,2,58.15482711796688,66.96388840431865,1.6755617011352406,65.75043596306838,2,v,0.6472952000003716,incorrect,b
219,2F4K,220,1,49.82908840041336,39.23715310796938,1.4091963586229888,42.71563778314893,2,n,2.1707463000002463,correct,n
220,2F4K,221,2,71.73402608707246,49.75200573125501,2.2222494694921937,51.96460573732317,1,v,0.8486319999992702,correct,v
221,2F4K,222,2,50.06785383069021,42.75202947154775,1.416210398893736,45.81563680695486,1,b,0.9278346999999485,incorrect,v
222,2F4K,223,2,43.18101470776772,33.05860736192888,1.2272510841975943,37.35218072913167,1,b,0.5937587000007625,incorrect,v
223,2F4K,224,1,66.56105430491172,48.44136795988082,1.9956125248873224,50.82309392927608,2,c,1.5094230999984575,incorrect,n
224,2F4K,225,1,52.10920247854027,63.7030362237587,1.4776207942840245,63.37753158443609,1,c,2.177692700000989,correct,c
225,2F4K,226,1,53.49466141571473,63.43928006212676,1.5208099145948888,63.17955874052002,1,c,1.108485799999471,correct,c
226,2F4K,227,2,53.20195852085511,39.34902074758675,1.5115814881781795,42.814008395966034,1,b,1.188495200000034,incorrect,v
227,2F4K,228,2,60.6268143739865,46.231394475019336,1.7639435976107531,48.88522401330914,1,v,0.4555430000000342,correct,v
228,2F4K,229,1,48.616797266334046,37.88663666363003,1.3741161137184326,41.5306007727864,2,n,0.7324958999997762,correct,n
229,2F4K,230,2,51.07867601207753,35.44151606283357,1.4462934284293658,39.40082492213318,1,v,1.3707358999999997,correct,v
230,2F4K,231,2,50.507408426730905,35.34352376092208,1.4292142988234708,39.31599504241015,1,v,0.6786730000003445,correct,v
231,2F4K,232,2,42.29586861924958,58.38451622135863,1.2048688006943766,59.23103323017914,2,b,0.7697377000004053,correct,b
232,2F4K,233,1,57.70152134079288,47.30775477510467,1.6598416800923246,49.83079353454061,2,c,0.7696801000001869,incorrect,n
233,2F4K,234,1,61.40670397033748,48.257411753427775,1.7927833049343638,50.66235506014045,2,n,0.7151795999998285,correct,n
234,2F4K,235,2,53.80869380255546,66.59273745309069,1.530773481930676,65.48760036210754,2,v,1.121743300000162,incorrect,b
235,2F4K,236,2,31.750463984506236,50.88478563273809,0.9676209559815808,52.945210101869925,2,b,0.4434262000013405,correct,b
236,2F4K,237,1,61.91374558160337,48.33407266930971,1.8117857571715603,50.72935485823669,2,n,0.7818576000008761,correct,n
237,2F4K,238,2,56.60339517417023,68.53977217766763,1.6223688474256817,66.84448560134012,2,v,0.6050940999994054,incorrect,b
238,2F4K,239,2,47.482811219323175,62.84134609934276,1.3420927119745012,62.7275895444218,2,v,2.7071545999988302,incorrect,b
239,2F4K,240,2,46.474025483060096,67.63623311276694,1.3142327186569482,66.22160011112469,2,b,0.8668668999998772,correct,b
240,2F4K,241,1,28.5894261423585,47.889071034556096,0.906062693845889,50.34015767994795,1,n,2.311043499999869,incorrect,c
241,2F4K,242,1,47.00429877606768,31.91405553480193,1.3288045913414277,36.380127206196846,2,n,0.9032105000005686,correct,n
242,2F4K,243,1,33.54743785940538,44.47883804928346,1.0044621041290889,47.34064716988219,1,n,0.6666088000001764,incorrect,c
243,2F4K,244,2,39.39235711589743,54.028764507498245,1.134275201038475,55.62990339507559,2,v,2.4897688000000926,incorrect,b
244,2F4K,245,2,64.86078133324817,45.8959158216802,1.926288030501663,48.589963441754215,1,v,0.7394071999988228,correct,v
245,2F4K,246,1,46.0156401217653,56.309984136707335,1.30176515602641,57.5356096041425,1,c,2.353606499998932,correct,c
246,2F4K,247,1,41.51522935123218,58.7504099686596,1.1854681320187697,59.52593384917899,1,n,1.4184648000009474,incorrect,c
247,2F4K,248,2,43.25294819249802,30.066128432427256,1.2290881981368371,34.83008822419643,1,b,0.6483836999996129,incorrect,v
248,2F4K,249,2,55.98175328355854,67.98520876348911,1.6015319709227007,66.46359294350809,2,v,0.6376886999987619,incorrect,b
249,2F4K,250,1,51.43035999401511,35.345139704871315,1.456909032098893,39.317393562149725,2,n,1.5710895000011078,correct,n
250,2F4K,251,1,53.38224005502892,35.65459604283592,1.5172588141704773,39.58543872014751,2,n,0.7696035999997548,correct,n
251,2F4K,252,2,54.37381435308581,64.12714034398306,1.548868249923712,63.69403510885961,2,v,0.7711516999988817,incorrect,b
252,2F4K,253,1,57.45733694528956,43.65394683824014,1.6514349103410468,46.61233751945815,2,n,3.2098821999989013,correct,n
253,2F4K,254,1,45.98538450441418,32.192931710269946,1.3009464108264954,36.61617887059275,2,n,0.642338200001177,correct,n
254,2F4K,255,2,72.48272939225832,50.99392774053277,2.257118060281561,53.03936039237775,1,v,0.5452069000002666,correct,v
255,2F4K,256,1,35.43228297670409,44.63923165798877,1.0446129466469796,47.48219061808361,1,n,1.3098102000003564,incorrect,c
256,2F4K,257,2,54.49915564931377,36.35919982403018,1.5529104841037424,40.19735473591948,1,v,1.0117760000011913,correct,v
257,2F4K,258,2,46.87440825809482,56.24271409918358,1.3252203363199224,57.48000161774097,2,b,0.9093162000008306,correct,b
258,2F4K,259,2,24.70945199528993,38.95219916777669,0.8358312243326639,42.46519656793746,2,b,0.6906873999996606,correct,b
259,2F4K,260,2,52.75762031001146,42.27923230710967,1.4976791739552362,45.39798775111844,1,v,0.5391743000000133,correct,v
260,2F4K,261,1,58.390403805142334,48.86660372885808,1.6837898780306608,51.19419374807948,2,c,1.15823360000104,incorrect,n
261,2F4K,262,2,43.39596162767263,53.17544983917001,1.2327488003070486,54.90729977289194,2,b,0.7272829999983514,correct,b
262,2F4K,263,2,40.80200747534893,23.449800284027173,1.1680161515844552,29.52952135101903,1,b,1.2856086000010691,incorrect,v
263,2F4K,264,2,54.70935426346626,37.94701668779999,1.5597130455471258,41.58347079285818,1,v,0.5935939999999391,correct,v
264,2F4K,265,1,47.80916381210275,39.54642297330921,1.3512315454391477,42.98766141226706,2,n,1.1875293999983114,correct,n
265,2F4K,266,1,45.23458391346677,58.976659235994376,1.2807931680290894,59.7076311349748,1,c,0.7518230999994557,correct,c
266,2F4K,267,1,50.216844429699535,63.46168183183512,1.420604866771402,63.196406806419645,1,c,0.6119662000000972,correct,c
267,2F4K,268,2,61.52296276780962,50.9476853754591,1.7971226622033538,52.99947734201553,1,v,0.62367710000035,correct,v
268,2F4K,269,2,60.10330117302488,44.72356631759261,1.7448451840088863,47.55660232620452,1,v,0.6849066999984643,correct,v
269,2F4K,270,1,24.09495354048623,44.34539340211878,0.8252188070128278,47.22286511373328,1,n,1.5769070999995165,incorrect,c
270,2F4K,271,2,45.72046415524527,56.78189903261782,1.2937993783361268,57.92463758977978,2,v,1.0128222000003007,incorrect,b
271,2F4K,272,2,41.19518547660085,56.44655320860923,1.1776048875448248,57.64838613622972,2,b,0.5039276000006794,correct,b
272,2F4K,273,2,49.88068533707124,61.78332514513389,1.4107091364498567,61.91737828325322,2,b,0.7272357000001648,correct,b
273,2F4K,274,1,48.94483287650732,32.17111437357565,1.3835214257871802,36.597692867462,2,n,0.6847610999993776,correct,n
274,2F4K,275,1,37.64973752512393,53.01820218087079,1.093908543094048,54.773612526989325,1,n,0.8783468000001449,incorrect,c
275,2F4K,276,2,33.00678569619821,20.319453164279945,0.9932326352290556,27.19067929471145,1,b,1.1460047000000486,incorrect,v
276,2F4K,277,1,48.98381342694238,61.83213790710669,1.384643332118648,61.95504546032182,1,c,1.2310008999993443,correct,c
277,2F4K,278,2,60.532656047042174,53.04510896285575,1.7604932325655362,54.79649914374664,1,v,1.6071622999988904,correct,v
278,2F4K,279,1,52.024149267473554,62.66548965780225,1.4750097368340602,62.59383860033609,1,n,1.8430444000005082,incorrect,c
279,2F4K,280,1,62.71601962492688,73.82549438457528,1.842264985187529,70.23531823337501,1,c,0.636342899999363,correct,c
280,2F4K,281,1,62.78655233109993,47.359534470468816,1.8449689926536752,49.87620491292339,2,c,1.795304400000532,incorrect,n
281,2F4K,282,1,39.02360042968348,57.311253871143165,1.1256107506749515,58.35872234127883,1,c,0.8545850999998947,correct,c
282,2F4K,283,1,49.77403674608303,63.083998126796935,1.4075840801956772,62.9115315601308,1,c,0.49316429999998945,correct,c
283,2F4K,284,1,52.50923101344564,61.99811197312856,1.4899634394139885,62.08291684973357,1,c,0.5633504999987053,correct,c
284,2F4K,285,1,76.71028951352491,59.42740097201258,2.4645234108005423,60.06809599697441,2,c,0.7090783000003285,incorrect,n
285,2F4K,286,1,75.77026532101198,57.44943821050744,2.416816535018837,58.47162754975995,2,n,1.029564600001322,correct,n
286,2F4K,287,2,54.453236255104855,37.71158230234593,1.5514283689164157,41.37738516936156,1,v,1.2309872999994695,correct,v
287,2F4K,288,2,40.30030675154958,53.55540786077845,1.1558940796549864,55.22966176439679,2,b,0.46627730000000156,correct,b
288,2F4K,289,2,50.000089555887016,59.50980877289338,1.4142161960121735,60.13377690752224,2,v,1.1217727999992348,incorrect,b
289,2F4K,290,2,41.68257753771505,57.03145361608725,1.189600637909373,58.12958602749358,2,b,0.5876455000015994,correct,b
290,2F4K,291,2,45.48601182627056,31.66912292565849,1.287507070265374,36.17324691559822,1,b,0.7150820000006206,incorrect,v
291,2F4K,292,1,49.9356360889418,54.00041538341935,1.4123220310387874,55.605976661575646,1,c,0.8060076999990997,correct,c
292,2F4K,293,1,52.3157841647104,33.99956694722131,1.4839819301415949,38.15742212329626,2,n,0.6174274000004516,correct,n
293,2F4K,294,2,70.59102495226153,51.2888566720406,2.1700537069550294,53.29346873075321,1,v,0.5587861000003613,correct,v
294,2F4K,295,1,72.18663854239237,62.9503940222256,2.2432635978079625,62.81034126898712,2,c,0.6908685999987938,incorrect,n
295,2F4K,296,2,42.067947139614986,57.09514657729015,1.199171843338655,58.1818069617771,2,b,1.28560219999963,correct,b
296,2F4K,297,1,45.41907798349787,55.14528281745752,1.2857162999106737,56.567629168264986,1,n,0.9153960000003281,incorrect,c
297,2F4K,298,1,69.88387197249352,55.49257823975609,2.138376901829056,56.85739804309723,2,c,2.20205309999983,incorrect,n
298,2F4K,299,1,31.23391280340084,45.31443887744994,0.9572829931382244,48.07769274750476,1,n,1.2309542999992118,incorrect,c
299,2F4K,300,1,52.57543214135839,32.17883989908803,1.4920159560161077,36.60423840164926,2,n,1.108760600000096,correct,n
300,2F4K,301,2,50.37082238305576,39.571378348335976,1.4251607650826994,43.00962039640751,1,b,2.513830899999448,incorrect,v
301,2F4K,302,1,42.84061401302687,58.95017227172393,1.2185947418807743,59.686385961207066,1,c,1.4372843000001012,correct,c
302,2F4K,303,2,35.1013509668276,51.67067915495472,1.0374490807624206,53.62175286705174,2,b,0.6604999999999563,correct,b
303,2F4K,304,2,40.47449070245752,46.96883311033755,1.16008838118229,49.533371763938106,2,b,0.6180010000007314,correct,b
304,2F4K,305,1,53.50572830604453,68.98513036642011,1.5211599381166012,67.14707173109475,1,c,0.5573583000004874,correct,c
305,2F4K,306,2,46.720761632471856,53.8593140904515,1.3209930249728938,55.48680351002202,2,b,2.725302800001373,correct,b
306,2F4K,307,1,37.80385472218217,53.61746443619637,1.0974198996053142,55.28222018754442,1,c,1.3705985999986297,correct,c
307,2F4K,308,2,64.21194967854548,49.30124440495629,1.9004729491048007,51.57278731854812,1,v,1.3584444999996776,correct,v
308,2F4K,309,2,62.93560761065028,43.01458883161623,1.8506963776339267,46.047581462304045,1,v,0.6171393000004173,correct,v
309,2F4K,310,2,49.51733326119823,32.760042975840925,1.4000904162974974,37.09779716243149,1,b,0.8304934000007052,incorrect,v
310,2F4K,311,2,48.0848687135414,27.735238239387204,1.3590005701857453,32.91424850929759,1,b,0.9508690000002389,incorrect,v
311,2F4K,312,2,45.48798011110027,62.83867358495795,1.287559768148667,62.72555969036051,2,b,1.3037881999989622,correct,b
312,2F4K,313,1,37.26918662960362,54.55604640891404,1.0852862406455588,56.0738894392411,1,c,0.7517504999996163,correct,c
313,2F4K,314,2,33.026135057085355,47.97284906268558,0.9936323513788828,50.413479841197415,2,b,0.7884813000000577,correct,b
314,2F4K,315,1,52.26771334760478,60.12682970193028,1.4824992762237243,60.62333126100605,1,c,0.5695047000008344,correct,c
315,2F4K,316,2,50.8046984807379,36.56156206814014,1.4380770292158664,40.37348519831092,1,v,0.6847936000012851,correct,v
316,2F4K,317,1,63.01402473951153,77.12866187702866,1.8537166559492624,72.11703503739233,1,c,0.46124239999880956,correct,c
317,2F4K,318,2,48.69107894778372,32.947016532318884,1.3762402742375202,37.2570375733725,1,b,1.140427100001034,incorrect,v
318,2F4K,319,2,37.94592801574279,54.53572050599711,1.1006668352288382,56.05681163894172,2,b,0.7151051000000734,correct,b
319,2F4K,320,1,40.56621896026605,59.98092625720178,1.1623032866648857,60.50792713689546,1,c,1.5336021999992226,correct,c
320,2F4K,321,1,62.93632186051803,73.99741303673369,1.8507238651365927,70.33793774820829,1,c,3.368401100000483,correct,c
321,2F4K,322,2,45.33434507261302,57.29410415066307,1.2834528992371792,58.344697991987374,2,b,0.854716499999995,correct,b
322,2F4K,323,1,52.82497485318965,68.25514301017817,1.4997782906031976,66.64955801937599,1,c,0.5875070999991294,correct,c
323,2F4K,324,1,71.64511763506508,48.35497291139411,2.2181447718119127,50.74761762870289,2,n,0.9094529000012699,correct,n
324,2F4K,325,1,57.097330409900856,62.81520851373852,1.6391182210917636,62.7077335833165,1,c,0.9032817999996041,correct,c
325,2F4K,326,2,48.01082107423824,61.84255925153934,1.3569096220692458,61.96308371808105,2,b,1.9109958999997616,correct,b
326,2F4K,327,1,56.35231968050464,48.72374561138509,1.6139205846463405,51.06959723065104,2,n,0.7637049000004481,correct,n
327,2F4K,328,1,56.87811288180056,41.64378299075037,1.6316633046428306,44.836800786432526,2,n,0.8000931999995373,correct,n
328,2F4K,329,2,62.7329174608205,76.27498107587174,1.8429124351428072,71.6491657425681,2,v,0.9699286000013672,incorrect,b
329,2F4K,330,1,52.57175310375666,35.72647609234991,1.4919018160346764,39.64776309564376,2,n,0.8425707000005787,correct,n
330,2F4K,331,1,30.414831142863054,45.09605263666611,0.9411163076857668,47.88515473655835,1,n,1.7589255000002595,incorrect,c
331,2F4K,332,2,35.81392857358064,53.17148976340399,1.052936079316981,54.90393499491056,2,b,1.3098435000010795,correct,b
332,2F4K,333,1,48.329705303089774,65.29052767718763,1.365937202783574,64.55041019852423,1,c,0.7273093999992852,correct,c
333,2F4K,334,1,54.44381649436716,45.87208700272854,1.5511245073429507,48.568982705955136,2,n,0.7879952000002959,correct,n
334,2F4K,335,1,49.975842517775774,35.3977873119856,1.4135033237186496,39.36296425033137,2,n,0.6848016000003554,correct,n
335,2F4K,336,2,48.68675344985502,64.92900065226662,1.3761164922203897,64.28617792941856,2,b,1.4009387000005518,correct,b
336,2F4K,337,2,38.6814566274539,57.86922954784475,1.1176308109999569,58.81355857178519,2,b,0.7029739999998128,correct,b
337,2F4K,338,2,64.95563180679123,53.51505774275383,1.9300911135409824,55.19547359311177,1,v,0.4554640999995172,correct,v
338,2F4K,339,1,33.362643860923214,45.51807740252494,1.0006096810667835,48.25716134468695,1,n,1.8126773000003595,incorrect,c
339,2F4K,340,1,65.54042351291737,49.91979256052023,1.953705083426764,52.11022837433418,2,c,1.2919535000000906,incorrect,n
340,2F4K,341,1,37.00061202089015,23.66236101690339,1.0792419715158532,29.69268484686597,2,n,1.0428348000004917,correct,n
341,2F4K,342,2,52.57798970356468,66.94467310904774,1.4920953080271373,65.73687588244206,2,b,0.8729242000008526,correct,b
342,2F4K,343,2,52.70688924472527,40.6582265844309,1.49610007104082,43.96710061167262,1,b,3.4840051000010135,incorrect,v
343,2F4K,344,2,45.04977610220712,62.14037577212177,1.2758805633394943,62.19226726280012,2,b,0.7032274000011967,correct,b
344,2F4K,345,1,40.42439459068829,30.99720649642083,1.1588805238909723,35.607906325165146,2,n,1.723071299998992,correct,n
345,2F4K,346,2,62.2921034927799,51.74789689106091,1.826096624401144,53.68804575530583,1,v,0.8424847999995109,correct,v
346,2F4K,347,2,58.98461917925636,47.50285207364359,1.704724465485174,50.00185571907096,1,v,0.672639700000218,correct,v
347,2F4K,348,2,49.75421295562982,41.883903412720194,1.4070039596455008,45.048831392618105,1,b,1.0124852000008104,incorrect,v
348,2F4K,349,1,47.84949112441143,35.752882861777344,1.3523651403267458,39.67066525018551,2,n,0.5573024999994232,correct,n
349,2F4K,350,2,73.8289893479356,58.27475277496857,2.321198143990327,59.14231558406996,1,v,0.49807529999998224,correct,v
350,2F4K,351,1,55.64349572076723,47.27758953117113,1.590306531408586,49.80433476586512,2,c,1.3341619999991963,incorrect,n
351,2F4K,352,2,66.91277386913399,53.59923506982415,2.0102615459422184,55.26678363457648,1,v,0.4729208999997354,correct,v
352,2F4K,353,2,38.10522919364107,45.95793426821215,1.1043189220930312,48.6445640994919,2,b,0.3934098999998241,correct,b
353,2F4K,354,1,61.863365030661264,46.99430937426239,1.8098886625250377,49.555739305628194,2,n,1.244554099999732,correct,n
354,2F4K,355,1,37.797815206861785,48.317883189621824,1.097282085280024,50.71520733733283,1,n,1.400333400000818,incorrect,c
355,2F4K,356,2,58.92478496917154,75.17240742663134,1.7026047365830983,71.02570323517828,2,v,1.1884947000016837,incorrect,b
356,2F4K,357,1,45.89299974453219,55.62867081970243,1.2984495785751506,56.97069003689939,1,n,0.9209267000005639,incorrect,c
357,2F4K,358,2,48.32614692170907,60.82399229199064,1.3658361347362673,61.17162755856411,2,b,1.0428778000004968,correct,b
358,2F4K,359,2,28.784489746059307,40.04492123375938,0.9097453596227648,43.42654107386244,2,b,0.6670540999984951,correct,b
359,2F4K,360,2,41.98063587658467,49.40573419554134,1.1969966181724705,51.66368981926308,2,b,1.523039699999572,correct,b
360,2F4K,361,1,44.93063653374712,63.86805185048623,1.2727235610107883,63.50094968985664,1,c,1.766205699999773,correct,c
361,2F4K,362,2,45.107206207714505,60.08475539043451,1.2774051625830658,60.59007505424693,2,b,1.1217016999999032,correct,b
362,2F4K,363,1,22.866172106411817,44.75105908347464,0.8044000983752537,47.58085843630193,1,n,1.5101474000002781,incorrect,c
363,2F4K,364,1,23.854110976566428,41.22757005980175,0.8210962941809066,44.46938829328632,1,n,0.5998065999992832,incorrect,c
364,2F4K,365,1,48.37882306525609,58.89554670915784,1.3673330498204836,59.64254892416154,1,c,0.7096315999988292,correct,c
365,2F4K,366,1,47.92550204069138,62.169806390864046,1.3545043823425682,62.214859564754505,1,c,0.6120255000005272,correct,c
366,2F4K,367,1,54.80530944140431,35.19386565663383,1.5628282975820116,39.18652756671226,2,n,1.0419228999999177,correct,n
367,2F4K,368,2,51.04733053104911,40.24672866897135,1.4453510256976752,43.60434427731754,1,v,1.122170399999959,correct,v
368,2F4K,369,1,36.02656457954868,53.514496252547765,1.0576020932378545,55.19499777218712,1,c,0.6604674000009254,correct,c
369,2F4K,370,1,41.21087352313373,48.550586190568,1.17798911290344,50.91847100341569,1,c,0.7092656000004354,correct,c
370,2F4K,371,2,65.62652300562699,53.95993380800833,1.9572061079342,55.57180037237308,1,v,1.2369923000005656,correct,v
371,2F4K,372,2,48.28715574968186,35.54155860322584,1.3647291654963785,39.48747619134343,1,b,0.8062057999995886,incorrect,v
372,2F4K,373,1,41.58198621081363,49.03357853929487,1.187114905898046,51.339725220662615,1,c,1.6254518999994616,correct,c
373,2F4K,374,2,65.8745880621418,47.05605260003653,1.967328181212904,49.60994124258097,1,v,0.4191111000000092,correct,v
374,2F4K,375,1,61.8213100573853,43.08258234836406,1.8083065912207064,46.10764619713306,2,c,0.8912049000009574,incorrect,n
375,2F4K,376,1,67.8523861545471,48.37880684105702,2.0499256499155454,50.76844201087655,2,n,0.8547281999999541,correct,n
376,2F4K,377,2,59.6914843346719,43.789549710333375,1.729967014457832,46.73209679578702,1,v,0.526003099999798,correct,v
377,2F4K,378,1,47.76504646994231,56.18963079859645,1.3499925017001302,57.43609431274807,1,c,0.6900067000005947,correct,c
378,2F4K,379,2,49.16197827334739,34.82305084521542,1.3897827199868282,38.86621275219816,1,b,1.2188791999997193,incorrect,v
379,2F4K,380,1,36.12273110744688,44.822695030672975,1.059719124450198,47.64405653386419,1,n,0.6898389999987558,incorrect,c
380,2F4K,381,2,42.95496535070696,33.905837541162704,1.221495848667452,38.076981140336486,1,b,1.589055599999483,incorrect,v
381,2F4K,382,2,68.62045516807262,56.75097540535903,2.082928987607624,57.89920366203452,1,v,0.7394143999990774,correct,v
382,2F4K,383,2,38.20303822946002,49.46804287928211,1.1065672618177873,51.71787466346848,2,b,0.6618935999995301,correct,b
383,2F4K,384,2,66.23233944191477,58.43840114388208,1.982018162960439,59.2745442070584,1,v,0.5527221000011195,correct,v
384,2F4K,385,1,32.80909120316774,49.25209289157093,0.989157895302558,51.53001171254359,1,n,0.6664037999998982,incorrect,c
385,2F4K,386,1,39.51997119341395,51.99964658326143,1.1372891791964646,53.90394367991706,1,c,0.8122268000006443,correct,c
386,2F4K,387,1,37.322370141750994,51.18175516018668,1.0864871443829207,53.20124372768742,1,c,0.6367741999983991,correct,c
387,2F4K,388,1,72.60872873023027,59.8467968830692,2.263039650122971,60.40163904403836,2,c,0.9153685000001133,incorrect,n
388,2F4K,389,2,67.39879311679715,44.92490570195895,2.030681238248433,47.73421681833448,1,v,0.3948199000005843,correct,v
389,2F4K,390,2,76.10686243782169,63.905037281405896,2.433791995538682,63.52856487728912,1,v,0.7445071000001917,correct,v
390,2F4K,391,2,35.25339420816942,50.27320115264263,1.0407343226388448,52.41653663057837,2,b,0.6194500000001426,correct,b
391,2F4K,392,2,35.17307239545829,50.52490213202832,1.0389974920640446,52.63433606917452,2,b,0.5511442000006355,correct,b
392,2F4K,393,2,72.99782675532441,52.52413477373772,2.2814243287559437,54.35255354594649,1,v,0.5821200000009412,correct,v
393,2F4K,394,1,45.073580213307615,53.62021111148815,1.276512271077166,55.284545866358044,1,n,0.8547082000004593,incorrect,c
394,2F4K,395,1,40.57252712572644,50.89282692060687,1.1624557613490056,52.95214890888293,1,c,0.7347964000000502,correct,c
395,2F4K,396,1,54.03778069098359,72.30111692318113,1.5380830669266463,69.3036410646878,1,c,0.47224069999901985,correct,c
396,2F4K,397,2,58.323173399971495,42.47422752718262,1.6814375558771997,45.57023215099613,1,v,0.6488300999990315,correct,v
397,2F4K,398,2,55.95098389526099,71.65086691947056,1.600507588162824,68.89452326525121,2,v,0.6847287000000506,incorrect,b
398,2F4K,399,2,50.9724110691544,43.94274803886567,1.4431010571403589,46.8673824532025,1,b,2.1412973000005877,incorrect,v
399,2F4K,400,2,46.25472254437664,33.57520999963067,1.3082530989161358,37.79362795970518,1,b,1.3524941999985458,incorrect,v
