,condition,trial,sub_task,x,y,xt,yt,cat,resp,rt,acc,correct_resp
0,4F4K,1,2,37.94714969636592,53.317814277872,1.1006947970722043,55.56205787239869,2,b,5.0,NA,b
1,4F4K,2,2,53.44006901167728,41.89553863111888,1.5190844447079592,45.41982906133206,1,b,1.212901299999885,incorrect,v
2,4F4K,3,1,29.3548200023539,41.37273922370163,0.9205988848349396,44.950224311748414,1,n,1.3164300999997067,incorrect,c
3,4F4K,4,2,29.31630378933974,41.46461910844992,0.9198618520041704,45.03273899699101,2,b,1.012540700000045,correct,b
4,4F4K,5,2,22.0889736933878,37.59878711036541,0.7915043645109592,41.57378055076728,2,b,2.0434912000000622,correct,b
5,4F4K,6,1,27.45542601540946,46.293050464375874,0.8849468904637516,49.3675782321481,1,n,1.2206418000000667,incorrect,c
6,4F4K,7,2,39.84952931548719,25.52636635171508,1.1451097525754166,31.26447883817301,1,b,0.7333969999999681,incorrect,v
7,4F4K,8,2,28.134825420904143,41.08360161808507,0.8975378982233017,44.69061359219268,2,b,0.7508446000001641,correct,b
8,4F4K,9,1,41.350609592161234,53.96199113996208,1.1814170089110838,56.11687132332148,1,c,1.6983024000001024,correct,c
9,4F4K,10,1,64.2591784851224,58.48377190150824,1.9023403117048336,59.91940611338253,2,c,1.1088488999998845,incorrect,n
10,4F4K,11,2,45.18855300498427,37.85367581257224,1.2795677975008644,41.80068389691424,1,b,1.1525142999998934,incorrect,v
11,4F4K,12,2,56.16416468863184,74.30578396992374,1.6076183394768535,71.32367431359069,2,v,0.9579423000000133,incorrect,b
12,4F4K,13,1,43.44058882946916,57.43289585145603,1.2338933179412457,59.051552753667984,1,n,1.2856745999997656,incorrect,c
13,4F4K,14,1,35.30293947370218,47.0227012819776,1.0418071071435795,50.01991622315394,1,n,1.8564619999997376,incorrect,c
14,4F4K,15,1,35.38174339874914,46.61998235914244,1.0435156967675918,49.66003054950288,1,c,2.01387590000013,correct,c
15,4F4K,16,2,49.451120067711024,60.83489924248149,1.3981640078006847,61.82087159050444,2,v,0.947218199999952,incorrect,b
16,4F4K,17,2,39.922450606242506,49.751652970986655,1.1468474633366543,52.44494915996051,2,v,1.188562599999841,incorrect,b
17,4F4K,18,2,49.7082528160921,62.75828668555442,1.4056599083005503,63.33095014295397,2,b,0.7030127000002722,correct,b
18,4F4K,19,2,42.42360907186692,55.3069014807327,1.2080735337388,57.265536669888256,2,b,0.7337609999999586,correct,b
19,4F4K,20,2,47.753989375741725,39.47179961325821,1.3496821392620697,43.24561207840016,1,b,0.654455599999892,incorrect,v
20,4F4K,21,2,37.82865656478634,24.400329375447797,1.097986028719955,30.366944393459285,1,v,0.8547763000001396,correct,v
21,4F4K,22,1,40.265974180032586,26.02107613555404,1.1550691516058311,31.663166954628423,2,n,1.0854286999997385,correct,n
22,4F4K,23,1,39.53259832617208,55.76378844261852,1.1375878407967408,57.65257451184031,1,c,1.073231300000316,correct,c
23,4F4K,24,2,59.21314335020921,45.03517499197082,1.71284463975583,48.2403422377163,1,b,0.7996113000003788,incorrect,v
24,4F4K,25,1,61.623088499818245,41.35796122662682,1.800868270272191,44.93695336375812,2,c,1.024703000000045,incorrect,n
25,4F4K,26,1,49.04270724542991,59.17127269989274,1.3863400916877724,60.481357243414266,1,n,0.8672663000002103,incorrect,c
26,4F4K,27,1,22.19385737905093,35.69338060134451,0.7932325153762364,39.885306079030975,1,n,1.0671755999997004,incorrect,c
27,4F4K,28,2,57.46128048197459,76.86982217130114,1.6515703394025958,72.80475629088146,2,v,1.0489503999997396,incorrect,b
28,4F4K,29,1,51.230914542333046,38.58398401175989,1.450879230625892,42.4519369692029,2,n,1.1327932999997756,correct,n
29,4F4K,30,1,60.58288545314935,48.86027664994831,1.762333012793037,51.65585605709456,2,n,0.8062035999996624,correct,n
30,4F4K,31,1,50.63308798141952,57.45303728764166,1.4329543394936033,59.068283820187695,1,n,0.7030250000002525,incorrect,c
31,4F4K,32,2,42.4860192345252,57.22641237071511,1.2096423686339872,58.87981727838971,2,v,1.0129585999998199,incorrect,b
32,4F4K,33,1,57.78922664572456,36.13833473614774,1.6628716291975378,40.2782628258654,2,n,0.7093964999999116,correct,n
33,4F4K,34,2,46.64864352649097,61.70425255900328,1.319013477379861,62.50875362153959,2,b,1.1946047000001272,correct,b
34,4F4K,35,2,60.3740836461074,73.7184072717929,1.7546977066977223,70.96800379311783,2,b,0.605945299999803,correct,b
35,4F4K,36,2,55.50098738104083,46.36594469937216,1.5856008284608598,49.432806174492974,1,b,0.5337033000000702,incorrect,v
36,4F4K,37,2,41.01019254288065,56.10399650844903,1.1730835555643413,57.93966458287481,2,v,0.6421900000000278,incorrect,b
37,4F4K,38,1,55.81208182877412,32.204300396327326,1.5958913723340504,36.84006879578032,2,c,1.1582327999999507,incorrect,n
38,4F4K,39,1,61.53678398466437,48.66737625354367,1.7976392368986136,51.48466914618957,2,n,0.5209863000000041,correct,n
39,4F4K,40,1,54.85021376009646,41.15664772446666,1.5642882841910255,44.75619171941032,2,n,0.8479278999998314,correct,n
40,4F4K,41,2,45.536501949684094,60.73303859722808,1.2888595500304796,61.73971549779478,2,b,5.0,correct,b
41,4F4K,42,2,57.43538152320391,47.20184109174658,1.6506811195408666,50.1798644973746,1,b,3.410510200000317,incorrect,v
42,4F4K,43,2,54.87135507558112,44.520350347722186,1.5649761298195648,47.77826734289002,1,b,0.8424482000000353,incorrect,v
43,4F4K,44,1,46.3406034906661,32.21558005729307,1.3105915223678624,36.84979427720232,2,n,1.3948789999999462,correct,n
44,4F4K,45,2,51.07123590089696,36.3418124559663,1.4460696856858466,40.45825163020125,1,v,0.8602319999999963,correct,v
45,4F4K,46,2,70.19618925879278,64.1168792037999,2.152309689193421,64.37063966439301,1,b,0.794046100000287,incorrect,v
46,4F4K,47,1,61.94033338748884,48.689231800420295,1.8127877303999875,51.50407167058067,2,n,0.7273244000002705,correct,n
47,4F4K,48,1,52.6566686791659,42.48485475862614,1.4945384983338588,45.949382460837214,2,n,0.7947829999998248,correct,n
48,4F4K,49,1,30.10662264323032,43.24835221095199,0.9351039657870622,46.63555883381755,1,c,0.8729271000001972,correct,c
49,4F4K,50,1,45.420222335917074,51.1370725252375,1.2857468953592428,53.664213670956606,1,c,0.587101800000255,correct,c
50,4F4K,51,1,45.87863250318735,27.12056354858072,1.298061713817967,32.55834443299236,2,c,0.9638705999996091,incorrect,n
51,4F4K,52,2,45.55859608275622,26.4954296661676,1.2894518327254578,32.04786313340625,1,v,0.9876216000002387,correct,v
52,4F4K,53,1,51.4144413408024,65.3022018249065,1.4564268472107118,65.2583027088618,1,n,1.0125107999997454,incorrect,c
53,4F4K,54,2,60.13034901821936,45.3422437243071,1.745826837975703,48.51577543990272,1,b,1.5526703000000452,incorrect,v
54,4F4K,55,2,69.96664746888624,60.47237940161857,2.142060791257888,61.53151652962404,1,b,1.084262200000012,incorrect,v
55,4F4K,56,2,59.52578217427644,54.87883442250904,1.7240163603899192,56.90141338973506,1,v,0.6233525000002373,correct,v
56,4F4K,57,2,44.66343857992145,38.344551358629424,1.265671631421028,42.23824769264831,1,v,0.4789547999998831,correct,v
57,4F4K,58,2,44.80563156701848,62.47703193378628,1.2694195328732103,63.11285742106931,2,v,0.6666446999997788,incorrect,b
58,4F4K,59,1,57.81063024571894,37.72609776317368,1.6636118970946825,41.68708623360154,2,n,1.5161846999999398,correct,n
59,4F4K,60,2,59.54100485466172,73.92712470809346,1.7245621785318894,71.09507292754064,2,v,0.9767147000002296,incorrect,b
60,4F4K,61,1,76.05582297570096,59.24956540601434,2.4312102952854016,60.54505016482951,2,n,0.7277758000000176,correct,n
61,4F4K,62,1,55.49184807642265,69.29595440968721,1.585299519210297,68.10446372015805,1,n,1.152145500000188,incorrect,c
62,4F4K,63,2,48.36286167844673,56.623334950410566,1.3668792967481609,58.37603579158085,2,b,0.6183651000001191,correct,b
63,4F4K,64,2,59.704292075530894,44.60551753223044,1.7304278170400156,47.85473030028377,1,b,0.7576555000000553,incorrect,v
64,4F4K,65,2,60.21971609341569,38.691553539350544,1.7490741873877609,42.547993021031054,1,b,0.7879735999999866,incorrect,v
65,4F4K,66,1,35.495455005867186,51.53234225824822,1.0459860784577342,54.01027693926589,1,c,0.7700863999998546,correct,c
66,4F4K,67,2,21.140012712518665,34.94373692556762,0.7760386337332725,39.22536351834015,2,v,1.4495322000002488,incorrect,b
67,4F4K,68,2,73.03647243539024,64.35630521839279,2.283258450893448,64.55143144092385,1,v,1.3158739000000423,correct,v
68,4F4K,69,2,44.365881207526265,63.30774618189091,1.2578644267626928,63.75422164977206,2,v,0.7941282000001593,incorrect,b
69,4F4K,70,2,49.71804215317227,69.19780924076079,1.4059460785361169,68.03735122933934,2,v,0.8001282000000174,incorrect,b
70,4F4K,71,1,67.18607987889492,50.74513809269823,2.0217188686744967,53.3202486080293,2,n,0.5883252999997239,correct,n
71,4F4K,72,1,51.78493804949886,36.73798803399169,1.4676908767163388,40.80918869144927,2,c,1.752922099999978,incorrect,n
72,4F4K,73,2,45.22022637717588,63.7269655610613,1.2804108358855744,64.07463219219632,2,v,2.0935560999996596,incorrect,b
73,4F4K,74,2,74.41147763040662,54.92979960922018,2.3494846284554507,56.94483994715619,1,b,0.9458220000001347,incorrect,v
74,4F4K,75,1,43.6952378064675,62.509897419376834,1.240444454102144,63.13839162512932,1,c,0.842649899999742,correct,c
75,4F4K,76,1,62.6360225202027,78.35852376004003,1.839202937782719,73.6098314048294,1,n,1.6192744000004495,incorrect,c
76,4F4K,77,1,43.44976976511154,53.63270701362103,1.2341289057039562,55.833624239360766,1,c,0.7021611000000121,correct,c
77,4F4K,78,2,33.20402249733895,46.27093690599671,0.9973146687281316,49.34778800590198,2,b,0.7324675999998362,correct,b
78,4F4K,79,1,73.76568698242428,56.63461976232905,2.3181446781746358,58.385492039714144,2,c,0.533618800000113,incorrect,n
79,4F4K,80,2,50.20918899785423,33.62874021148152,1.4203787383551356,38.07479552501388,1,b,0.7642486999998255,incorrect,v
80,4F4K,81,2,49.9151853723109,67.41882093681978,1.4117215536759655,66.79558162167636,2,v,2.4634226999996827,incorrect,b
81,4F4K,82,2,52.06082753483125,73.91078917879466,1.4761351605019952,71.08515489628708,2,b,1.433886799999982,correct,b
82,4F4K,83,2,59.7359187549998,43.39203699350559,1.7315662215752738,46.76468452305649,1,v,2.755665200000294,correct,v
83,4F4K,84,1,74.39049988537154,57.87359002539257,2.348459959907272,59.41676874266947,2,n,1.3595018000000891,correct,n
84,4F4K,85,1,55.16703319022864,67.30687297912125,1.5746279543451251,66.7158695907939,1,n,1.0610486999999011,incorrect,c
85,4F4K,86,2,47.98072905039259,41.83068394055167,1.3560608068394684,45.361562147435016,1,b,1.3766967999999906,incorrect,v
86,4F4K,87,1,44.88842563859355,57.81340953376338,1.2716069169131063,59.36700242248219,1,c,1.011596400000144,correct,c
87,4F4K,88,2,68.01198911347127,46.852412412733685,2.0567403483560205,49.8677902949745,1,b,0.9701073999999608,incorrect,v
88,4F4K,89,1,58.40921609341612,74.84779674560377,1.684448689549772,71.64653074414949,1,c,0.9154172999997172,correct,c
89,4F4K,90,2,48.060919321872255,64.1545894963545,1.3583239379202907,64.39916421041359,2,v,0.5577234999996108,incorrect,b
90,4F4K,91,2,62.058406737945646,46.45276584609054,1.8172440755401,49.510480534919786,1,v,1.9289346999998997,correct,v
91,4F4K,92,2,35.530830349420725,55.79215372338122,1.0467557989195564,57.67654754672069,2,b,0.9107365999998365,correct,b
92,4F4K,93,2,39.95961398953121,27.625639316881657,1.1477340790803217,32.97360851884169,1,b,1.254648200000247,incorrect,v
93,4F4K,94,2,53.93285678961908,70.6615932568086,1.5347308875896726,69.0226763380874,2,v,0.8066149999999652,incorrect,b
94,4F4K,95,2,49.92605993694514,66.40108875371553,1.4120408226705088,66.06427718842554,2,b,0.8062316000000465,correct,b
95,4F4K,96,2,67.61420225977356,59.53517345199376,2.039797685788919,60.77686459867846,1,v,1.2249740999995993,correct,v
96,4F4K,97,1,24.925196488755574,38.59645280195548,0.8395894216173032,42.46306956243445,1,c,2.330870700000105,correct,c
97,4F4K,98,2,63.73172967003372,45.6639501113867,1.881589468164205,48.804174785807874,1,b,0.8183707999996841,incorrect,v
98,4F4K,99,2,59.78095305628548,43.36021642782272,1.7331885269835798,46.73608877859272,1,b,0.8122883000000911,incorrect,v
99,4F4K,100,2,39.31668131119627,49.67464437445853,1.1324916705609571,52.37691016807984,2,b,0.7458642999999938,correct,b
100,4F4K,101,1,32.814415798367904,44.63790404992669,0.9892674227526744,47.883804722617946,1,n,1.9108355999997002,incorrect,c
101,4F4K,102,1,67.79077038176231,47.68916814516741,2.047300835926712,50.6145154986442,2,n,2.482031300000017,correct,n
102,4F4K,103,2,76.12772455374864,66.0185845683239,2.4348480412903823,65.78562614475707,1,b,1.2971486999999797,incorrect,v
103,4F4K,104,1,64.1832170178909,55.62021819801544,1.8993377958013364,57.531134767648346,2,c,1.0247199000000364,incorrect,n
104,4F4K,105,1,63.50301684199383,46.80228428305291,1.8726619697595277,49.822994360326426,2,n,1.5404127000001608,correct,n
105,4F4K,106,2,57.566014822365005,46.00069980445102,1.655171196620256,49.10585765515527,1,v,1.4616172000000915,correct,v
106,4F4K,107,1,66.64620259104511,55.74816229172303,1.999149104078132,57.63936519082888,2,c,3.022033400000055,incorrect,n
107,4F4K,108,2,43.24838834732011,54.155554532450914,1.2289716623609888,56.28301544989316,2,b,1.3281418999999914,correct,b
108,4F4K,109,1,73.33320437655152,57.65356944869645,2.297390549347212,59.23465742463832,2,c,1.8864777000003414,incorrect,n
109,4F4K,110,1,55.71644583422981,43.22901407558071,1.5927207854901502,46.618179723246335,2,n,2.518983699999808,correct,n
110,4F4K,111,1,41.97513411493818,60.89059050283188,1.196859682509756,61.865194010768654,1,n,0.8179967999999462,incorrect,c
111,4F4K,112,1,50.44586181694783,60.42859164771776,1.4273863235255502,61.49646831596763,1,c,1.2917009000002508,correct,c
112,4F4K,113,2,60.92881826339922,57.08767248604986,1.7750560098307993,58.76420787615671,1,v,1.4246274999995876,correct,v
113,4F4K,114,2,50.4984330417475,57.21316205284709,1.428947578182003,58.86878353967213,2,v,0.8904607999998007,incorrect,b
114,4F4K,115,1,60.94983916087371,71.80324159068638,1.7758320870819633,69.76737396901946,1,c,1.7468572999996468,correct,c
115,4F4K,116,2,42.84530431026442,57.99724835149654,1.2187135996460845,59.51892065312861,2,b,1.255297000000155,correct,b
116,4F4K,117,2,32.96952671664962,38.65648460795117,0.9924633977732648,42.51667414709191,2,b,4.241632700000082,correct,b
117,4F4K,118,1,45.43253553203705,33.76942311714865,1.2860761474926663,38.19742316951279,2,c,2.032128400000147,incorrect,n
118,4F4K,119,1,48.31742800747815,61.15576933364076,1.3655885246392634,62.07576214339943,1,n,1.20169420000002,incorrect,c
119,4F4K,120,2,49.40071953587136,27.580603364458632,1.3966994301857936,32.93648054810916,1,b,0.987233599999854,incorrect,v
120,4F4K,121,2,31.646316559745912,45.0978704334745,0.9655276614966838,48.29658997277598,2,v,3.2706751000000622,incorrect,b
121,4F4K,122,2,34.67891969620814,46.10740143422517,1.0283758178688551,49.201401024050014,2,v,1.1889806999997745,incorrect,b
122,4F4K,123,1,50.576259647798594,60.1243005561547,1.431262000314153,61.25233495423424,1,n,0.9038018999999622,incorrect,c
123,4F4K,124,1,64.31847450429144,48.27740862746943,1.9046873935841429,51.13817534122679,2,c,0.5455363999999463,incorrect,n
124,4F4K,125,2,56.83086592546336,44.7714553462655,1.6300610269924911,48.00368497543907,1,v,0.6544823999997789,correct,v
125,4F4K,126,1,49.971873514095925,65.3192140143774,1.4133866677055549,65.2709064573027,1,c,0.9145805000002838,correct,c
126,4F4K,127,1,43.65667896378575,31.792844600251406,1.2394502537125305,36.48590523082843,2,c,2.289258699999664,incorrect,n
127,4F4K,128,1,39.9355180145911,53.08990523588441,1.1471591375294727,55.36509208743401,1,c,1.013770900000054,correct,c
128,4F4K,129,1,45.74594106868481,60.39862208189864,1.2944849857578935,61.47246827221126,1,c,0.9640356999998403,correct,c
129,4F4K,130,2,41.11401652792535,60.93122958559597,1.1756189308535907,61.89751514946189,2,v,0.7763147000000572,incorrect,b
130,4F4K,131,2,63.40248296018231,45.3549223622646,1.868751178085984,48.52714472952686,1,b,0.7277079999998932,incorrect,v
131,4F4K,132,2,72.35861497268556,58.11126282478629,2.251300204916606,59.61297705626658,1,v,0.5512945999998919,correct,v
132,4F4K,133,1,63.20213824206353,49.19483464232623,1.8609820593306032,51.952410097337975,2,c,1.9403956000001017,incorrect,n
133,4F4K,134,1,46.25393484044098,63.87013280032916,1.3082316701114505,64.18354547346776,1,n,2.5797390999996423,incorrect,c
134,4F4K,135,2,41.451529000791496,58.12106389989548,1.183898886789445,59.62105666567434,2,v,1.5769916000003832,incorrect,b
135,4F4K,136,1,45.522298292491016,34.121127832630364,1.2884789328767006,38.5044914738503,2,c,1.4858728999997766,incorrect,n
136,4F4K,137,1,64.9399140047269,45.738332707063904,1.9294603808062127,48.87083032396209,2,n,0.2053424000000632,correct,n
137,4F4K,138,2,52.82285302158261,42.39390380024458,1.499712118473535,45.86764604658463,1,b,5.0,correct,v
138,4F4K,139,1,42.85010815727785,55.86531989348233,1.2188353469164923,57.73835373475935,1,c,1.1948896000003515,correct,c
139,4F4K,140,2,38.68099872931107,52.1564001825712,1.1176201692782803,54.5548582223953,2,b,0.7514562999999725,correct,b
140,4F4K,141,1,39.69245102699941,55.00723577887813,1.14137552395064,57.01078376117304,1,c,0.6899613999999019,correct,c
141,4F4K,142,1,38.60165445232781,58.70375515051715,1.115777708176866,60.09972949261834,1,n,2.5190222999999605,incorrect,c
142,4F4K,143,1,35.65600854782486,40.35151919943805,1.049484061374907,44.03375816329844,1,c,0.8911674000000858,correct,c
143,4F4K,144,2,58.29939092430814,44.26520126463141,1.6806062188272135,47.54914961758051,1,b,1.1581809999997859,incorrect,v
144,4F4K,145,2,54.09998385710745,68.09192713308387,1.5400738314969715,67.27098989472157,2,v,0.7394517000002452,incorrect,b
145,4F4K,146,2,48.84824603398319,37.60655660483349,1.380745457413862,41.58069378525701,1,v,0.8729620000003706,correct,v
146,4F4K,147,1,43.94997528246981,63.07267425946084,1.2470326672437229,63.57359238829086,1,c,1.4426340999998502,correct,c
147,4F4K,148,1,32.80689167244469,42.817625927122585,0.9891126542773078,46.24845283582325,1,n,0.6726605000003474,incorrect,c
148,4F4K,149,2,79.93486519346413,59.55936678582836,2.635443851917889,60.79646236579459,1,b,0.8123255999998946,incorrect,v
149,4F4K,150,1,30.369245282523853,43.03052512801419,0.9402246167623948,46.43979405752965,1,c,1.5648965000000317,correct,c
150,4F4K,151,2,57.06476972880411,44.353841099991165,1.6380087820194602,47.62875335099147,1,v,0.6241609999997308,correct,v
151,4F4K,152,1,65.0833411058201,52.0179809412922,1.935223553063851,54.43426252639691,2,c,1.8379204000002574,incorrect,n
152,4F4K,153,2,42.6011589279918,58.86169149041594,1.2125420400392626,60.22889625207037,2,v,1.0489640000005238,incorrect,b
153,4F4K,154,1,33.70092240383613,46.67055016463237,1.0076730882500355,49.70524254742087,1,c,1.2555678999997326,correct,c
154,4F4K,155,2,54.27383234226144,49.11258704463542,1.545651393523667,51.87954693520808,1,v,0.800378400000227,correct,v
155,4F4K,156,2,39.778065923172775,50.91695347495876,1.1434093380436536,53.47113357980512,2,b,0.7889823000004981,correct,b
156,4F4K,157,1,50.25838641667017,38.87173162371317,1.4218325741708902,42.70895570808615,2,n,0.5998290999996243,correct,n
157,4F4K,158,2,43.7928395214231,58.8674305305425,1.2429645802266738,60.23358518092422,2,v,0.8789215000006152,incorrect,b
158,4F4K,159,1,69.26644752015123,51.75705675155758,2.1110978149312816,54.206631172894255,2,n,1.9228657000003295,correct,n
159,4F4K,160,2,68.3708531412303,54.553886864638045,2.072145910533925,56.62406735811704,1,v,1.0298186999998507,correct,v
160,4F4K,161,1,65.13210767821856,48.73214890589512,1.937187005161928,51.54216659926289,2,c,3.0528717999995933,incorrect,n
161,4F4K,162,2,37.41300718587773,52.35180447535648,1.0885368258431922,54.724906275239135,2,v,0.7479192000000694,incorrect,b
162,4F4K,163,1,22.044545661749133,35.74072564826234,0.7907734669626326,39.927075871795246,1,c,0.709149599999364,correct,c
163,4F4K,164,2,42.83723724304823,60.50390599051009,1.21850917765084,61.55673778576698,2,v,1.4616378999999142,incorrect,b
164,4F4K,165,2,36.5251745584198,54.84633324205559,1.0686246762223293,56.873709312746605,2,v,1.922876699999506,incorrect,b
165,4F4K,166,2,51.78863225871847,36.02350528304394,1.4678036274767088,40.17676789437536,1,v,2.015404299999318,correct,v
166,4F4K,167,2,58.547555026876346,72.16865513512288,1.689301281098434,70.00121576581856,2,b,0.8123080000004848,correct,b
167,4F4K,168,1,34.69160327087234,47.78726860383519,1.0286470852124707,50.7019246505328,1,n,0.48990279999998165,incorrect,c
168,4F4K,169,1,31.537633596809087,37.42908166675005,0.9633480341613336,41.422829762726806,1,c,1.0853885000005903,correct,c
169,4F4K,170,1,61.68684741498036,54.24796584294577,1.8032574978175844,56.36224125554621,2,n,1.9835888999996314,correct,n
170,4F4K,171,2,60.19334447130738,46.6685790080212,1.7481152887184663,49.703480280564335,1,v,1.0003598999992391,correct,v
171,4F4K,172,2,37.75636269413479,45.53652629182203,1.096336656752703,48.68996481035188,2,b,0.5077688000001217,correct,b
172,4F4K,173,2,29.31606358588207,45.74363636171383,0.9198572574064344,48.8755826292184,2,v,0.5998364999995829,incorrect,b
173,4F4K,174,2,37.99998568996159,26.75648359921934,1.1019047879839847,32.26056072806987,1,v,0.8486994000004415,correct,v
174,4F4K,175,2,60.84110362122629,44.95800788965725,1.7718213034725907,48.1711035177884,1,b,1.1574103000002651,incorrect,v
175,4F4K,176,2,60.47836903330707,47.733309014106055,1.7585069916642524,50.65384951493532,1,b,0.6848682999998346,incorrect,v
176,4F4K,177,1,42.26475604227977,33.036779727861074,1.2040895414216508,37.56011213601777,2,c,0.7279509999998481,incorrect,n
177,4F4K,178,2,40.932937650380346,61.23469499737978,1.1712005445461229,62.138280678523245,2,v,1.8986368999994738,incorrect,b
178,4F4K,179,2,49.47791106842293,70.30490215584699,1.3989431464512534,68.7856900985497,2,v,0.6122623999999632,incorrect,b
179,4F4K,180,1,43.30466313583384,53.58004136598717,1.23041064842212,55.788251925606566,1,n,0.7212261999993643,incorrect,c
180,4F4K,181,2,50.72011406506381,62.63725190407519,1.435549842455116,63.23721398543041,2,v,0.8000937000006161,incorrect,b
181,4F4K,182,1,50.65259586131225,44.08486388619948,1.433535742443088,47.38717445087613,2,n,0.3756722999996782,correct,n
182,4F4K,183,2,56.93138125934934,46.89350165536577,1.6334716746043514,49.90450397098484,1,v,0.5936854999999923,correct,v
183,4F4K,184,1,38.48961996638536,27.85414246950579,1.1131813157473267,33.1622861180763,2,c,0.024681599999894388,incorrect,n
184,4F4K,185,1,60.32035624919689,79.29742282759253,1.752738400812445,74.09631113934827,1,n,0.4070204999998168,incorrect,c
185,4F4K,186,1,24.374702728649428,39.65749041029523,0.830033276887665,43.41184688904505,1,c,0.6969805999997334,correct,c
186,4F4K,187,2,55.69187404420792,66.50080614920338,1.5919071831089613,66.13658310661751,2,v,0.14602740000009362,incorrect,b
187,4F4K,188,1,66.83367338929753,52.893713651203015,2.0069576886984586,55.19526473752489,2,n,0.44210710000061226,correct,n
188,4F4K,189,1,45.43729435444192,50.66367038173728,1.286203419937086,53.24865262432638,1,c,0.6311033000001771,correct,c
189,4F4K,190,2,54.1252348164675,66.80744274856292,1.5408827041722062,66.35804560444706,2,b,0.7519154000001436,correct,b
190,4F4K,191,1,45.31381956808089,58.74872398344807,1.2829052180619298,60.136532146038135,1,c,0.3633165999999619,correct,c
191,4F4K,192,1,38.3320420794301,51.30559048304215,1.109539679562093,53.81185715270548,1,n,1.0124988999996276,incorrect,c
192,4F4K,193,1,43.13605097180394,29.693719572451077,1.2261041473291685,34.698588192803705,2,c,0.7023741000002701,incorrect,n
193,4F4K,194,1,39.50898973334181,53.06996894522338,1.1370295054018316,55.34784626447132,1,c,0.33862820000013016,correct,c
194,4F4K,195,1,58.39020786488501,44.725079866907805,1.683783017504898,47.96205917880653,2,n,0.3388973999999507,correct,n
195,4F4K,196,2,48.86435222884964,59.970244594903306,1.3812079726212996,61.128355325491846,2,v,0.5512661000002481,incorrect,b
196,4F4K,197,1,50.73489554631891,38.75691212979222,1.4359911584776437,42.60637140175386,2,c,1.9168520999992325,incorrect,n
197,4F4K,198,2,38.156911615309625,56.20702205515446,1.1055063779524603,58.02641384656902,2,v,0.4480333999999857,incorrect,b
198,4F4K,199,2,38.4526733612177,50.042992280919385,1.1123264058525193,52.70211344733351,2,b,0.636665300000459,correct,b
199,4F4K,200,1,37.17864046396616,50.446922186243526,1.0832447270136274,53.05800698812273,1,n,0.4602721000001111,incorrect,c
200,4F4K,201,1,45.54940620801548,54.96554678051909,1.2892054445079209,56.97528759636111,1,c,1.1761974999999438,correct,c
201,4F4K,202,2,68.5560805347032,52.24751248708216,2.0801425758091767,54.63417616042708,1,v,0.6362146000001303,correct,v
202,4F4K,203,1,46.8925636277518,54.92462954220081,1.3257207416024612,56.94043553006036,1,n,2.4644478999998682,incorrect,c
203,4F4K,204,2,68.69868699301544,54.66566442022649,2.086320223037297,56.71956046866357,1,v,0.9948327000001882,correct,v
204,4F4K,205,2,62.49827638843283,76.86178709780461,1.833942353995765,72.8003000886844,2,b,0.7333582000001115,correct,b
205,4F4K,206,1,58.18696238570323,42.51837477924508,1.6766817427953944,45.979506987200566,2,c,0.8369808000006742,incorrect,n
206,4F4K,207,1,53.9706839168409,35.63223122424637,1.5359385710742757,39.83137286170194,2,c,0.48451179999938176,incorrect,n
207,4F4K,208,2,20.85541815912127,35.120810134280774,0.7714596172834854,39.38100004216849,2,v,0.5938028000000486,incorrect,b
208,4F4K,209,1,45.790477584039536,26.465656323595933,1.2956843775847258,32.023648930242004,2,c,1.3098799999997937,incorrect,n
209,4F4K,210,1,29.73168780799889,40.37161750826941,0.9278417272835358,44.0517807448968,1,n,0.6732261999995899,incorrect,c
210,4F4K,211,1,59.584209247363226,50.38535798651319,1.7261122387839638,53.00381466391136,2,c,0.0853887000002942,incorrect,n
211,4F4K,212,2,39.614021339578905,26.95892238994048,1.1395155722872945,32.42597389150098,1,v,1.4009445000001506,correct,v
212,4F4K,213,2,57.99737547418338,47.01136849937131,1.6700846906957267,50.009794587007605,1,b,1.5163000000002285,incorrect,v
213,4F4K,214,2,43.64748504281657,51.47457854732394,1.2392133155213385,53.959757563042565,2,v,1.5587407000002713,incorrect,b
214,4F4K,215,2,59.68347894768377,38.69541673412147,1.729679055414697,42.55144331286456,1,v,1.0004472999999052,correct,v
215,4F4K,216,1,66.02152783247803,50.51961559741304,1.973348597939732,53.12197200227539,2,c,2.732245000000148,incorrect,n
216,4F4K,217,2,67.00887493555686,47.595390802231705,2.0142827998853057,50.53093015559958,1,b,0.6801274999997986,incorrect,v
217,4F4K,218,2,40.91446744509807,57.02731563467479,1.1707507995862092,58.71385957692407,2,v,0.9457185999999638,incorrect,b
218,4F4K,219,2,40.26109414020523,23.963484537827537,1.1549519439359586,30.022597288516344,1,v,1.5890641999994841,correct,v
219,4F4K,220,2,59.60213202492491,77.6393907063108,1.7267556698037416,73.22605431070123,2,b,0.8850216999999247,correct,b
220,4F4K,221,1,37.7148541013862,45.44586344551389,1.0953907654233888,48.60868642584794,1,n,0.9276465000002645,incorrect,c
221,4F4K,222,2,35.35888303330467,28.96581478321709,1.0430197607503993,34.08710484897469,1,b,0.8972383999998783,incorrect,v
222,4F4K,223,1,63.79442858522789,45.74712066061637,1.884044260511202,48.87870468391741,2,n,1.140004300000328,correct,n
223,4F4K,224,2,40.0978993024381,57.910303931022064,1.1510392096395528,59.44711255796767,2,v,2.7374268000003212,incorrect,b
224,4F4K,225,2,54.79271028364987,67.40955693065268,1.5624189025142277,66.78899215016204,2,v,1.5419240000001082,incorrect,b
225,4F4K,226,1,54.86903345649587,46.59231121474569,1.5649005797418003,49.63528750331614,2,c,0.7273363000003883,incorrect,n
226,4F4K,227,2,48.03587249549835,57.32411994421842,1.357616660680654,58.961130634744976,2,v,0.9639963999998145,incorrect,b
227,4F4K,228,2,39.19714646311824,53.323023273917336,1.1296801800352685,55.5665556077415,2,v,0.5937718999994104,incorrect,b
228,4F4K,229,1,25.18083691822805,41.79810523081338,0.8440644732985014,45.332293748470605,1,n,0.7151608000003762,incorrect,c
229,4F4K,230,2,42.97277890017863,59.341539530150655,1.2219484018402256,60.619793020392464,2,b,0.6974039999995512,correct,b
230,4F4K,231,2,59.39345596070195,45.644288503738274,1.7192789979891157,48.7865539820779,1,b,0.7516322999999829,incorrect,v
231,4F4K,232,2,64.6344612351417,55.64365097592393,1.917243843608377,57.55096697051694,1,v,1.1814156999998886,correct,v
232,4F4K,233,2,76.85610840807662,58.04273403510384,2.472007726002467,59.55645901114115,1,v,1.133927500000027,correct,v
233,4F4K,234,2,48.19471904596303,36.563161784158105,1.3621084473706653,40.65424664170034,1,b,0.7337399000007281,incorrect,v
234,4F4K,235,2,50.11937051666946,32.52008343711296,1.4177283404616354,37.11266549114563,1,v,0.721235500000148,correct,v
235,4F4K,236,2,46.06201856686143,63.75504563212433,1.303021200390232,64.09601446306279,2,v,0.7940492000006998,incorrect,b
236,4F4K,237,1,31.91408506607746,49.143863504468186,0.9709188012305732,51.90725799764525,1,n,0.9818139999997584,incorrect,c
237,4F4K,238,1,47.10493399751182,33.096882252918576,1.3315882266393415,37.61227020539043,2,c,1.0671403999995164,incorrect,n
238,4F4K,239,1,36.814571349776585,20.10604614188675,1.075074874098856,27.083511336735818,2,n,0.7032227999998213,correct,n
239,4F4K,240,2,61.70645593284682,47.57747536849075,1.803992921777431,50.51495873782567,1,b,1.6621416999996654,incorrect,v
240,4F4K,241,1,55.25700913784932,39.2765125820661,1.5775768367047982,43.0708682562521,2,n,1.170107700000699,correct,n
241,4F4K,242,2,59.09450904892349,42.31814297952119,1.7086243779998531,45.79956268646648,1,b,0.7515892999999778,incorrect,v
242,4F4K,243,1,77.98279340659407,57.32388788646368,2.530607571885661,58.96093761655143,2,c,0.7455433999994057,incorrect,n
243,4F4K,244,2,49.12289862752687,66.17439879337951,1.3886537879643348,65.8993823403862,2,v,0.6912486000001081,incorrect,b
244,4F4K,245,1,48.77546240017991,32.166520600382896,1.3786572892806006,36.80750084295381,2,n,1.922924100000273,correct,n
245,4F4K,246,1,61.21132561554721,44.307268618917234,1.7855143991340492,47.58692947481653,2,c,0.5998711000002004,incorrect,n
246,4F4K,247,2,39.89323910124847,59.650207881002586,1.1461510382444944,60.86999352633746,2,b,0.08535649999976158,correct,b
247,4F4K,248,1,41.07209077662553,49.22252136088505,1.1745944476546983,51.97693155341737,1,n,0.5391645999998218,incorrect,c
248,4F4K,249,2,49.40560658767803,72.40847219197423,1.396841374722639,70.15347569153892,2,v,0.6549880000002304,incorrect,b
249,4F4K,250,2,37.2786246606252,49.64330425143663,1.0854992580216969,52.34921291029452,2,v,0.5816414000000805,incorrect,b
250,4F4K,251,1,37.39960021911854,50.09757450840087,1.0882333949207583,52.75024972888681,1,n,0.7334000999999262,incorrect,c
251,4F4K,252,1,51.14993637260618,33.39041725583981,1.4484381600570218,37.86732739192535,2,c,0.1156991999996535,incorrect,n
252,4F4K,253,1,62.3375297290056,41.249651473637336,1.8278223921970167,44.839695583926726,2,c,1.3341730000001917,incorrect,n
253,4F4K,254,1,50.373076716352415,37.51714534099276,1.4252275746837528,41.50114883070482,2,c,1.0241066999997201,incorrect,n
254,4F4K,255,1,65.35501226896332,48.9701912951415,1.9461870397623036,51.75333407697225,2,n,0.6784592000003613,correct,n
255,4F4K,256,1,41.40028205507854,57.42667405658639,1.1826379365969075,59.04638368644221,1,c,1.3888114999999743,correct,c
256,4F4K,257,1,55.12636215755092,47.72321567936479,1.573296806671197,50.64485586475716,2,n,0.829202400000213,correct,n
257,4F4K,258,2,37.59267917494304,50.67777202372101,1.0926113957187435,53.26104791888069,2,v,2.239849800000229,incorrect,b
258,4F4K,259,1,53.32937449309395,68.3831903195488,1.515591795177857,67.47462348455682,1,n,0.7034631000005902,incorrect,c
259,4F4K,260,2,53.03648896322195,41.406868987661184,1.5063893118722136,44.98087434909588,1,b,0.775883000000249,incorrect,v
260,4F4K,261,1,61.74091245570924,52.078760060235055,1.8052859517440265,54.48722939932964,2,n,0.6605594000002384,correct,n
261,4F4K,262,1,66.46995142418557,50.68896658019646,1.9918355530979497,53.27088718223021,2,n,1.328147500000341,correct,n
262,4F4K,263,1,57.87662914625788,40.85901597917714,1.665896619722052,44.48902839581023,2,n,0.7265890999997282,correct,n
263,4F4K,264,2,45.2311074715488,24.684194448999808,1.2807005820980095,30.591873554047748,1,b,0.8426042000000962,incorrect,v
264,4F4K,265,1,47.82627171109435,34.806022258149426,1.3517123298981044,39.1044310157,2,n,0.9267896000001201,correct,n
265,4F4K,266,2,62.50021235922903,78.18371755547378,1.834016185197904,73.5174296000824,2,v,0.6483790000002045,incorrect,b
266,4F4K,267,1,45.162674391637246,62.91182102140825,1.2788794081060677,63.44959857415213,1,c,1.0309465999998793,correct,c
267,4F4K,268,1,43.103089821265804,26.681316212969424,1.2252640538494288,32.199246145873495,2,n,0.8669146000002002,correct,n
268,4F4K,269,1,56.20834640421636,68.3549337912834,1.6090959900918596,67.45492387940706,1,n,0.8491662000005817,incorrect,c
269,4F4K,270,2,42.31659444413266,31.461660579780407,1.2053881886671882,36.20170275257029,1,b,1.2310311999999612,incorrect,v
270,4F4K,271,2,55.268594062119774,44.26441947373784,1.5779569234705206,47.54844749120331,1,v,0.8058462999997573,correct,v
271,4F4K,272,2,40.17153521327957,56.55140514919681,1.1528030490359429,58.31573531388494,2,v,0.6059273000000758,incorrect,b
272,4F4K,273,1,59.695540750283335,53.76737157101397,1.730112944699051,55.94955289097632,2,n,0.6120660000005955,correct,n
273,4F4K,274,1,60.78421611785088,48.59930983074436,1.7697265801806112,51.42423089430517,2,n,0.6123387000006915,correct,n
274,4F4K,275,1,53.22589622866942,40.89484538752928,1.5123340963611809,44.52118421735842,2,c,0.7940539000001081,incorrect,n
275,4F4K,276,1,43.41105857254481,63.92237393402896,1.233135860532096,64.22322228515085,1,c,0.5938355999996929,correct,c
276,4F4K,277,2,56.90633832717625,38.6982567357485,1.632621260556202,42.55397979735319,1,v,0.7040029999998296,correct,v
277,4F4K,278,2,36.82357457787106,61.55241125939492,1.0752761650884666,62.3892310254833,2,b,0.8426115000002028,correct,b
278,4F4K,279,1,52.85594481475307,70.46633276953699,1.5007444622661048,68.89319647195916,1,c,1.3038524000003235,correct,c
279,4F4K,280,2,32.45300224676155,52.62262368266136,0.981860566203623,54.96019774464191,2,v,0.9579139999996187,incorrect,b
280,4F4K,281,1,41.79207415071628,58.9660290984748,1.19231234708127,60.31409085621756,1,n,2.7615702000002784,incorrect,c
281,4F4K,282,1,44.69537812729303,61.36865783669193,1.2665125244427815,62.24423303009314,1,n,0.8728092999999717,incorrect,c
282,4F4K,283,1,43.00701556964759,57.53062793397989,1.2228186551760187,59.13270182841844,1,c,0.6850473999993483,correct,c
283,4F4K,284,1,59.54866403189182,41.81773057909013,1.724836868170012,45.34992488628244,2,n,1.182506099999955,correct,n
284,4F4K,285,2,64.92631355330586,55.07239918870437,1.9289147806400968,57.06624033021427,1,v,1.1521318000004612,correct,v
285,4F4K,286,1,39.51155568406168,58.08491408685472,1.137090176009966,59.59125166194921,1,n,0.9873392999998032,incorrect,c
286,4F4K,287,1,31.17283022735117,50.21858239627841,0.9560678467022948,52.85691730854202,1,c,0.5443795999999566,correct,c
287,4F4K,288,2,48.65183871133812,61.19798570954683,1.3751177507963366,62.10921133490477,2,b,0.7692321000004085,correct,b
288,4F4K,289,2,47.818921380113565,70.30465018839118,1.3515057420856371,68.78552197413657,2,v,1.6497685999993337,incorrect,b
289,4F4K,290,1,74.88053440698594,64.45803771765306,2.372513065461892,64.62802423697461,2,n,0.8183826000004046,correct,n
290,4F4K,291,1,43.04569014455093,29.631788119237253,1.223802460039128,34.64638681039534,2,c,0.7698056999997789,incorrect,n
291,4F4K,292,2,42.360011445148366,54.98096611410147,1.2064769420844126,56.98841797514913,2,v,0.8914044000002832,incorrect,b
292,4F4K,293,1,64.04571688033128,55.05942721523471,1.8939148990986332,57.05520330576552,2,n,0.4601548999999068,correct,n
293,4F4K,294,1,49.5407588880126,37.71754861243544,1.400772597582152,41.679475842235256,2,n,0.8608401999999842,correct,n
294,4F4K,295,2,33.86564993697412,51.00422349391693,1.0111307029970655,53.54771398410352,2,b,0.8305008999996062,correct,b
295,4F4K,296,1,46.30579438948147,29.437734935651317,1.3096432137216614,34.48303014254773,2,n,0.7999870000003284,correct,n
296,4F4K,297,1,46.833234173419925,59.31927573938246,1.324086180163381,60.60170830235075,1,n,0.7455248999995092,incorrect,c
297,4F4K,298,2,33.297164434780115,50.8431259826363,0.9992481716629764,53.40631827162961,2,v,1.6012596000000485,incorrect,b
298,4F4K,299,1,33.90346161871476,42.12513683134509,1.0119260392071154,45.626125163332944,1,n,0.6780652999996164,incorrect,c
299,4F4K,300,2,58.11477139136337,44.13763586378584,1.6741666475233927,47.43457596380731,1,b,0.6544533000005686,incorrect,v
300,4F4K,301,2,61.49632285509284,47.50424898000733,1.796127401289924,50.44966803275232,1,v,0.5870566999992661,correct,v
301,4F4K,302,2,55.62499184466535,69.84496041869228,1.5896947352869275,68.47712317815107,2,v,0.9276308999997127,incorrect,b
302,4F4K,303,1,50.08592878363149,61.9531210581404,1.416742793061339,62.70407118510425,1,n,0.6730975999998918,incorrect,c
303,4F4K,304,2,27.87226458701924,44.64358127675552,0.8926508748801031,47.88890122806629,2,b,0.6605803000002197,correct,b
304,4F4K,305,2,50.30646253411562,32.77420998805843,1.4232547119259984,37.33251767573619,1,v,0.9761022000002413,correct,v
305,4F4K,306,2,48.00425080820186,57.01060317816169,1.356724247171088,58.69991266461143,2,b,1.4613382000006823,correct,b
306,4F4K,307,1,58.63206590788767,43.20980566106212,1.6922725921404604,46.600917102869495,2,c,0.964341300000342,incorrect,n
307,4F4K,308,2,53.3179001725867,61.59180426362802,1.5152302154052866,62.42026505114219,2,b,0.5938309000002846,correct,b
308,4F4K,309,2,59.00501776466274,39.7684371330627,1.7054477231968876,43.51120345367365,1,b,0.5816482000000178,incorrect,v
309,4F4K,310,2,50.1322616326863,39.72538082941494,1.4181084322300264,43.47264209140416,1,v,0.8305403999993359,correct,v
310,4F4K,311,2,40.25869230073391,53.02405549581923,1.1548942614774649,55.308119111795335,2,v,0.757941099999698,incorrect,b
311,4F4K,312,1,39.95772879281432,50.82061605502157,1.1476890869916263,53.38655056330236,1,n,1.5890749000000142,incorrect,c
312,4F4K,313,2,33.56447193215227,40.92390600895263,1.0048179612729242,44.54726645806446,2,b,0.7934050999992905,correct,b
313,4F4K,314,2,64.19438590778282,48.11855224934375,1.8997789692521567,50.99687333907081,1,v,0.8061852999999246,correct,v
314,4F4K,315,1,71.1673471769522,53.44333206767142,2.196216705607376,55.67038615528954,2,c,0.7576872999998159,incorrect,n
315,4F4K,316,1,48.59707717544609,35.59904815307427,1.3735527485158263,39.802112965332974,2,c,0.7399425000003248,incorrect,n
316,4F4K,317,1,37.85540336297182,49.68537110385278,1.0985968808744393,52.38638906855651,1,c,0.5269846000001053,correct,c
317,4F4K,318,1,60.22680356828708,40.21592722864148,1.7493319847574826,43.91218738631565,2,n,0.6301935000001322,correct,n
318,4F4K,319,2,57.56058895855196,38.60022025754178,1.654984458051943,42.46643336947314,1,b,1.1148192000000563,incorrect,v
319,4F4K,320,1,60.732151947106,48.30095285553888,1.7678116331161555,51.15911035349205,2,c,0.9885770999999295,incorrect,n
320,4F4K,321,1,38.74504636110471,45.40442506294098,1.11910964441641,48.5715326794628,1,n,1.3100886000001992,incorrect,c
321,4F4K,322,1,39.25497116077652,49.29240586914302,1.131039359256039,52.038812520498304,1,n,1.4677185000000463,incorrect,c
322,4F4K,323,1,40.46594145336526,50.30667988158808,1.1598821629020537,52.934530956014,1,n,1.2006787000000259,incorrect,c
323,4F4K,324,2,49.12029006858136,63.922258097030216,1.3885784646233392,64.22313434634503,2,b,0.7576337999998941,correct,b
324,4F4K,325,2,46.18264783147708,59.3335152210191,1.3062938211961626,60.61327551927696,2,v,0.8790432999994664,incorrect,b
325,4F4K,326,1,40.59779865420638,46.2360777024986,1.1630668001336253,49.316589042979714,1,n,0.07843379999940225,incorrect,c
326,4F4K,327,2,73.9261655370678,59.57921459886345,2.3258933825400585,60.81253549793906,1,v,0.6544775000002119,correct,v
327,4F4K,328,2,60.2833896480004,46.80921622133648,1.7513915905107518,49.82918932396953,1,b,0.8786366000003909,incorrect,v
328,4F4K,329,1,69.76707732370242,52.46837319898577,2.133189777688933,54.82623826591014,2,c,1.1035934999999881,incorrect,n
329,4F4K,330,2,35.255162825796205,55.6813605380167,1.0407725988135748,57.58287289392291,2,b,0.8365155000001323,correct,b
330,4F4K,331,2,61.74183069301862,47.12355039213981,1.805320422578697,50.109972101710255,1,b,0.9700578000001769,incorrect,v
331,4F4K,332,2,38.86760374452619,56.001763711145536,1.1219653429187677,57.85349478295715,2,v,0.8608012000004237,incorrect,b
332,4F4K,333,2,59.87972924395502,50.75049907128144,1.7367521427920287,53.32495879960424,1,b,1.4676979000005304,incorrect,v
333,4F4K,334,2,51.38275008258088,39.52893814146416,1.4554673763683152,43.29675597296314,1,b,0.8305317000003924,incorrect,v
334,4F4K,335,2,67.51766783922007,57.412187933181485,2.035707150146893,59.03434723843548,1,v,1.2734959999997955,correct,v
335,4F4K,336,2,53.250232490642425,35.728827586198584,1.5130996193285673,39.9165779301178,1,b,1.4424054999999498,incorrect,v
336,4F4K,337,2,34.66679334758122,56.03512884771052,1.0281165349742003,57.88162713183067,2,v,0.7217432000006738,incorrect,b
337,4F4K,338,2,56.75631225911144,73.3451631051851,1.6275359013874786,70.73889736504876,2,v,1.121607199999744,incorrect,b
338,4F4K,339,1,52.16793428203628,35.275455428956114,1.4794265054124165,39.517051747846345,2,n,1.3220831999997245,correct,n
339,4F4K,340,1,65.96722258275545,52.56187942126554,1.9711214598127305,54.90746178380389,2,n,1.0307573000000048,correct,n
340,4F4K,341,1,38.74048663624401,50.842699910867054,1.1190035390369628,53.40594412922344,1,n,0.5455348999994385,incorrect,c
341,4F4K,342,2,49.585431998686815,58.375801645916695,1.4020744515832806,59.83072749457112,2,v,1.1580937999997332,incorrect,b
342,4F4K,343,2,62.568608303597046,46.62121282207639,1.8366264772752523,49.661130764336825,1,b,0.7580671000005168,incorrect,v
343,4F4K,344,1,43.11206127480661,64.9516138917826,1.2254926556946482,64.99769604057511,1,c,0.824771900000087,correct,c
344,4F4K,345,2,65.8460942787803,80.66928832684921,1.966162861774169,74.77706455739374,2,v,0.9640286000003471,incorrect,b
345,4F4K,346,1,44.02479108705112,54.24549849359702,1.2489742493808011,56.36012675838604,1,c,0.9639806999994107,correct,c
346,4F4K,347,1,45.94760560724215,59.933044032062206,1.2999248015648104,61.09837944715101,1,n,0.7151833999996597,incorrect,c
347,4F4K,348,2,32.60290075746119,40.339931631454405,0.9849258513935109,44.023367642541714,2,b,1.3943530999995346,correct,b
348,4F4K,349,1,46.061134929868125,37.16743605278504,1.3029972579673734,41.19029867504452,2,n,0.7702969000001758,correct,n
349,4F4K,350,1,62.45430986040319,51.55603648011907,1.8322664233052168,54.0309942175848,2,c,1.1824680999998236,incorrect,n
350,4F4K,351,2,37.19332066016328,21.980907361181757,1.0835754553822663,28.48842581582037,1,b,0.7886179999995875,incorrect,v
351,4F4K,352,2,44.55405740519795,55.98270033744818,1.2627961104884449,57.83741703016924,2,v,0.7273275999996258,incorrect,b
352,4F4K,353,1,47.091800321292354,34.1024593055909,1.3312246100701242,38.48817455877512,2,n,0.37670189999971626,correct,n
353,4F4K,354,2,44.97925495538038,27.414520965801422,1.2740109245590632,32.79972962326497,1,v,0.4966458999997485,correct,v
354,4F4K,355,1,68.74336717888981,55.66164897750215,2.0882595204652,57.566196455512745,2,n,0.7819099999996979,correct,n
355,4F4K,356,1,49.48937817447959,37.22154740438196,1.399276766691003,41.23836852211774,2,n,0.5389764999999898,correct,n
356,4F4K,357,2,46.64830101459084,68.42557309543369,1.3190040829578082,67.50414898973234,2,v,1.2007137000000512,incorrect,b
357,4F4K,358,1,44.97637633223784,55.7010927189986,1.2739346654578885,57.59956361125426,1,n,3.144096800000625,incorrect,c
358,4F4K,359,1,66.59595531958392,53.61825220415739,1.9970613587683124,55.82117308308059,2,c,0.3996103999998013,incorrect,n
359,4F4K,360,2,50.96706029375759,27.54167147977654,1.4429404976351428,32.904400496832594,1,b,1.0368803000001208,incorrect,v
360,4F4K,361,2,40.133577371423385,51.50325914058663,1.15189348776711,53.984843547842914,2,b,3.028558100000737,correct,b
361,4F4K,362,2,40.46192271453306,54.63051939375831,1.1597852387026042,56.68954567279519,2,v,1.2698299000003317,incorrect,b
362,4F4K,363,2,54.14324191706905,73.84248264845826,1.541459791316576,71.04363287350486,2,b,1.5895301000000472,correct,b
363,4F4K,364,2,58.55264919244772,49.53577341198634,1.6894802385910457,52.2541484924157,1,v,1.4919935000007172,correct,v
364,4F4K,365,2,57.50509849121729,47.46659931534909,1.65307588636237,50.4160922355611,1,v,0.6785702000006495,correct,v
365,4F4K,366,1,54.97414957501682,43.68025045430972,1.5683249247663968,47.0236707111772,2,c,1.807560199999898,incorrect,n
366,4F4K,367,1,43.11958137473216,35.8239344873629,1.2256843084190148,40.000511102770254,2,n,0.721315499999946,correct,n
367,4F4K,368,1,46.65254195938477,34.552308792603526,1.319120408376586,38.88189410292673,2,n,0.7333903999997347,correct,n
368,4F4K,369,1,51.57845135680213,37.15568028949112,1.461402459733432,41.17985685777544,2,n,0.6840426999997362,correct,n
369,4F4K,370,2,53.836874452378645,68.56235012544407,1.5316707782862944,67.59924870792084,2,v,0.9692873000003601,incorrect,b
370,4F4K,371,2,63.27182115145256,49.728250996503135,1.863680605574416,52.42427571644735,1,b,0.9578885999999329,incorrect,v
371,4F4K,372,1,55.76286408370164,72.83443290888724,1.5942588860773634,70.42153857987753,1,c,0.8792755000004036,correct,c
372,4F4K,373,1,74.86237637682686,53.14301465879127,2.371617407744085,55.41102150291673,2,n,0.9885881999998674,correct,n
373,4F4K,374,2,35.358887975573374,41.71462304372472,1.0430198679432023,45.25729754208756,2,b,1.1885568999996394,correct,b
374,4F4K,375,2,60.75042970798333,45.95316664256022,1.7684836624486964,49.06328772302217,1,b,0.8244080000004033,incorrect,v
375,4F4K,376,1,57.60340171110508,37.18768688638081,1.6564584907564914,41.208287257372135,2,c,2.0695909000005486,incorrect,n
376,4F4K,377,2,50.67224094191396,68.85683700843262,1.4341214728443747,67.8030415409719,2,v,0.8236280000000988,incorrect,b
377,4F4K,378,1,31.6143470616872,42.6204246787869,0.9648860045429236,46.07122090700816,1,n,0.62414119999994,incorrect,c
378,4F4K,379,1,47.7416551595845,36.908412302635945,1.3493360133777257,40.96034579535438,2,c,0.6362335999992865,incorrect,n
379,4F4K,380,2,66.05151079875282,50.66636998689727,1.9745793215071668,53.251025645367726,1,b,1.1339517999995223,incorrect,v
380,4F4K,381,2,25.00293284062257,34.79866797592818,0.8409477003202219,39.09797568992939,2,b,1.212828000000627,correct,b
381,4F4K,382,1,66.04023420827505,46.751150751433975,1.9741163564735056,49.77729334891945,2,c,0.7273003999998764,incorrect,n
382,4F4K,383,1,40.7396493079124,58.81982966505623,1.1665025646745244,60.19468419559247,1,n,1.6801230999999461,incorrect,c
383,4F4K,384,1,61.19752251530084,42.22066628699498,1.7850019811199218,45.71196709698792,2,n,0.9267665000006673,correct,n
384,4F4K,385,1,51.07475600505685,62.07455179603176,1.4461755397037388,62.79910887463677,1,n,0.6366201999999248,incorrect,c
385,4F4K,386,2,55.18429881557611,43.41163730465128,1.5751933922910213,46.78229828782744,1,b,0.994371300000239,incorrect,v
386,4F4K,387,2,44.0149650409847,56.52494469019009,1.248719076434701,58.2935415923392,2,v,0.7326861000001372,incorrect,b
387,4F4K,388,1,73.86086518487208,52.57510503865014,2.322737235592723,54.91894574390373,2,n,0.5274714999995922,correct,n
388,4F4K,389,1,57.15470932305807,40.5731145931029,1.6410751201716511,44.23250261889385,2,n,0.6423288000005414,correct,n
389,4F4K,390,2,50.14695091673399,27.24788348467444,1.4185416668105553,32.66279032805467,1,v,0.7030802999997832,correct,v
390,4F4K,391,2,70.00196667901179,58.151106971863314,2.1436345892323403,59.64581721684997,1,b,1.783264099999542,incorrect,v
391,4F4K,392,1,49.76258980340706,67.23628226376036,1.407249069337806,66.66551221308633,1,n,0.9765986000002158,incorrect,c
392,4F4K,393,1,63.51549853753178,51.86823126781428,1.8731480814360888,54.30366852415545,2,c,0.8485613999991983,incorrect,n
393,4F4K,394,2,45.02896352862543,65.66524625836794,1.27532850045688,65.52641607585832,2,b,0.7823847999998179,correct,b
394,4F4K,395,1,62.91071518270874,54.86268216942,1.8497386616104492,56.88764618277825,2,n,0.9882389999993393,correct,n
395,4F4K,396,2,50.46787121650095,69.28642924622613,1.428039748647686,68.09795684428377,2,b,0.5639749000001757,correct,b
396,4F4K,397,2,30.141375100133253,43.301782822714586,0.9357799694675842,46.68357621807191,2,v,0.9396943000001556,incorrect,b
397,4F4K,398,2,62.49739211378733,45.772143233945926,1.833908631820896,48.90112512155782,1,b,0.9882826000002751,incorrect,v
398,4F4K,399,1,52.628717823276375,42.61185259609753,1.4936700925068624,46.06351696437191,2,n,1.6194343999995908,correct,n
399,4F4K,400,2,62.23230675338583,78.16891946650142,1.8238273971436376,73.50958118736528,2,b,0.7212306999999782,correct,b
