,condition,trial,sub_task,x,y,xt,yt,cat,resp,rt,acc,correct_resp
0,2F4K,1,1,65.74084862778017,50.40284906858197,1.9618645766738885,52.78351683750424,2,n,4.113602000000128,correct,n
1,2F4K,2,2,50.92115627714501,57.2918077360073,1.4415638000026791,58.6202089228384,2,b,4.502030300000115,correct,b
2,2F4K,3,2,48.29879014321853,40.20652366412717,1.365059374928339,43.78879475396639,1,v,3.8531000000000404,correct,v
3,2F4K,4,2,71.20940767698907,55.548100341328016,2.198138408632864,57.17542258663674,1,b,2.9423437999998896,incorrect,v
4,2F4K,5,2,44.269522168444254,31.293147822194538,1.2553465296512252,36.04636168248722,1,v,2.7010737000000518,correct,v
5,2F4K,6,2,50.361387987271705,41.312274465336245,1.4248812005553044,44.767823207716965,1,v,1.7239700000000084,correct,v
6,2F4K,7,1,54.88438430241215,44.14331707619599,1.5654001943147091,47.27788316662463,2,n,2.9923303000000487,correct,n
7,2F4K,8,1,59.76216735317851,46.52655121752619,1.7325116104021236,49.38638115218068,2,n,3.4035742000000937,correct,n
8,2F4K,9,2,39.27455232853863,57.277375897032506,1.131499988432695,58.60835886252514,2,v,4.301140300000043,incorrect,b
9,2F4K,10,1,39.751514190028566,45.16001231651967,1.142778204246025,48.17845163599053,1,n,4.805468999999903,incorrect,c
10,2F4K,11,2,44.82846180467976,33.45224627230422,1.2700223220109907,37.88539598873622,1,b,2.9901259000000664,incorrect,v
11,2F4K,12,2,57.72203084799981,71.46022241422646,1.6605497256789268,69.0912667714642,2,b,4.386713200000031,correct,b
12,2F4K,13,1,25.80273386956944,42.10599591461708,0.8550507854801144,45.47137832463887,1,c,3.561347099999921,correct,c
13,2F4K,14,1,44.09982617545632,59.918982585521725,1.2509245585384905,60.744490620600494,1,n,3.229065700000092,incorrect,c
14,2F4K,15,1,44.85894339272994,30.72440123553706,1.270827576778535,35.567317377711035,2,c,3.1850868999999875,incorrect,n
15,2F4K,16,1,49.311935824391234,58.45653967939782,1.3941232150281566,59.57025738788249,1,n,4.398788299999978,incorrect,c
16,2F4K,17,1,69.62086339282887,50.85699975310464,2.126713806495644,53.17751571139335,2,n,2.0698545999998714,correct,n
17,2F4K,18,1,59.74042525848536,42.969318682461584,1.7317284944318594,46.23696186405172,2,c,3.1701358999998774,incorrect,n
18,2F4K,19,1,43.20941539543419,36.38025309838366,1.2279760829248445,40.42249681945339,2,c,2.7499402999999347,incorrect,n
19,2F4K,20,1,45.81154804971397,56.11796311208306,1.296252203511281,57.65040659417818,1,n,2.586416399999962,incorrect,c
20,2F4K,21,2,47.15666658686564,64.60602501234979,1.3330214520379349,64.34827244836559,2,v,3.4604726999998547,incorrect,b
21,2F4K,22,1,46.23514981510053,60.8176088699562,1.307720743716417,61.455012306057135,1,c,5.0,incorrect,c
22,2F4K,23,2,21.719412223658185,41.77178509582206,0.7854451120527862,45.17507819993342,2,v,3.9682333999999173,incorrect,b
23,2F4K,24,2,54.36680358399738,75.03610837673776,1.548642464864676,71.27359432518159,2,v,1.1520026000000598,incorrect,b
24,2F4K,25,2,54.35484153271028,31.42966195697656,1.5482572974604742,36.16169919015655,1,v,1.731580200000053,correct,v
25,2F4K,26,1,56.49274796651231,40.71000521741245,1.6186403208199838,44.234370445108745,2,c,3.0493941000001996,incorrect,n
26,2F4K,27,2,44.69701729147773,57.19527124324197,1.2665556948417678,58.54090679206354,2,b,2.415798900000027,correct,b
27,2F4K,28,1,32.86337858404634,49.56341410575323,0.9902751607860694,52.052702666635085,1,c,2.0031300000000556,correct,c
28,2F4K,29,1,62.22647524351522,46.29476010366463,1.823606248064912,49.18175730248281,2,n,2.0883708000001207,correct,n
29,2F4K,30,2,48.31936233420984,60.4425662406488,1.365643454075594,61.15953064153543,2,b,4.260685399999829,correct,b
30,2F4K,31,2,53.72658691583876,61.73943072206734,1.528162123212368,62.17465499802537,2,b,1.7254062000001795,correct,b
31,2F4K,32,1,37.11896178911528,48.79876837161106,1.081901272327906,51.38437081598527,1,c,1.8466562999999496,correct,c
32,2F4K,33,1,46.59835554707019,67.96357676362247,1.3176348938622868,66.75758686604985,1,c,3.2607609000001503,correct,c
33,2F4K,34,1,32.19581109889859,43.564343982323,0.9766234557388668,46.76461632937316,1,n,1.2247966999998425,incorrect,c
34,2F4K,35,1,42.12847135525848,54.64543524258089,1.2006820300037535,56.41780686399496,1,c,2.075983499999893,correct,c
35,2F4K,36,1,25.82274096931273,41.62291433862602,0.8554065913491445,45.04311796304446,1,c,1.5601431000000048,correct,c
36,2F4K,37,1,72.59181790380352,61.291604622755024,2.262243990438632,61.82624152260942,2,n,0.6967652000000726,correct,n
37,2F4K,38,1,46.876111974283255,64.36948161038501,1.3252672867690012,64.1727878730096,1,c,2.0143527000000176,correct,c
38,2F4K,39,1,42.42858842172263,49.93875953107517,1.2081986273734735,52.37987354621141,1,c,1.3795755999999528,correct,c
39,2F4K,40,2,53.47010693266592,40.918874344542026,1.520033593162151,44.41932436102334,1,b,2.3125016999999843,incorrect,v
40,2F4K,41,1,74.89427545279158,59.01437971836036,2.3731910771245586,60.020694267066354,2,n,4.126902299999983,correct,n
41,2F4K,42,1,53.888423627455325,64.77737646075605,1.5333135100356854,64.47493919700307,1,c,1.99102199999993,correct,c
42,2F4K,43,1,36.53000826143311,45.1029716427116,1.068732093391824,48.12796024798457,1,c,1.9606627999999091,correct,c
43,2F4K,44,1,43.40200879393525,53.72157084629864,1.232903824871438,55.63615200053696,1,c,1.7521221000001788,correct,c
44,2F4K,45,2,62.61980127853503,42.64287365669384,1.838582658582638,45.947458630864446,1,v,2.3688073000000713,correct,v
45,2F4K,46,2,68.50183769876993,51.943770475420656,2.0777976057692302,54.11597962070856,1,v,1.912100799999962,correct,v
46,2F4K,47,2,28.719583561131294,42.7912054076276,0.9085183171377824,46.0790041078681,2,b,0.8051241999999093,correct,b
47,2F4K,48,1,50.9425671451169,46.22082365748789,1.442205765282802,49.11646139078793,2,c,2.245258100000001,incorrect,n
48,2F4K,49,1,52.25890378518638,66.16232778737918,1.4822277224989018,65.48440473725105,1,n,2.44756069999994,incorrect,c
49,2F4K,50,2,62.92512510872453,46.48233455786241,1.850293011428892,49.34735643547484,1,b,2.054069100000106,incorrect,v
50,2F4K,51,2,56.36727837974139,40.86327177659943,1.6144226846838483,44.37008267372256,1,v,1.8672609000000193,correct,v
51,2F4K,52,2,55.09804743713322,34.68812652538218,1.57237074095349,38.95095472709109,1,v,1.8891905000000406,correct,v
52,2F4K,53,2,50.52376628054724,40.54451653840866,1.429700531628328,44.08787230450473,1,b,1.3482053000000178,incorrect,v
53,2F4K,54,2,62.69118794514437,43.50747922466744,1.841313958309148,46.71419480305119,1,v,1.0366530999999668,correct,v
54,2F4K,55,1,59.547016772174445,49.40738420163203,1.7247777869598435,51.91651977026469,2,n,1.4123207000000093,correct,n
55,2F4K,56,1,33.96180218545368,39.98400964103847,1.0131544103106236,43.59200455183204,1,c,1.7771116999999776,correct,c
56,2F4K,57,2,61.5471564483404,38.958073048646334,1.7980270102984512,42.6859595087564,1,v,1.145250299999816,correct,v
57,2F4K,58,2,27.060358778055463,46.0797923430821,0.8777066622796431,48.99187918843205,2,b,0.9698937999999089,correct,b
58,2F4K,59,1,47.153889254597445,38.88553640586245,1.3329444682718112,42.621990842688,2,c,1.8742995000000064,incorrect,n
59,2F4K,60,1,54.383263561542286,45.18466342859203,1.5491726181343706,48.200270882621496,2,n,1.2566748000001553,correct,n
60,2F4K,61,2,49.45424825506005,40.30455901617077,1.398254959687802,43.87552378164074,1,v,2.2474130999999034,correct,v
61,2F4K,62,1,57.47814455743814,72.92981716976341,1.6521496113250345,70.01416721522378,1,n,1.8620129000000816,incorrect,c
62,2F4K,63,1,48.0468757537274,41.99381155766575,1.3579273274961312,45.371912244337125,2,c,2.732311799999934,incorrect,n
63,2F4K,64,1,64.29274664236743,52.39306234156078,1.9036686662673712,54.50201749962797,2,n,1.3695167000000765,correct,n
64,2F4K,65,1,46.62997002375799,59.73748004491121,1.3185013978424396,60.59994029024062,1,n,3.0759301000000505,incorrect,c
65,2F4K,66,2,53.26026005886234,43.83023041553025,1.5134151598528645,47.00035433675421,1,v,2.1122428999999556,correct,v
66,2F4K,67,2,44.50500897296068,58.09485111916317,1.261508799060251,59.27659462735071,2,v,1.7363937999998598,incorrect,b
67,2F4K,68,1,47.1509549485177,59.7688115657817,1.3328631382411071,60.62491752576572,1,c,1.7042746999998144,correct,c
68,2F4K,69,1,46.91124099952047,59.74416821941189,1.326235731689828,60.6052729051117,1,c,1.3904354999999669,correct,c
69,2F4K,70,1,56.64962210887917,43.004553561116985,1.6239291188793723,46.268209364678725,2,n,1.1838258000000224,correct,n
70,2F4K,71,1,69.41085068013797,59.12303268527356,2.117446502826286,60.10806985142101,2,n,1.6207923000001756,correct,n
71,2F4K,72,1,37.31216944718332,51.58054594495613,1.0862567059082668,53.80303987203792,1,c,1.5586040999999113,correct,c
72,2F4K,73,2,38.843496332429424,32.8055435343099,1.1214030431585684,37.33136802615832,1,v,3.0105929000001197,correct,v
73,2F4K,74,2,50.48859276293995,34.36607169148205,1.4286552127760528,38.67247270676997,1,b,1.5223696000002747,incorrect,v
74,2F4K,75,1,45.00441709584407,28.012916600345644,1.2746777022696585,33.3192446453747,2,c,4.018041199999971,incorrect,n
75,2F4K,76,1,43.93770377036226,61.15970431096372,1.2467144913914086,61.72318956899995,1,c,1.8225889999998799,correct,c
76,2F4K,77,2,48.75866127870807,58.03508358064322,1.378175712602664,59.227948377693295,2,v,2.4276567000001705,incorrect,b
77,2F4K,78,1,46.576365620205344,24.46011362522982,1.317032519752509,30.477948377081944,2,c,3.2933703999997306,incorrect,n
78,2F4K,79,1,48.55607886248341,33.19859227121317,1.3723822444362377,37.66778549911964,2,n,1.831579000000147,correct,n
79,2F4K,80,1,75.24557359462071,54.94786816923276,2.3905908071569284,56.67233611552934,2,n,1.2628755000000638,correct,n
80,2F4K,81,2,50.92836637983056,63.02261908464453,1.4417799496796877,63.16006355399792,2,b,4.671094499999981,correct,b
81,2F4K,82,2,60.34031020459772,52.34924715650031,1.7534658169288142,54.46442358063981,1,v,1.9933458999998948,correct,v
82,2F4K,83,2,28.03308305481877,42.66828793006199,0.895641008808772,45.96999668807722,2,b,1.3416062999999667,correct,b
83,2F4K,84,1,54.01520352631994,39.39168424045947,1.5373611387955808,43.06861815539861,2,n,4.131823500000337,correct,n
84,2F4K,85,1,59.0619681171634,37.24248885117198,1.7074685948205697,41.1770686258803,2,n,1.4797174000000268,correct,n
85,2F4K,86,2,61.99351815377389,45.31203923240671,1.814793684998413,48.31299938595671,1,v,1.8954189000000952,correct,v
86,2F4K,87,1,34.6489785228632,50.32650668680545,1.0277357409066663,52.71718716917166,1,c,1.505474100000356,correct,c
87,2F4K,88,1,33.43553149302652,44.32367588504334,1.0021274107213272,47.43772286961118,1,c,1.771465100000114,correct,c
88,2F4K,89,2,56.59747453126376,49.84498812570121,1.6221691196578836,52.29819565457383,1,v,1.135343400000238,correct,v
89,2F4K,90,1,71.3021016034418,58.34142143276518,2.202379441631336,59.47692610615093,2,n,2.719283400000222,correct,n
90,2F4K,91,2,36.59830160095004,43.25124818949744,1.0702508994776148,46.48698177657902,2,b,1.43752749999976,correct,b
91,2F4K,92,1,30.82058316052277,48.24111539985415,0.9490904529691492,50.89554576746698,1,c,1.5706632999999783,correct,c
92,2F4K,93,2,55.84655991952009,34.418329380568125,1.59703595969101,38.71762269174939,1,v,1.7642549000001964,correct,v
93,2F4K,94,2,52.45218347933793,71.03589691048603,1.4881969882531063,68.81824284304857,2,v,1.960511199999928,incorrect,b
94,2F4K,95,2,60.824906288557294,51.84681430710242,1.771224629628109,54.0325191456138,1,v,2.1988399999995636,correct,v
95,2F4K,96,2,49.17110808669933,62.63660176012172,1.3900465940765576,62.86568342093883,2,b,1.3219098999998096,correct,b
96,2F4K,97,1,29.80250847642388,52.45141781124321,0.9292091426736162,54.5520691473844,1,c,1.6076137000000017,correct,c
97,2F4K,98,1,25.261068135258554,40.43504248802516,0.845473853114026,43.9909829907684,1,c,1.9925372000002426,correct,c
98,2F4K,99,2,39.47402753141469,48.49831433718849,1.1362031642777053,51.12113956615512,2,b,2.6000762000003306,correct,b
99,2F4K,100,1,45.97694914042911,32.81794961273305,1.3007182338289338,37.34197181079165,2,n,2.3067902000002505,correct,n
100,2F4K,101,2,24.618618028474387,45.351233360652266,0.8342539635831279,48.34768139985508,2,b,1.8559721000001446,correct,b
101,2F4K,102,1,28.503318118800287,42.42480769545938,0.9044417803903562,45.75407664497738,1,c,1.6937169999996513,correct,c
102,2F4K,103,1,46.08437802384087,63.74963920359899,1.3036271833564348,63.70954489527941,1,n,1.7922841999998127,incorrect,c
103,2F4K,104,1,35.6937329584767,48.367591792689055,1.0503076595594505,51.00650956456131,1,c,1.7541442000001553,correct,c
104,2F4K,105,1,59.25029882535577,78.8874204380532,1.7141685400925717,73.3738435949669,1,n,2.0167821000000004,incorrect,c
105,2F4K,106,2,71.17480922768712,56.0036314735416,2.1965575167606644,57.55532280611148,1,v,2.8118540000000394,correct,v
106,2F4K,107,2,32.08591202646003,45.75596413023326,0.974394139168848,48.70566815651494,2,b,1.2809685999995963,correct,b
107,2F4K,108,1,43.303522989824536,62.65221959837998,1.2303814773682007,62.87762854944641,1,c,1.6314376000000266,correct,c
108,2F4K,109,2,53.553389352191,37.98518938799516,1.522668282097268,41.8291817340171,1,v,1.6922307999998338,correct,v
109,2F4K,110,1,46.71251412090166,38.24474055205285,1.3207664912131123,42.057493529598986,2,c,1.5677331000001686,incorrect,n
110,2F4K,111,2,33.93714734109883,47.15813793995953,1.012635116319532,49.94327892129666,2,b,1.4205320999999458,correct,b
111,2F4K,112,1,56.24841290194505,49.57961097696791,1.6104371821742072,52.06683337795842,2,n,1.9166543000001184,correct,n
112,2F4K,113,2,57.697473647158894,34.30476898258444,1.6597019780554,38.61952669899746,1,v,1.5233071999996355,correct,v
113,2F4K,114,1,48.61817187780064,40.28659858913106,1.374155392347161,43.859633520187415,2,c,1.7740332000003036,incorrect,n
114,2F4K,115,1,52.64996351790079,69.37538139948295,1.4943301294941247,67.72244960416762,1,n,2.4597899999998845,incorrect,c
115,2F4K,116,1,66.74920975798901,48.44131070104104,2.00343581849808,51.07116081961239,2,n,1.6572065000000293,correct,n
116,2F4K,117,1,63.55652593741997,49.77331860520038,1.874746822361292,52.23574280866178,2,n,0.8363741000002847,correct,n
117,2F4K,118,2,62.25654556795956,49.56089932076261,1.8247468961858029,52.05050858054855,1,v,1.5889387000001989,correct,v
118,2F4K,119,1,46.2488792652313,64.47727630544017,1.3080941459131736,64.25284734074557,1,c,1.0852717999996457,correct,c
119,2F4K,120,2,43.648599210508046,29.741642835861896,1.239242026525277,34.74542755461502,1,b,2.1426963999997497,incorrect,v
120,2F4K,121,2,60.85424385130152,43.723107215509486,1.7723055081046533,46.9053822870888,1,v,1.6692912999997134,correct,v
121,2F4K,122,1,77.56492257334038,60.16680221442017,2.5087134228759997,60.94129814054064,2,n,1.795260700000199,correct,n
122,2F4K,123,2,40.57552133184983,56.52934971503571,1.1625281413132935,57.99163319498225,2,b,1.5433843000000707,correct,b
123,2F4K,124,2,25.169855383624984,43.96849485080395,0.8438717493052418,47.12292452853,2,b,1.638979200000449,correct,b
124,2F4K,125,2,54.25014323381978,65.42050641565147,1.5448901913514257,64.94690714153299,2,v,1.1631153999996968,incorrect,b
125,2F4K,126,1,48.23569800914912,32.360198874828804,1.363269640399027,36.95137724859837,2,c,1.4917986000000383,incorrect,n
126,2F4K,127,2,52.10485365324672,41.09108162157192,1.4774871771863165,44.571855163804805,1,b,3.4217736000000514,incorrect,v
127,2F4K,128,2,56.26110477661621,64.13663437183313,1.6108622650309383,63.99934165578529,2,v,2.091993000000002,incorrect,b
128,2F4K,129,1,44.09029311611555,56.51435144577087,1.25067660684112,57.979217919783984,1,c,1.761959399999796,correct,c
129,2F4K,130,1,63.69667009118069,44.55349319661865,1.8802182076074787,47.64134946937422,2,n,2.8664089000003514,correct,n
130,2F4K,131,2,25.51033876190083,46.49686321462107,0.8498676912881193,49.36017963286022,2,b,2.3627064999996037,correct,b
131,2F4K,132,1,57.24463846877594,46.31168309232289,1.6441468412563205,49.196700914930425,2,n,2.3565358000000742,correct,n
132,2F4K,133,1,47.94780363465139,62.72115989872208,1.3551326775403696,62.93032182154474,1,c,1.6253372999999556,correct,c
133,2F4K,134,1,65.17424006766697,50.22147121119133,1.9388849540517603,52.62588246487324,2,n,2.2519498999999996,correct,n
134,2F4K,135,1,68.1895851481828,59.666729979367474,2.064349944724489,60.54350144578388,2,n,1.6997080000001006,correct,n
135,2F4K,136,2,40.19988022621109,31.23243682257172,1.153482732162451,35.99511186795741,1,b,1.5601096000000325,incorrect,v
136,2F4K,137,2,50.66103177177988,64.78922809964097,1.4337872350923242,64.48368601272647,2,v,2.397762799999782,incorrect,b
137,2F4K,138,1,51.70823297236201,67.21218239731573,1.4653517211293423,66.2320904090339,1,c,1.4189828000003217,correct,c
138,2F4K,139,2,66.45069586031826,78.83652486196526,1.9910381654720304,73.34785344533437,2,v,2.7799574000000575,incorrect,b
139,2F4K,140,1,47.08413666081793,40.73831155452356,1.3310124812360795,44.25943236156361,2,c,1.5221645000001445,incorrect,n
140,2F4K,141,1,62.06225364135481,52.92194528020177,1.817389450172617,54.95487602436191,2,n,2.3551798000003146,correct,n
141,2F4K,142,2,61.75764987069692,49.39719479803846,1.80591438141478,51.90762289864677,1,v,2.7669017999996868,correct,v
142,2F4K,143,2,52.74837899741094,62.97548711713602,1.4973913960548992,63.12421693604766,2,b,1.2491188000003604,correct,b
143,2F4K,144,2,49.17691336956859,34.852539879118666,1.3902144071044518,39.09333232984425,1,v,2.057756399999562,correct,v
144,2F4K,145,2,45.34712256981526,67.19571713104568,1.2837939587309302,66.22048421922587,2,b,0.7042592000002514,correct,b
145,2F4K,146,1,39.312095138207525,55.47206149087592,1.1323836736195652,57.11184612876768,1,c,1.5768103999998857,correct,c
146,2F4K,147,1,41.09924136269255,58.02627752341079,1.1752577880891122,59.2207780696427,1,c,1.4025943000001462,correct,c
147,2F4K,148,2,54.35119037438975,34.923527217779046,1.5481397524957372,39.15484813066112,1,v,2.6297881000000416,correct,v
148,2F4K,149,1,50.25705570232572,60.02815736766887,1.4217932305791277,60.83127230998345,1,c,2.816439100000025,correct,c
149,2F4K,150,1,50.012632290603456,34.797263529401505,1.4145850983407375,39.045449001490425,2,n,2.8528112999997575,correct,n
150,2F4K,151,2,58.44969475828834,39.153264477139146,1.6858671377279844,42.85815955828407,1,v,2.228685299999597,correct,v
151,2F4K,152,1,43.66335871943707,55.77402650413997,1.2396224273104337,57.36404838342008,1,c,2.2656537999996544,correct,c
152,2F4K,153,1,51.04384421775156,31.343415386702222,1.4452462475489167,36.08881585513024,2,n,2.3612216000001354,correct,n
153,2F4K,154,1,32.294495453439104,49.19201813057098,0.9786296262931132,51.72838184531592,1,c,2.6950056000000586,correct,c
154,2F4K,155,2,35.03036550653279,45.42485627009312,1.0359188306611398,48.41282201272366,2,b,1.5164912000000186,correct,b
155,2F4K,156,1,45.6133800629198,59.58142137905176,1.2909216143679274,60.47538012214682,1,n,4.829742200000055,incorrect,c
156,2F4K,157,2,45.129725911752224,58.99758295490778,1.2780034911684073,60.00717626878853,2,b,5.0,incorrect,b
157,2F4K,158,1,28.246134557025584,44.34590591510292,0.8996177530926217,47.45742178761041,1,c,4.671942899999976,correct,c
158,2F4K,159,1,59.73973986839814,44.41676787446373,1.7317038135176224,47.52021222021582,2,n,3.0212141000001793,correct,n
159,2F4K,160,2,34.270378509267665,51.07304091598914,1.0196763842913237,53.364578109444665,2,b,1.5336907999999312,correct,b
160,2F4K,161,2,47.35568769774855,32.04397955097373,1.3385496295512695,36.68235722860928,1,v,2.1121477000001505,correct,v
161,2F4K,162,1,66.03597957024402,57.019523926884936,1.973941708774171,58.39632197989563,2,n,2.658572499999991,correct,n
162,2F4K,163,1,37.33506388842422,49.43540338127837,1.0867739703416617,51.94098246394631,1,c,1.8076262999998107,correct,c
163,2F4K,164,1,46.43316721376158,57.982547984275286,1.3131165894397048,59.18516061531172,1,c,1.7406252999999197,correct,c
164,2F4K,165,1,48.96404313222101,66.51006448808302,1.3840742060101492,65.73376523529357,1,c,2.0471408000003066,correct,c
165,2F4K,166,1,49.81426277430167,34.922890998975134,1.4087619841161856,39.15429668667679,2,n,1.4448151999999936,correct,n
166,2F4K,167,2,51.57737869982569,36.89916476703425,1.461369863113561,40.87627223498902,1,v,1.9894954999999754,correct,v
167,2F4K,168,1,54.408324537496696,38.53576422593572,1.549980146291216,42.31372548200612,2,n,2.277758400000039,correct,n
168,2F4K,169,2,41.7532786798893,57.75104733174071,1.1913508618520925,58.996306995195006,2,b,2.1736674999997376,correct,b
169,2F4K,170,2,71.21088975906937,51.21195508644144,2.1982061541713542,53.48473075625155,1,v,1.9439562000002297,correct,v
170,2F4K,171,1,39.76444931109087,58.81931136969714,1.1430856281060973,59.86353099145855,1,c,2.6524004000002606,correct,c
171,2F4K,172,1,64.09535152407767,77.60288761715955,1.895870662106501,72.70324792851981,1,n,1.801358600000185,incorrect,c
172,2F4K,173,1,47.39039381026938,38.473980284385405,1.339516000548896,42.25930767992401,2,n,2.696367999999893,correct,n
173,2F4K,174,2,66.50413994165642,53.92141718062107,1.9932521126932023,55.80574808293362,1,v,3.5431249000002936,correct,v
174,2F4K,175,2,35.14830938817943,47.92588044685222,1.0384626164611532,50.61873849756837,2,b,0.9395544000003611,correct,b
175,2F4K,176,2,56.09311934962459,43.05580008263025,1.6052450839746353,46.31365632315244,1,v,2.06383679999999,correct,v
176,2F4K,177,1,59.170623496308856,40.85447579628144,1.711330853805538,44.362293304157866,2,n,1.9438022000003912,correct,n
177,2F4K,178,2,69.32208236108433,63.00446058334744,2.11354154460968,63.14625615157388,1,b,5.0,correct,v
178,2F4K,179,1,37.65389801099745,24.84028098478401,1.0940031865451585,30.77565264971151,2,c,1.6678549999996903,incorrect,n
179,2F4K,180,2,56.50938902351641,47.981593669318414,1.619200533742669,50.66768415587651,1,v,1.7194432999999663,correct,v
180,2F4K,181,1,48.66419477460452,28.3275947818278,1.375471114974785,33.576888935039726,2,c,2.7374777999998514,incorrect,n
181,2F4K,182,2,60.14021006583145,50.002364575456745,1.7461848647162714,52.4352530438863,1,v,1.418476499999997,correct,v
182,2F4K,183,1,54.62793303986732,42.429123885309735,1.5570745191496456,45.75790415780603,2,n,1.9654999999997926,correct,n
183,2F4K,184,1,53.80348557468167,62.27320735824483,1.5306077049955384,62.5869251735835,1,c,2.520570399999997,correct,c
184,2F4K,185,2,47.9704492681257,64.899915641678,1.355770963463908,64.56528738576546,2,b,1.7345651000000544,correct,b
185,2F4K,186,1,55.2500332659255,65.28235296150338,1.577348011301578,64.84598488051913,1,c,2.217841700000008,correct,c
186,2F4K,187,1,74.33397824678633,52.05688390054628,2.3457013555113204,54.21327992534732,2,n,1.4159310000000005,correct,n
187,2F4K,188,2,40.78234286523527,52.76324755022585,1.167538630983185,54.8191730095764,2,b,1.5802006999997502,correct,b
188,2F4K,189,2,56.35588008311292,43.021909895690754,1.6140400780863822,46.28360151693963,1,v,2.1123748999998497,correct,v
189,2F4K,190,2,48.93717811196896,36.24247673772349,1.3833012194176064,40.302197904101206,1,v,2.2655986999998277,correct,v
190,2F4K,191,1,71.24426217531844,58.57516864367378,2.199732150494464,59.66630110523608,2,n,1.8925497000000178,correct,n
191,2F4K,192,1,44.99420110986604,29.08889091962012,1.2744069442906325,34.20386836463472,2,n,2.1451781000000665,correct,n
192,2F4K,193,1,59.74132201959337,39.79528570714199,1.7317607873530705,43.42516923803864,2,n,1.9287908999999672,correct,n
193,2F4K,194,1,44.15967879926552,59.1780688395931,1.2524824289103238,60.15228318737418,1,c,1.91705439999987,correct,c
194,2F4K,195,1,46.74179258860027,27.531843008392123,1.321570856488876,32.92713378807508,2,n,1.6026124999998501,correct,n
195,2F4K,196,2,61.64112022404832,49.11057735203737,1.8015436489456635,51.65718825726143,1,v,2.804230899999766,correct,v
196,2F4K,197,2,40.96462969744013,65.5226530335485,1.1719726406932316,65.0213616194421,2,b,1.0973371000000043,correct,b
197,2F4K,198,2,58.93176700451222,40.90853071953418,1.7028519511873237,44.41016374282802,1,v,1.6315444000001662,correct,v
198,2F4K,199,2,63.71098043093523,52.286648946510994,1.88077779707774,54.41069362047516,1,v,1.5192142999999305,correct,v
199,2F4K,200,1,48.58282137050723,35.94732161778917,1.3731456313330626,40.0447556765541,2,n,2.4340517000000546,correct,n
200,2F4K,201,1,48.95653893617743,37.93164320905514,1.3838582444890404,41.78210605866923,2,n,3.192442000000028,correct,n
201,2F4K,202,1,43.71091595545142,49.598629219981554,1.240848927180557,52.08342411761088,1,n,2.8414496999998846,incorrect,c
202,2F4K,203,2,47.00953407741021,60.37592183100196,1.3289492595689014,61.106864631584926,2,b,1.505157699999927,correct,b
203,2F4K,204,1,72.66217359709786,52.87677285499662,2.265556088086868,54.91626511642533,2,n,1.6635109000003467,correct,n
204,2F4K,205,2,57.99775397945953,71.05347565471993,1.6700978356432767,68.82961090522836,2,b,5.0,correct,b
205,2F4K,206,2,55.96114470998271,63.41921291654013,1.6008457922618988,63.46061959228525,2,b,0.8685685999998896,correct,b
206,2F4K,207,2,48.53036808598836,63.64275565301753,1.3716487093210452,63.629173708324025,2,b,0.927773100000195,correct,b
207,2F4K,208,2,57.72686019126996,42.52248624508834,1.660716492052161,45.84069723875661,1,v,1.0488252000000102,correct,v
208,2F4K,209,2,69.41634827624726,56.63185160272772,2.1176885816594164,58.07643077927977,1,v,1.5358697000001484,correct,v
209,2F4K,210,2,52.42833397301344,63.48742926774499,1.487459119967988,63.51212148483776,2,b,1.7254862999998295,correct,b
210,2F4K,211,1,41.32204592196168,54.73751673900323,1.180715497122652,56.49537568044227,1,c,2.344500700000026,correct,c
211,2F4K,212,1,54.345576128793226,61.96272733242626,1.5479590255393956,62.34752436502322,1,c,1.7468155000001389,correct,c
212,2F4K,213,2,51.91590579252705,42.4909968463543,1.471693430406645,45.8127724274667,1,v,2.4477466000003005,correct,v
213,2F4K,214,2,32.10575254292738,42.82770287207303,0.9747962297905876,46.11137148333734,2,b,0.8428146999999626,correct,b
214,2F4K,215,2,58.21445509176081,42.95645234816902,1.677640566997601,46.22555153313927,1,v,1.1337373999999727,correct,v
215,2F4K,216,2,54.77281778602023,44.077710004944485,1.561772737120935,47.219733247677965,1,v,1.6071164999998473,correct,v
216,2F4K,217,2,72.96583570535532,61.29335035266092,2.2799071497222263,61.82760412915256,1,v,1.5586002000000008,correct,v
217,2F4K,218,1,76.44821451676003,58.29158330290013,2.4511290373408614,59.43648074306988,2,n,1.815759000000071,correct,n
218,2F4K,219,1,35.731538397555944,47.57640534891508,1.051133675169286,50.31148979627197,1,c,2.0456830999996782,correct,c
219,2F4K,220,1,58.924432250157885,73.24643642410219,1.7025922487285496,70.2083128129292,1,c,2.5326946999998654,correct,c
220,2F4K,221,2,42.63934293353719,56.097264845986864,1.2135051978136826,57.63320090863402,2,b,1.5525081999999202,correct,b
221,2F4K,222,1,50.342721188271526,61.4563893344206,1.4243282186288182,61.95471060804672,1,c,2.9088103999997657,correct,c
222,2F4K,223,2,37.45181136665104,51.436733002907616,1.0894155318415737,53.67893303746981,2,b,1.455400499999996,correct,b
223,2F4K,224,2,37.36305822375215,50.82826249029223,1.0874067937235508,53.152615121276746,2,b,2.252987100000155,correct,b
224,2F4K,225,2,50.01748243508819,63.83841452710748,1.4147277748159466,63.77619055760895,2,v,1.2915539000000535,incorrect,b
225,2F4K,226,1,39.76233740068599,27.436847547749387,1.1430354295258969,32.84996319186298,2,c,1.9713895999998385,incorrect,n
226,2F4K,227,1,53.24425815555659,46.09302380691776,1.512911654393632,49.00356917955886,2,n,2.1548655999999937,correct,n
227,2F4K,228,2,42.33035379795447,56.7593771564848,1.205733120929788,58.18180380345103,2,b,2.4879410999997162,correct,b
228,2F4K,229,2,68.54456822943928,57.52941524708906,2.079644666628976,58.81503955723397,1,v,2.0322007999998277,correct,v
229,2F4K,230,2,43.1304830528853,57.441339305865874,1.2259621952238076,58.74287969898078,2,b,2.374858900000163,correct,b
230,2F4K,231,1,55.93330070020456,37.195618066557806,1.5999191709810483,41.13597827691341,2,n,2.2990060000001904,correct,n
231,2F4K,232,2,48.00963609698251,56.456680172306655,1.3568761869942367,57.93146092082441,2,b,2.9816341999999167,correct,b
232,2F4K,233,1,33.060430288719346,54.65018283342406,0.9943412123199772,56.42180774152364,1,c,1.4190131999998812,correct,c
233,2F4K,234,1,53.62454424922134,38.969865230181725,1.5249229269767863,42.69636005280359,2,n,2.2701035000000047,correct,n
234,2F4K,235,2,37.73291728859402,54.008592776157286,1.095802286174958,55.87964121137251,2,b,1.2075889000002462,correct,b
235,2F4K,236,1,72.95281066110265,54.8391332009299,2.279289724635852,56.580903216029526,2,n,1.2808062999997674,correct,n
236,2F4K,237,1,33.79373999770293,46.23692501312186,1.009619863706651,49.13068208340039,1,c,1.4631681000000754,correct,c
237,2F4K,238,2,60.52990579213007,45.792624946988354,1.7603925529366182,48.738080481170975,1,v,2.113899500000116,correct,v
238,2F4K,239,1,57.22049723885058,44.05861467107146,1.6433216821314245,47.20280772224011,2,n,1.5441258000000744,correct,n
239,2F4K,240,1,45.2748972124914,64.5439183066534,1.2818672961914677,64.30226744557753,1,c,1.8819478999998864,correct,c
240,2F4K,241,1,45.11374233783696,62.31438630945264,1.2775787929113218,62.6185919737588,1,c,3.186348199999884,correct,c
241,2F4K,242,1,39.53704692379701,55.4846953643237,1.137693079350316,57.12241254554127,1,c,1.1033763999998882,correct,c
242,2F4K,243,1,57.2862635490588,41.3145448070296,1.645570580224154,44.76983490298368,2,n,1.7042867000000115,correct,n
243,2F4K,244,1,36.27427834130699,22.781668946607454,1.0630639231456729,29.183378204293614,2,n,2.4477262999998857,correct,n
244,2F4K,245,1,56.53039449590536,36.77193673339476,1.6199079493862771,40.7649163878596,2,n,1.346393899999839,correct,n
245,2F4K,246,1,46.71925055553466,37.2125000474533,1.3209515174329711,41.15077734168755,2,n,1.847741600000063,correct,n
246,2F4K,247,2,39.033156624603954,49.82199193822751,1.1258344491888652,52.27815924725407,2,b,3.1926659000000654,correct,b
247,2F4K,248,2,55.99582529210028,48.88884176174122,1.6020006784860477,51.46321927216092,1,v,2.124514199999794,correct,v
248,2F4K,249,1,58.132607859831054,46.873923621451226,1.6747877093182393,49.69280083457464,2,n,1.5613008999998783,correct,n
249,2F4K,250,2,34.30367986675323,43.19310312388541,1.0203827366399234,46.43541890814157,2,b,1.4736516000002666,correct,b
250,2F4K,251,2,56.35597701025922,42.17064925097681,1.6140433312573994,45.52870475982997,1,v,1.4484240000001591,correct,v
251,2F4K,252,1,33.06308569277322,50.59044593973477,0.9943961189463312,52.94639000237522,1,c,1.5100459000000228,correct,c
252,2F4K,253,2,31.774771733153138,50.45445071324768,0.9681101785497338,52.82833482647155,2,b,1.4948592999999164,correct,b
253,2F4K,254,1,61.00878392804152,44.782355355783935,1.7780100980405087,47.84407272089607,2,n,1.5053419000000758,correct,n
254,2F4K,255,1,63.98569747602253,47.19983860576728,1.891552638149324,49.98001138027451,2,n,1.2548386999997092,correct,n
255,2F4K,256,2,56.17800207196896,42.92269089540563,1.6080809826132945,46.19561060832596,1,v,1.510366200000135,correct,v
256,2F4K,257,1,39.32165846737585,60.682298411062646,1.132608886177256,61.34858302089871,1,c,1.2611964999996417,correct,c
257,2F4K,258,1,50.19797395411893,38.83060051112153,1.4200475300562931,42.57355281912822,2,n,1.8802615999998125,correct,n
258,2F4K,259,1,49.74808805906306,58.09185911832667,1.4068247699060203,59.27416016651007,1,c,2.4415915999998106,correct,c
259,2F4K,260,1,44.38624444447144,54.739967086904095,1.258397171683768,56.49743897427265,1,c,2.537202900000011,correct,c
260,2F4K,261,2,45.06661834029169,53.05524860091512,1.2763274862229288,55.06874051534848,2,b,3.1334382000000005,correct,b
261,2F4K,262,2,49.70373250318519,61.5978912572837,1.405527786324143,62.064782492034624,2,v,1.869634600000154,incorrect,b
262,2F4K,263,1,53.21018865740123,66.23824879444115,1.5118402036994232,65.53899021609564,1,c,2.415803700000197,correct,c
263,2F4K,264,2,48.71822716752572,36.14685608030453,1.3770174243722122,40.2187540117226,1,v,1.5177849000001515,correct,v
264,2F4K,265,2,47.28727992863557,39.19070864884098,1.33664689691961,42.89120369121278,1,v,2.031971500000054,correct,v
265,2F4K,266,1,29.06961784095671,38.49902137842649,0.915155327605752,42.281361989429165,1,c,1.8224620000000868,correct,c
266,2F4K,267,2,54.818494629986496,70.48557635104852,1.5632568499174049,68.45986805047383,2,v,2.4715320999998767,incorrect,b
267,2F4K,268,2,45.073187397713625,50.94886001846048,1.2765018440943905,53.257083615692856,2,b,2.3202156000002105,correct,b
268,2F4K,269,2,36.29170364152349,48.57246570170783,1.0634491930191512,51.18613530249828,2,b,1.085180600000058,correct,b
269,2F4K,270,1,61.88091626736978,47.828938334332825,1.8105493339950207,50.533548188266856,2,n,2.3794207000000824,correct,n
270,2F4K,271,1,33.54574716308415,44.92020480820352,1.0044267908338198,47.96614736026723,1,c,1.4796940000001086,correct,c
271,2F4K,272,1,44.4746789366134,62.56259740834027,1.2607134221412797,62.80904235881192,1,c,1.3643765000001622,correct,c
272,2F4K,273,2,54.48541188633303,65.10353563977,1.552466735768416,64.71497947955952,2,b,3.118605099999968,correct,b
273,2F4K,274,2,54.60514723889364,72.1389674963034,1.556336924888469,69.5219299099054,2,b,0.9516730999998799,correct,b
274,2F4K,275,2,59.518694855648455,42.308357323201335,1.723762299359865,45.65081284752351,1,v,1.7408884000001308,correct,v
275,2F4K,276,1,69.85370052668632,55.68539254622159,2.1370357101145485,57.29009668211206,2,n,2.0714162999997825,correct,n
276,2F4K,277,1,55.40468857280682,41.08782713197604,1.5824288755426636,44.5689722120871,2,n,2.8785585999999057,correct,n
277,2F4K,278,2,53.903857796342606,68.33848294314804,1.5338056975815604,67.01670467030677,2,b,2.1973281000000497,correct,b
278,2F4K,279,1,47.642575774066806,36.98665850048573,1.3465588411041691,40.9528865661008,2,n,1.9027100000002974,correct,n
279,2F4K,280,1,48.56622059341319,30.8782634575358,1.3726716985230507,35.696674133068626,2,n,2.071427500000027,correct,n
280,2F4K,281,2,61.94880426525672,49.84614437880643,1.8131070755569731,52.2992030272592,1,v,2.834353299999748,correct,v
281,2F4K,282,1,49.72593609199308,57.802011743129626,1.406176883307101,59.037925536038735,1,n,3.992224999999962,incorrect,c
282,2F4K,283,1,34.12865612670747,48.42695231719422,1.0166757868223106,51.05857007229951,1,c,1.285514400000011,correct,c
283,2F4K,284,1,44.87974724830647,33.06852767210253,1.2713774608232338,37.556354543696095,2,c,2.597849600000245,incorrect,n
284,2F4K,285,2,57.21690762310936,42.48317081897535,1.643199022669972,45.80583233861649,1,v,3.527781700000105,correct,v
285,2F4K,286,2,46.42302874105254,60.46963063566743,1.3128397826354925,61.18090473173141,2,b,2.56147830000009,correct,b
286,2F4K,287,2,44.74615241177285,61.42714442245224,1.267850441853858,61.93193314956154,2,b,0.8320505000001504,correct,b
287,2F4K,288,2,59.36950407725355,76.32796338222984,1.7184228977970892,72.00787491499575,2,v,2.167011399999865,incorrect,b
288,2F4K,289,2,58.65224924832323,69.70644708327187,1.6929829893095325,67.94434844323851,2,b,1.1730575000001409,correct,b
289,2F4K,290,1,34.073527526193665,54.09251833658722,1.0155109710106054,55.95072907769242,1,c,3.1805325000000266,correct,c
290,2F4K,291,2,43.72168732525093,56.52009580473112,1.2411268890347305,57.983973214895286,2,b,4.356362200000149,correct,b
291,2F4K,292,2,42.43991962062324,29.84674807526785,1.208483343510864,34.832959682985845,1,v,1.8797346000001198,correct,v
292,2F4K,293,2,42.91521723902726,60.88421998392278,1.2204866521475497,61.5073319109447,2,b,2.597883599999932,correct,b
293,2F4K,294,1,46.294691743314175,60.074839568065975,1.3093408873168602,60.86834109748065,1,c,2.1199824000000262,correct,c
294,2F4K,295,2,50.83616987064013,71.157848489778,1.4390184567666735,68.89700630228097,2,b,2.60398239999995,correct,b
295,2F4K,296,2,53.51440072058034,39.43092106299036,1.52143428547573,43.10326571137241,1,v,1.742167999999765,correct,v
296,2F4K,297,2,33.72970868369546,53.7910914937613,1.008276455743284,55.69518074816218,2,b,4.222833900000296,correct,b
297,2F4K,298,1,49.0226552453309,62.15824467013736,1.3857621504868904,62.49841276764823,1,c,2.0258765000003223,correct,c
298,2F4K,299,2,49.42120778629164,41.37807219413751,1.3972946084498898,44.82612703440071,1,v,1.573772199999894,correct,v
299,2F4K,300,2,42.41783544221486,55.69610684973185,1.2079285020386024,57.29903951700702,2,v,1.7952933000001394,incorrect,b
300,2F4K,301,1,59.819163744699,41.22824773365822,1.734566211994259,44.69337279114028,2,n,2.2966213999998217,correct,n
301,2F4K,302,1,36.411185090533706,52.040337575680205,1.0660946674411098,54.199051390651086,1,c,2.273918700000195,correct,c
302,2F4K,303,2,61.46745613987585,70.26869809206421,1.7950495697642057,68.31731994091783,2,v,1.9303450000002158,incorrect,b
303,2F4K,304,2,63.20831864013951,51.74808852285946,1.8612212439550424,53.94748034748085,1,b,1.9160572000000684,incorrect,v
304,2F4K,305,1,70.18791829156095,49.52340907872605,2.15193954543524,52.0177960989294,2,n,2.1062345999998797,correct,n
305,2F4K,306,1,57.781861554028346,42.78032055766589,1.6626169752918467,46.06935100772428,2,n,3.2108657000003404,correct,n
306,2F4K,307,1,41.3932597626378,29.907000018523643,1.1824652551316852,34.88317837266748,2,c,2.5007519000000684,incorrect,n
307,2F4K,308,2,39.52477226918328,32.533510539235124,1.1374027267710438,37.09910242283325,1,v,2.6479770000000826,correct,v
308,2F4K,309,1,47.98947316636444,40.68410082038765,1.3563074001397428,44.21143612830457,2,n,2.245855399999982,correct,n
309,2F4K,310,1,48.74026794701407,64.50589359391677,1.377648690706637,64.27407627827716,1,c,1.7892029999998158,correct,c
310,2F4K,311,1,35.25360080710901,44.56764474770731,1.040738793751517,47.65388646752754,1,n,2.156422100000327,incorrect,c
311,2F4K,312,2,46.33561634240377,30.86262058910465,1.310455614740542,35.68351451765213,1,v,1.9348565999998755,correct,v
312,2F4K,313,1,42.720835707532174,62.87202634204062,1.2155633405302573,63.04543438632631,1,c,2.424153799999658,correct,c
313,2F4K,314,2,29.66690237032398,47.70553417154488,0.9265926034058828,50.42506058186463,2,b,2.694129900000007,correct,b
314,2F4K,315,1,49.80422817084475,36.38583148251991,1.4084680572770911,40.427369226245645,2,n,1.5419565000001967,correct,n
315,2F4K,316,2,34.957796062917126,51.9211021038608,1.0343567674857606,54.096471371525794,2,b,3.0295627000000422,correct,b
316,2F4K,317,1,58.58361883961388,44.81332054691869,1.6905686070289545,47.87149650898,2,n,2.3612081000001126,correct,n
317,2F4K,318,1,66.13858815540168,55.028937455282815,1.9781579761598505,56.7404471848651,2,n,2.3259659000000283,correct,n
318,2F4K,319,1,62.71570850192752,44.66989533826107,1.842253066470043,47.74446463507406,2,n,2.1322158000002673,correct,n
319,2F4K,320,2,28.054449650540107,43.28036862517936,0.896039035780446,46.51280537777373,2,b,2.3657944000001407,correct,b
320,2F4K,321,1,56.41683773796265,52.11871477153128,1.616087298300484,54.26643545726498,2,c,5.0,correct,n
321,2F4K,322,1,57.01121288237536,42.832375910139206,1.6361855743986846,46.11551571828931,2,c,0.7759006000001136,incorrect,n
322,2F4K,323,2,75.18884664313461,54.5938785897437,2.3877725197277044,56.37434843585824,1,v,1.8438524000002872,correct,v
323,2F4K,324,2,52.52190759073593,34.76995297726724,1.490356248548123,39.02179690854635,1,b,2.8894743000000744,incorrect,v
324,2F4K,325,2,38.74894378885544,46.70756239045072,1.1192003460326856,49.54608944525269,2,b,1.0669894000002387,correct,b
325,2F4K,326,2,52.72339602554962,39.1199495507816,1.4966136938263173,42.82876223828705,1,b,1.6557049000002735,incorrect,v
326,2F4K,327,2,41.03342287513984,55.66166558870951,1.1736503635805242,57.27028938321627,2,b,1.1110481000000618,correct,b
327,2F4K,328,1,54.40070214902322,42.13821582566425,1.5497344890831228,45.499946642670665,2,n,2.1070780000000013,correct,n
328,2F4K,329,1,64.19257982589603,48.51869993388454,1.8997076217007092,51.139010093393566,2,n,1.8939242999999806,correct,n
329,2F4K,330,2,42.13679471676704,56.4756655482042,1.2008898613585186,57.9471856417598,2,b,2.7124761000000035,correct,b
330,2F4K,331,2,56.3387206496554,69.43960687184264,1.613464258418273,67.76562850652532,2,v,1.7892033999996784,incorrect,b
331,2F4K,332,2,37.14777525912831,51.08715994750369,1.0825496977347375,53.37679487118272,2,b,1.5100074000001769,correct,b
332,2F4K,333,2,54.699290484996,66.08709263663864,1.5593866779402552,65.4302340456701,2,b,1.8316921999999067,correct,b
333,2F4K,334,2,35.33892590521235,54.26475782999278,1.0425870006779896,56.09646547116344,2,b,2.561500700000124,correct,b
334,2F4K,335,2,66.33359598275398,52.775836049340136,1.986195838733397,54.829943272858365,1,v,1.456968599999982,correct,v
335,2F4K,336,1,69.27428082818679,55.77946987668056,2.1114417176810725,57.36858799303307,2,n,2.016434300000128,correct,n
336,2F4K,337,2,39.40400162148266,57.34729536488041,1.1345498884694514,58.66575267854228,2,b,1.8210936000000402,correct,b
337,2F4K,338,2,34.26940010395825,48.157591348920505,1.0196556388126627,50.82223589080831,2,b,1.664710600000035,correct,b
338,2F4K,339,2,33.55671307993245,22.52236441265749,1.0046558562204304,28.98636197496777,1,v,2.7511576000001696,correct,v
339,2F4K,340,1,63.49042830750301,78.49010423258405,1.8721718249148305,73.16967480058267,1,n,1.6071263999997427,incorrect,c
340,2F4K,341,1,46.502490695160624,65.47782085011931,1.3150108662072006,64.98870078593474,1,c,2.7374839999997675,correct,c
341,2F4K,342,2,55.52103798154043,43.69321849974045,1.586262067527778,46.87888272418146,1,v,4.781130700000176,correct,v
342,2F4K,343,2,52.39744641490081,67.48550195711589,1.4865040485104402,66.42418324782915,2,b,1.788566499999888,correct,b
343,2F4K,344,1,66.45593185000698,54.84722005393692,1.9912549602047895,56.58770634882621,2,n,1.9439601999997649,correct,n
344,2F4K,345,2,32.07336128703771,49.77081256822669,0.974139869814234,52.23355863648938,2,b,2.2580677999999352,correct,b
345,2F4K,346,1,64.07011747724827,44.42478097248256,1.894876108060661,47.52731227520618,2,n,2.848217400000067,correct,n
346,2F4K,347,1,58.80782338189856,44.63266745022961,1.6984687818271038,47.71148786902023,2,c,2.0986893999997847,incorrect,n
347,2F4K,348,2,57.90193777250287,40.05346131022597,1.6667735753505213,43.65341778496169,1,v,5.0,incorrect,v
348,2F4K,349,1,30.210627227491305,48.69758958982152,0.9371285171955296,51.2957642728206,1,c,3.622203399999762,correct,c
349,2F4K,350,2,60.34930044760023,45.40820097292728,1.7537936524787814,48.39808638895671,1,v,4.247083400000065,correct,v
350,2F4K,351,1,42.4499832458018,61.24737603501382,1.2087362659027605,61.79170805537082,1,c,2.4693978000000243,correct,c
351,2F4K,352,1,44.44754932004258,27.137697622211057,1.2600023981555786,32.607510861089,2,n,1.831863500000054,correct,n
352,2F4K,353,2,59.22145137897508,50.101323036743366,1.713140577388434,52.521377337460805,1,v,2.373321699999906,correct,v
353,2F4K,354,1,38.14546996745241,44.148686739067294,1.105243384532716,47.2826423382969,1,c,1.8754698000002463,correct,c
354,2F4K,355,2,38.27100798911899,59.18152728692481,1.1081323802911822,60.15506051648833,2,b,1.728882700000213,correct,b
355,2F4K,356,1,47.52409545710636,33.28548500575344,1.3432453685570858,37.74228726261008,2,n,2.233794499999931,correct,n
356,2F4K,357,1,36.38732928185,51.14031596528545,1.065565943574691,53.42277977320986,1,c,3.8103891999999178,correct,c
357,2F4K,358,2,47.94776056625104,35.54080029521659,1.355131463908197,39.690807695112674,1,v,1.9773402000000715,correct,v
358,2F4K,359,2,56.6070047649314,39.97946438179631,1.6224906259142615,43.58798567450575,1,v,1.84687090000034,correct,v
359,2F4K,360,1,34.88660468817782,50.58814688713619,1.0328266561449813,52.94439498441152,1,c,2.075987300000179,correct,c
360,2F4K,361,2,51.355137638594464,34.26581511606992,1.454631909249133,38.58589355617524,1,v,3.6840516000002026,correct,v
361,2F4K,362,1,59.82112348726094,44.25109492049017,1.7346368999581137,47.373402779384406,2,n,2.082009400000061,correct,n
362,2F4K,363,1,73.74765235855452,62.3891625875624,2.317275491798845,62.67604409347182,2,n,1.373282300000028,correct,n
363,2F4K,364,2,58.69839722907474,46.60756244155043,1.6946083898827673,49.45786804688003,1,v,1.5343120000002273,correct,v
364,2F4K,365,2,37.01335446753046,54.56857659397141,1.0795279780170546,56.35301355520152,2,b,1.2974161999995886,correct,b
365,2F4K,366,1,61.95049126854016,45.355443059386175,1.813170680916816,48.35140632353065,2,n,2.8587926000000152,correct,n
366,2F4K,367,2,48.590528973350445,62.08819678712912,1.3733657300178057,62.444405337232375,2,b,1.6374760999997306,correct,b
367,2F4K,368,1,44.38651937519456,58.13378270133732,1.258404365990747,59.30826384725608,1,c,1.6253587999999581,correct,c
368,2F4K,369,2,52.99529473840054,41.2493610172921,1.505099476511025,44.712079168574206,1,v,2.0950717000000623,correct,v
369,2F4K,370,1,59.75605708963775,53.74912956840599,1.7322914925728443,55.65955559331709,2,n,1.9834155999997165,correct,n
370,2F4K,371,2,54.75850725140149,35.87922345442868,1.5613080551798575,39.98541245941199,1,v,1.6213243000001967,correct,v
371,2F4K,372,2,61.14134419087657,75.96302138796719,1.7829179674935065,71.80344250082366,2,v,1.9501024000001053,incorrect,b
372,2F4K,373,2,57.290658047689824,42.790987015468815,1.64572096102972,46.07881042931921,1,v,1.3188548999996783,correct,v
373,2F4K,374,2,25.2476319816792,36.53894094222828,0.8452376632873356,40.56115150706243,2,b,1.1823178999998163,correct,b
374,2F4K,375,2,51.76314902915148,35.024733202210165,1.467026031372889,39.24259449990285,1,v,1.6193929000000935,correct,v
375,2F4K,376,2,68.43604900933512,53.69384430306072,2.074957044504026,55.61260064097939,1,b,1.3578529999999773,incorrect,v
376,2F4K,377,2,24.3334799565247,46.54071897318416,0.8293220743667773,49.398884354211184,2,b,1.0123677999999927,correct,b
377,2F4K,378,2,32.16615559376562,48.85702273422212,0.9760213880906864,51.4353690692238,2,b,0.7445136999999704,correct,b
378,2F4K,379,1,30.852895583036727,44.50835456770061,0.9497283781609078,47.60135926866992,1,c,1.2119599000002381,correct,c
379,2F4K,380,2,47.9843685991653,31.180452325416397,1.356163440509228,35.95125002528503,1,v,1.2733428000001368,correct,v
380,2F4K,381,1,57.4173340758147,45.30287251705555,1.6500617580572408,48.30488761308799,2,n,2.3854748999997355,correct,n
381,2F4K,382,2,72.61842563283508,61.29969552044007,2.263496018663702,61.83255647782259,1,b,2.88525030000028,incorrect,v
382,2F4K,383,2,56.8728078007075,69.3123252436209,1.6314833159037103,67.67999554337933,2,b,1.1847419000000627,correct,b
383,2F4K,384,1,40.18688376582341,59.03667363169754,1.1531710411949063,60.03863201355413,1,c,1.3340204999999514,correct,c
384,2F4K,385,2,45.77549804141812,52.27773986542408,1.295280846631271,54.40304477864058,2,b,1.588932300000124,correct,b
385,2F4K,386,1,63.61417722858954,51.007383717422826,1.8769956632430755,53.30775332998435,2,n,2.896698500000184,correct,n
386,2F4K,387,2,53.51714676800237,33.5432561407743,1.5215211655827448,37.963567514347616,1,v,2.700090700000146,correct,v
387,2F4K,388,1,52.47554865269407,61.992217438930034,1.4889202269469548,62.37031155721576,1,c,3.169883999999911,correct,c
388,2F4K,389,2,37.957833800884,49.166365345871135,1.1009393652803603,51.70595966561277,2,b,1.4554843000000801,correct,b
389,2F4K,390,2,25.817614675273752,42.62328254026673,0.8553154113310414,45.93008476495208,2,b,0.8970546999998987,correct,b
390,2F4K,391,1,57.8050497578914,69.0912685285031,1.6634188578097064,67.53068583570138,1,c,2.270171399999981,correct,c
391,2F4K,392,1,40.39738256871856,52.69899705590012,1.1582297644034076,54.76418718508446,1,c,1.4493843999998717,correct,c
392,2F4K,393,2,35.935314491561215,42.116229065389504,1.0555972042089323,45.48045166419002,2,b,1.0912945999998556,correct,b
393,2F4K,394,2,32.678043398250935,46.8298638529095,0.9864660476129228,49.65395201012415,2,b,1.6071662000003926,correct,b
394,2F4K,395,1,35.518755294947866,50.596035515175465,1.046492998129364,52.95124028471447,1,c,1.0868141999999352,correct,c
395,2F4K,396,2,49.13892459810591,30.84771132283073,1.3891166349146469,35.67097376295881,1,b,4.679535500000384,incorrect,v
396,2F4K,397,2,23.49525306120889,40.14237527889763,0.8149918807324551,43.73205333470805,2,b,0.7769919000002119,correct,b
397,2F4K,398,1,56.8579783222053,46.22512618366675,1.6309802924075198,49.120261430072205,2,n,2.2102073999999448,correct,n
398,2F4K,399,2,50.62164545640291,36.83088982689779,1.4326134220122877,40.81650712504359,1,v,2.0333534000001237,correct,v
399,2F4K,400,2,43.13543161508556,52.44832765964892,1.2260883562382714,54.549419233078616,2,b,1.6487778000000617,correct,b
