,condition,trial,sub_task,x,y,xt,yt,cat,resp,rt,acc,correct_resp
0,4F4K,1,1,70.13662358928961,50.02106651504281,2.149645417160265,52.55397983382272,2,c,5.0,NA,n
1,4F4K,2,2,42.29554596315409,65.12643327577084,1.2048607167206826,64.877946199914,2,v,1.5769011000011233,incorrect,b
2,4F4K,3,1,32.69060202465276,45.86343202006226,0.9867236961661742,48.89012371819874,1,n,2.2085026999993715,incorrect,c
3,4F4K,4,2,48.77878425158932,59.23645578449986,1.378752524643031,60.32918553907122,2,b,2.6169592999995075,correct,b
4,4F4K,5,2,38.17314514122715,52.34382938592418,1.105879623065976,54.56937105355664,2,v,4.715935600001103,incorrect,b
5,4F4K,6,1,50.34808647054373,39.44200155223957,1.4244871368139609,43.182250300970736,2,n,3.344341300000451,correct,n
6,4F4K,7,2,52.35641210567109,43.50379397012817,1.485236178691333,46.79293594589156,1,v,1.3766826999999466,correct,v
7,4F4K,8,2,44.00888718078107,26.699823730212263,1.2485612663601977,32.284739731800634,1,v,1.4850096000009216,correct,v
8,4F4K,9,1,34.93416009203128,54.40370828392832,1.0338485099813544,56.32972196651775,1,n,2.8156211000004987,incorrect,c
9,4F4K,10,2,70.40153569517197,50.283381798014304,2.161519828698674,52.782965361585816,1,v,1.779978000000483,correct,v
10,4F4K,11,2,38.21159214872788,55.35407183748678,1.1067641085934643,57.13179135532496,2,v,2.5007652999993297,incorrect,b
11,4F4K,12,1,32.87794816903401,44.36342201906636,0.9905752259455658,47.55766502817162,1,c,2.731363599999895,correct,c
12,4F4K,13,2,55.0899140900664,44.0899472181536,1.572104831211108,47.31443876876117,1,v,3.1576671000002534,correct,v
13,4F4K,14,1,37.37982251076624,23.414960912700103,1.0877859336712548,29.689281718751328,2,c,2.4268107999996573,incorrect,n
14,4F4K,15,1,79.13469838304555,65.45953075377486,2.59195550354416,65.12240340682969,2,n,3.051962800000183,correct,n
15,4F4K,16,1,55.7085184782148,36.0154892557968,1.5924582554946558,40.16266699557756,2,n,5.0,correct,n
16,4F4K,17,2,55.49799709552054,39.66334080571709,1.5855022369015772,43.37846440817878,1,v,1.4312301999998454,correct,v
17,4F4K,18,1,45.41636793475413,59.34601782297074,1.28564384685092,60.4173595458357,1,c,2.158804099999543,correct,c
18,4F4K,19,2,49.38995330552202,59.95258149246461,1.3963867756555588,60.90327848432246,2,v,1.6315061999994214,incorrect,b
19,4F4K,20,2,43.59240030281319,25.734551679164312,1.237794665129386,31.509954923492685,1,v,1.8682412999987719,correct,v
20,4F4K,21,2,70.1423145703069,52.939230761115006,2.149899822591978,55.08105933713749,1,b,1.8318077999992965,incorrect,v
21,4F4K,22,1,61.75218743126689,44.29252231412431,1.8057092624379527,47.49461383575828,2,c,2.197338199999649,incorrect,n
22,4F4K,23,2,31.77644671308048,49.48245360619519,0.968143898635628,52.08282862473994,2,v,1.6547796999984712,incorrect,b
23,4F4K,24,2,49.332528653405646,28.22497005011317,1.3947203285109244,33.52771463828544,1,b,2.7691930000000866,incorrect,v
24,4F4K,25,1,57.4927801276603,44.856141284001474,1.652652499963582,47.99569378978639,2,n,1.5783376999988832,correct,n
25,4F4K,26,2,28.008325369976063,40.656348091222846,0.8951800321570255,44.25988899932048,2,v,3.744934700000158,incorrect,b
26,4F4K,27,2,40.613734914874414,24.80646654379929,1.163452287155145,30.774285591690848,1,v,2.5614915000005567,correct,v
27,4F4K,28,2,55.74111956729456,37.58643329099317,1.5935381817445204,41.54221328694265,1,b,1.466404099999636,incorrect,v
28,4F4K,29,1,56.23230521389724,41.042859597363,1.609897856638392,44.60338062712939,2,n,1.6197155000008934,correct,n
29,4F4K,30,2,36.58937509093671,47.56108612294648,1.0700522562756034,50.3927927765082,2,b,2.1661339000002044,correct,b
30,4F4K,31,1,62.34553499459711,69.06447058264283,1.828126685645667,67.66860256475604,1,c,2.549330600000758,correct,c
31,4F4K,32,1,44.16991311616612,27.3968501201052,1.2527490063739728,32.850041858773054,2,n,1.667884700000286,correct,n
32,4F4K,33,2,30.10644827533072,41.71438656262994,0.9351005752198072,45.200557442018,2,b,2.092025800000556,correct,b
33,4F4K,34,1,68.85004314236247,51.59945469775485,2.092896973654209,53.92666586669613,2,n,3.1805148999992525,correct,n
34,4F4K,35,2,50.24602899894095,65.00643501689683,1.4214672595071702,64.78951780613977,2,v,1.5465769999991608,incorrect,b
35,4F4K,36,1,36.78983240169801,46.318419274332,1.0745219634503054,49.29352908903172,1,n,2.8224228999988554,incorrect,c
36,4F4K,37,2,51.62389455740905,64.1494487737377,1.4627840862952006,64.15249914840658,2,b,1.320840500000486,correct,b
37,4F4K,38,2,53.083887940918565,43.035143696706726,1.5078747923940916,46.37586692303636,1,v,1.0488937000009173,correct,v
38,4F4K,39,2,55.46444999904392,68.95711221167085,1.5843965885033648,67.59551873505937,2,b,2.809578300000794,correct,b
39,4F4K,40,2,23.223385028037743,37.51237429695338,0.8103974562758923,41.4769708440822,2,v,3.417234800001097,incorrect,b
40,4F4K,41,1,40.48904761983309,49.2663368149016,1.1604395960906826,51.89342963605563,1,c,4.271326500000214,correct,c
41,4F4K,42,2,56.56627894695682,67.7356835941305,1.6211171696152231,66.75188700582171,2,v,3.089439000001221,incorrect,b
42,4F4K,43,1,67.00045981128389,46.67198213471197,2.013930356230276,49.60669387009542,2,n,1.8671638000014354,correct,n
43,4F4K,44,1,63.19970143379904,47.62832862140177,1.860887762030608,50.45215366420635,2,n,1.3463171999992483,correct,n
44,4F4K,45,2,51.46323889102237,65.7030218623816,1.4579054576665451,65.30015440500958,2,v,1.4068541999986337,incorrect,b
45,4F4K,46,2,52.21836234856106,32.43023576910781,1.4809786785153014,37.058525379133904,1,b,3.289745699999912,incorrect,v
46,4F4K,47,2,39.04035937475745,52.01926876040761,1.1260030858999668,54.289535596349815,2,v,0.6362718999989738,incorrect,b
47,4F4K,48,1,44.145174303969256,60.392859447842525,1.2521047215164798,61.25356402484316,1,n,1.8005641999989166,incorrect,c
48,4F4K,49,2,44.06433899276631,57.94585595978946,1.25000179776136,59.28157528410576,2,v,3.4607520999998087,incorrect,b
49,4F4K,50,2,44.844265920970415,56.29218029914654,1.2704397673836458,57.91655690329934,2,b,0.7272821000005933,correct,b
50,4F4K,51,1,40.29056501268872,58.183628733292615,1.1556599495547215,59.47579352851371,1,n,1.6982662999998865,incorrect,c
51,4F4K,52,2,48.36954530989803,56.91333565711521,1.3670692818540795,58.432130644892986,2,b,2.6403594999992492,correct,b
52,4F4K,53,1,38.584287982551245,25.03752294465451,1.1153748450436696,30.95656371820573,2,c,1.157262600001559,incorrect,n
53,4F4K,54,1,26.287679455776555,40.0529190098854,0.8637168760708627,43.72405985543514,1,n,1.2734584999998333,incorrect,c
54,4F4K,55,2,65.21329268371986,53.357801925120576,1.9404601161020405,55.43943073952783,1,v,0.8597091999999975,correct,v
55,4F4K,56,1,42.83714247594901,59.19464333888144,1.2185067764268165,60.29550334980982,1,c,1.8681796999990183,correct,c
56,4F4K,57,2,34.08785794401595,55.403703545475096,1.015813630920405,57.17348795851341,2,b,1.351415299999644,correct,b
57,4F4K,58,2,51.929632661759335,69.07060496817363,1.4721135738088087,67.6727732438682,2,v,0.8000890000002983,incorrect,b
58,4F4K,59,1,36.05125914095872,47.86211275644426,1.0581453208620235,50.65842664079807,1,n,1.1511335999985022,incorrect,c
59,4F4K,60,1,56.90898602254009,47.51503682487889,1.6327111507121894,50.3521331156682,2,c,0.8126382999998896,incorrect,n
60,4F4K,61,1,57.58524879453432,38.97902395577,1.655833329984515,42.7721828929456,2,c,2.342984900000374,incorrect,n
61,4F4K,62,2,31.951320276619438,52.19527260935394,0.9716708596631204,54.44136322354773,2,b,1.340254400000049,correct,b
62,4F4K,63,2,60.78850398563773,71.82748247643426,1.769884382592608,69.48774661190123,2,v,2.822526199999629,incorrect,b
63,4F4K,64,1,61.85922497475157,72.53227800226142,1.8097328558400767,69.93212731089265,1,c,2.251987999999983,correct,c
64,4F4K,65,2,32.95214932379437,49.05639166083508,0.9921048332071738,51.70925589786754,2,v,2.585616600001231,incorrect,b
65,4F4K,66,2,43.20622154347229,36.05432039255858,1.2278945304800974,40.19664711461644,1,b,2.7556834000006347,incorrect,v
66,4F4K,67,1,49.27978445957179,66.82611161951333,1.3931914591988268,66.10947589624338,1,n,2.056571900000563,incorrect,c
67,4F4K,68,2,40.27684850939826,56.431163630169294,1.1553303715230174,58.03220358903816,2,b,3.9452029000003677,correct,b
68,4F4K,69,2,55.4011189239774,70.94445251028517,1.5823114181678255,68.91953214263657,2,v,2.5738230000006297,incorrect,b
69,4F4K,70,1,31.352145111421176,46.374150086337416,0.9596394375983722,49.34291127563743,1,c,2.159896299999673,correct,c
70,4F4K,71,1,71.45833763967119,53.81399464437004,2.209546249129447,55.82868450869858,2,n,2.6646928999998636,correct,n
71,4F4K,72,1,41.026697249254894,29.47111522294249,1.1734862336482028,34.55915799910502,2,n,3.2593919999999343,correct,n
72,4F4K,73,1,51.61827355010664,61.26237456493801,1.462613117948848,61.93916340444464,1,c,2.28355030000057,correct,c
73,4F4K,74,1,54.7885586924774,69.90081330306954,1.5622840248507492,68.23190306029642,1,n,5.0,correct,c
74,4F4K,75,2,48.521313434963,37.69906643355504,1.3713904711443967,41.64147314255719,1,v,3.4960829999999987,correct,v
75,4F4K,76,2,47.0205831563736,61.42354178004744,1.3292546328849542,62.06531620588211,2,b,1.3114215999994485,correct,b
76,4F4K,77,1,78.90799702830773,60.11823322646951,2.579765463946226,61.03531347760216,2,c,2.086671099999876,incorrect,n
77,4F4K,78,2,63.92787482550951,42.70738276484238,1.8892796243450083,46.08416158877103,1,b,1.9774268999990454,incorrect,v
78,4F4K,79,1,58.35652823067527,46.70072314451133,1.682604195763952,49.63213785713104,2,c,1.3219845999992685,incorrect,n
79,4F4K,80,1,33.25831845223291,57.0664271989675,0.998441325396942,58.55868485428447,1,n,0.7999280999993061,incorrect,c
80,4F4K,81,2,62.9935621402236,43.96756742658216,1.852928052861794,47.20557518664762,1,v,3.162940599999274,correct,v
81,4F4K,82,2,61.36805439179047,44.74373361846817,1.7913430321011954,47.89578777629119,1,b,0.43594449999909557,incorrect,v
82,4F4K,83,1,57.64303043169018,41.67847389137695,1.6578240680230696,45.16861083106247,2,c,0.8789726000013616,incorrect,n
83,4F4K,84,1,56.78444787252738,70.392240646318,1.6284883920620543,68.55783375848252,1,n,0.7756578999997146,incorrect,c
84,4F4K,85,1,33.53880103218849,24.93501994860645,1.0042817211707664,30.875627593986188,2,c,0.4434292000005371,incorrect,n
85,4F4K,86,1,58.76356142310272,43.45801663420357,1.6969062277124105,46.75219997898636,2,c,2.4340339999998832,incorrect,n
86,4F4K,87,2,39.85144654025088,56.55721326674102,1.1451554062265992,58.136946267749735,2,b,3.4535774999985733,correct,b
87,4F4K,88,1,59.4725125736355,72.93913591353576,1.722107707186726,70.18490073987643,1,c,1.8560710000001563,correct,c
88,4F4K,89,1,54.77273224687932,69.72789799235355,1.5617699591413423,68.11632364189914,1,n,2.414460500000132,incorrect,c
89,4F4K,90,2,46.54922382988334,37.42999355400345,1.3162893994035396,41.4044194173318,1,v,3.291154099999403,correct,v
90,4F4K,91,2,50.407389705087766,35.75490748933816,1.426244863868984,39.93481105539469,1,b,1.4615954000000784,incorrect,v
91,4F4K,92,1,58.343887179789256,70.54435292410582,1.6821619590604326,68.65795013493279,1,n,2.5007857000000513,incorrect,c
92,4F4K,93,2,59.44168608819128,47.4487195518837,1.721004157602717,50.29356654021683,1,b,3.0276552999985142,incorrect,v
93,4F4K,94,1,28.00672945341901,43.680578152376334,0.8951503250694729,46.95024249283593,1,c,2.465650699999969,correct,c
94,4F4K,95,1,40.60830676628008,55.27009165193093,1.1633209696838975,57.061193833194686,1,n,2.633225000001403,incorrect,c
95,4F4K,96,1,50.060189475770656,41.05307103243575,1.415984707241997,44.61245802568825,2,c,2.750454400000308,incorrect,n
96,4F4K,97,1,63.477319450742826,49.81391063205733,1.8716615572507087,52.37292210197438,2,n,5.0,incorrect,n
97,4F4K,98,1,45.37143451307544,56.20179199695842,1.2844431482518353,57.84125827143699,1,c,3.053171300000031,correct,c
98,4F4K,99,1,55.672309562251925,44.10768486981532,1.5912596761034337,47.33021643176452,2,c,3.692737599998509,incorrect,n
99,4F4K,100,1,40.82530388569151,35.23488883780406,1.168582116838299,39.48103209682439,2,c,1.455486099999689,incorrect,n
100,4F4K,101,2,74.7083005120467,52.08256718772285,2.364031100578923,54.34416018412005,1,b,1.7105135999991035,incorrect,v
101,4F4K,102,1,56.90063959491216,47.7636915535311,1.6324278034509674,50.57160831418905,2,n,1.8676040999998804,correct,n
102,4F4K,103,2,47.2623281783192,57.10755071271965,1.3359535481284848,58.59264452934364,2,v,3.4171726999993552,incorrect,b
103,4F4K,104,1,72.21671403543864,55.958161431558,2.244666978806276,57.63796081847041,2,n,3.3397115000007034,correct,n
104,4F4K,105,1,49.86641063756942,33.10219810134845,1.4102904521127189,37.63471005337649,2,c,3.9522907999999006,incorrect,n
105,4F4K,106,2,51.31950574650235,29.279058281693068,1.4535545071278146,34.39931286158107,1,b,2.763184400000682,incorrect,v
106,4F4K,107,2,60.60633961589707,40.43790455130673,1.7631927397358953,44.06584999166356,1,v,4.079945599998609,correct,v
107,4F4K,108,2,46.44587784179025,58.24570093907924,1.313463705260853,59.52640715234556,2,b,1.1035241999998107,correct,b
108,4F4K,109,2,55.64009778013197,32.6448939171611,1.590194167198686,37.24227212671988,1,v,2.311571300000651,correct,v
109,4F4K,110,2,54.584741114304784,43.34235305426149,1.555676659196486,46.64927073492864,1,b,0.7394008000010217,incorrect,v
110,4F4K,111,2,64.25698679332785,77.43096847881887,1.9022536146165492,72.78539750067105,2,v,1.8014735999986442,incorrect,b
111,4F4K,112,2,58.61019111696792,38.67551288869016,1.6915029972486455,42.50364345382173,1,v,1.5818522999998095,correct,v
112,4F4K,113,1,57.27890432974502,37.341714435931166,1.6453187767336563,41.32669958647467,2,n,4.3040081999988615,correct,n
113,4F4K,114,2,42.537243733148415,38.57355929271132,1.2109315462141128,42.41349189872027,1,b,3.084668800000145,incorrect,v
114,4F4K,115,2,70.84707265029353,57.2831912499224,2.1816386727917405,58.73751797852443,1,b,1.5190749000012147,incorrect,v
115,4F4K,116,2,58.96117229743809,51.69428738231877,1.7038935054532909,54.00872265055562,1,v,3.115174399999887,correct,v
116,4F4K,117,1,40.30859620787356,49.08365830734439,1.1560933433750469,51.73318548315362,1,n,2.7509209999989253,incorrect,c
117,4F4K,118,2,35.33702952879449,51.70425587463676,1.0425458880721468,54.0173452554703,2,v,1.2491527000001952,incorrect,b
118,4F4K,119,1,52.91157513890807,45.839265647408894,1.5024815280907058,48.86868536915556,2,c,2.7010520000003453,incorrect,n
119,4F4K,120,2,50.22215380764051,58.33284472091731,1.4207617178933365,59.59740188974054,2,b,1.558614999999918,correct,b
120,4F4K,121,2,60.81617784358815,71.1430006966872,1.770903176375683,69.04839204833952,2,v,3.641519699998753,incorrect,b
121,4F4K,122,1,47.09974757338264,66.23759716571108,1.3314446243800575,65.68756201077245,1,c,2.221637599999667,correct,c
122,4F4K,123,1,42.17378319201066,32.19314588569789,1.2018138855752898,36.85593107412147,2,n,2.0433692000005976,correct,n
123,4F4K,124,1,63.5669838857158,72.74618310562359,1.8751545621142605,70.0653677597866,1,c,1.5820310999988578,correct,c
124,4F4K,125,2,44.66452942572943,60.5904974794396,1.2657003416102244,61.41012789843776,2,b,1.8864095999997517,correct,b
125,4F4K,126,2,40.09147916720303,52.97631689717793,1.1508855527560666,55.11285755223419,2,b,2.89419419999831,correct,b
126,4F4K,127,1,44.066583250585325,56.59429060734357,1.2500601342432105,58.167730303703394,1,c,2.8224410000002536,correct,c
127,4F4K,128,2,43.62166283076691,55.86395600445094,1.2385480888756286,57.559219805117614,2,b,1.4251700000004348,correct,b
128,4F4K,129,1,56.97365959613885,73.67322754920819,1.634908378063568,70.63392632413094,1,c,0.7636578999990888,correct,c
129,4F4K,130,2,48.99498994714834,66.32412560521178,1.384965173371382,65.74989883261567,2,b,0.8547206999992341,correct,b
130,4F4K,131,2,54.3235560838266,39.76615625439322,1.5472503867004577,43.46964345879823,1,b,4.74727779999921,incorrect,v
131,4F4K,132,2,38.72381528776838,46.962231442567926,1.1186156802553455,49.86355171447545,2,v,1.0125376000014512,incorrect,b
132,4F4K,133,2,52.223553831315776,65.37921143875172,1.4811385644939776,65.0635938893227,2,b,1.436403199999404,correct,b
133,4F4K,134,2,32.72088519000512,41.94200765265178,0.98734525220585,45.40306173064638,2,v,1.2795404999997118,incorrect,b
134,4F4K,135,1,32.46916069016294,48.0653335069938,0.9821905320728216,50.83759066823135,1,n,2.749997400000211,incorrect,c
135,4F4K,136,1,61.9212706011822,51.65107117239933,1.8120692846598243,53.97133478639432,2,c,2.007799499999237,incorrect,n
136,4F4K,137,1,53.56793870170117,65.1451976334504,1.5231290277989395,64.89175661360925,1,n,1.2856423000012,incorrect,c
137,4F4K,138,1,66.41575413196355,51.35233410655075,1.9895920168912349,53.712603736138725,2,c,1.5586789999997563,incorrect,n
138,4F4K,139,1,38.25157972994242,53.940589784268965,1.1076847860139174,55.93645071943965,1,n,3.848082599999543,incorrect,c
139,4F4K,140,1,54.449252850763095,49.70814558857981,1.5512998654479482,52.28040776211757,2,c,2.5372150000002875,incorrect,n
140,4F4K,141,1,55.873324138408336,37.69606916677905,1.5979250315046332,41.63883120345021,2,n,1.7580801999993128,correct,n
141,4F4K,142,2,41.887495050024775,50.616250908581705,1.1946805079574656,53.07306910548852,2,v,3.5810860999990837,incorrect,b
142,4F4K,143,1,52.29708994558543,37.23996708175044,1.4834051660057257,41.23715667352548,2,n,2.402294699999402,correct,n
143,4F4K,144,2,63.17841002533039,53.26673781861153,1.8600640504901265,55.3615612685204,1,v,2.136646400000245,correct,v
144,4F4K,145,2,56.851391838408304,36.47283002266683,1.6307569252506535,40.56328248678719,1,b,1.4130686999997124,incorrect,v
145,4F4K,146,1,50.756904764425066,66.26105653788694,1.4366485172776873,65.70447288012095,1,c,1.6072822000005544,correct,c
146,4F4K,147,2,60.44198893239626,45.71695786908859,1.7571771790374406,48.76016734082993,1,v,1.2734504000000015,correct,v
147,4F4K,148,1,54.71038445231545,34.678764840918994,1.5597464583506486,38.99720443831364,2,n,0.9629996000003302,correct,n
148,4F4K,149,1,59.76066977787789,43.525884648350285,1.7324576587465683,46.81259351260672,2,n,1.121848000000682,correct,n
149,4F4K,150,2,44.03708136190044,60.220958866546695,1.249293489373861,61.11704595219408,2,b,1.267369700000927,correct,b
150,4F4K,151,1,46.32645451308528,33.56484015180544,1.3102059772206165,38.03304594921197,2,c,0.23105600000053528,incorrect,n
151,4F4K,152,2,51.74536839083513,47.57071664748562,1.466483716395537,50.401295331919584,1,b,2.361186000000089,incorrect,v
152,4F4K,153,1,41.56253317579309,28.914536465962197,1.1866347978276135,34.09679503378009,2,c,1.77729779999936,incorrect,n
153,4F4K,154,1,68.50522080441333,51.23384244974339,2.077943783357789,53.60984549881989,2,n,2.0988503999997192,correct,n
154,4F4K,155,2,34.559837717824806,45.16208807847774,1.025832462681541,48.26752916195558,2,b,2.06253900000047,correct,b
155,4F4K,156,2,42.94917572045496,55.193003860616045,1.221348799219823,56.99634186692599,2,v,1.8803361999998742,incorrect,b
156,4F4K,157,2,44.0448420695762,65.71711984292041,1.2494951158505272,65.31042145561564,2,v,1.1693460999995295,incorrect,b
157,4F4K,158,1,33.93379014726745,42.74337795039639,1.0125644258352495,46.11619699947756,1,n,3.7874111000000994,incorrect,c
158,4F4K,159,1,42.101900451501685,58.06240272116979,1.2000188047129188,59.37684018268327,1,c,2.1777000000001863,correct,c
159,4F4K,160,1,47.51857094221496,58.99987112131577,1.343091066658181,60.138371494784,1,c,3.8481202000002668,correct,c
160,4F4K,161,1,47.47355650202229,68.83067090956158,1.3418344558661703,67.50922051399488,1,c,2.6887157000001025,correct,c
161,4F4K,162,2,66.82554982284412,52.99023280686207,2.0066186923744347,55.12478698905864,1,b,1.8014311999995698,incorrect,v
162,4F4K,163,2,47.64503546866569,67.68262751876858,1.3466277165377198,66.71474246704486,2,b,2.84786239999994,correct,b
163,4F4K,164,2,62.34622839059973,40.85403219778059,1.8281530451639083,44.43554620218795,1,v,3.077494499999375,correct,v
164,4F4K,165,2,62.20244794107772,45.32449761071173,1.822695340491852,48.41177571378874,1,b,1.8575251000002027,incorrect,v
165,4F4K,166,2,62.59383481352458,46.24845577345105,1.8375901701345825,49.231525781149465,1,v,1.6134770000007848,correct,v
166,4F4K,167,2,65.58430680279888,46.39457070453928,1.955488706446715,49.36100391036175,1,v,1.5282482000002346,correct,v
167,4F4K,168,1,54.026094564409625,39.07121470650236,1.537709348660261,42.85379733184942,2,n,1.7230116999999154,correct,n
168,4F4K,169,1,29.93483189108005,38.37632187486425,0.9317694643098272,42.23916818127356,1,c,3.4718417999993108,correct,c
169,4F4K,170,2,74.10259135575731,60.83166380722378,2.334441993354312,61.60059679061105,1,v,2.186503500000981,correct,v
170,4F4K,171,2,49.4871330692313,37.63867326237601,1.399211442068832,41.58824536923186,1,v,2.866354499999943,correct,v
171,4F4K,172,1,72.93010279999744,56.48642639689053,2.278213705622568,58.07814164825098,2,c,1.8803121999990253,incorrect,n
172,4F4K,173,2,73.95251263770328,50.601834843674965,2.327168024830584,53.06051633904215,1,b,2.1668790000003355,incorrect,v
173,4F4K,174,1,57.1671900954335,43.5317110880346,1.6415010842703155,46.81777818185748,2,n,2.5241778999989037,correct,n
174,4F4K,175,2,35.92011565152394,49.64841830677643,1.0552636343790278,52.22814168644251,2,v,2.18424750000122,incorrect,b
175,4F4K,176,2,26.67542131854767,38.88925007197193,0.870709059596715,42.69272838521824,2,b,1.5029475999999704,correct,b
176,4F4K,177,2,53.28187065460177,66.94886794303737,1.514095410745285,66.19686721959287,2,v,3.7742602999987866,incorrect,b
177,4F4K,178,2,26.17055738887245,42.2461658450019,0.8616158661769798,45.67370393524185,2,v,2.798238899998978,incorrect,b
178,4F4K,179,2,64.64624971292305,53.77049140090436,1.917713883836437,55.79162595253891,1,b,1.8123969999996916,incorrect,v
179,4F4K,180,2,30.55874965992668,44.76074979969216,0.9439370064549428,47.91091247469904,2,v,0.897195700001248,incorrect,b
180,4F4K,181,2,50.45983797438241,73.38855742655105,1.4278012194237857,70.46088472228337,2,b,2.7911395999999513,correct,b
181,4F4K,182,1,52.50473937441436,46.24962143168416,1.489824281825816,49.23255890297872,2,c,3.777703099998689,incorrect,n
182,4F4K,183,2,52.6997327866828,37.40722090855797,1.495877446429366,41.38436805418029,1,v,2.251975400000447,correct,v
183,4F4K,184,2,68.18228019549287,56.63633660633113,2.064036389198799,58.20262533727886,1,b,3.181484900000214,incorrect,v
184,4F4K,185,1,47.46375607830512,61.06823948407887,1.3415610258076538,61.786816759359446,1,c,2.3305982000001677,correct,c
185,4F4K,186,2,46.868288815423895,55.783329585993656,1.3250517124522658,57.49177114261512,2,b,2.3247817999999825,correct,b
186,4F4K,187,2,44.370870042605176,54.48105957881639,1.257994924272739,56.3952564805531,2,b,1.7832746999993105,correct,b
187,4F4K,188,1,50.94856151695778,61.1689311802576,1.4423855466546818,61.86588688594914,1,c,1.0731869000010192,correct,c
188,4F4K,189,1,47.78072227101396,61.35255424434072,1.3504326292973128,62.009787295764674,1,c,0.9882362999996985,correct,c
189,4F4K,190,2,50.80461142298928,38.8389169610229,1.4380744258458198,42.64818994323457,1,v,1.934997000000294,correct,v
190,4F4K,191,2,51.10233601376586,29.35680707287832,1.4470051739455283,34.46398405747271,1,v,2.512006900000415,correct,v
191,4F4K,192,1,72.16653115456086,56.81242892080616,2.2423258374093,58.34860261434586,2,c,1.492257599998993,incorrect,n
192,4F4K,193,2,42.78319842340179,55.538899233993305,1.217140701012312,57.286969787913286,2,v,4.1515265999987605,incorrect,b
193,4F4K,194,2,42.34442196393033,54.063108310581626,1.2060858968357355,56.04063973948692,2,b,1.88537610000094,correct,b
194,4F4K,195,2,34.550305641422455,52.84726662246773,1.0256291485209297,55.00217002280188,2,b,4.679551499999434,correct,b
195,4F4K,196,2,60.54310902961847,45.58605975782487,1.760875941413548,48.64399708141672,1,v,1.880471000000398,correct,v
196,4F4K,197,1,57.34462928328513,44.564373803031785,1.6475689909756468,47.73634446620768,2,c,3.248483400000623,incorrect,n
197,4F4K,198,2,46.60593994524033,54.71601361897089,1.317842718568547,56.59404685591892,2,v,1.734669400000712,incorrect,b
198,4F4K,199,1,51.11408380023163,64.81519988461399,1.4473587036346371,64.64820008265404,1,c,1.4494197999993048,correct,c
199,4F4K,200,1,38.82286207559119,28.321399422701745,1.1209219777735548,33.60703856292694,2,n,2.013871299999664,correct,n
200,4F4K,201,1,47.36288501216059,33.58997608571463,1.3387499771624691,38.05472480145784,2,n,5.0,correct,n
201,4F4K,202,2,53.70610169282792,36.41399189182986,1.5275112980334988,40.51169306537961,1,v,2.204246700001022,correct,v
202,4F4K,203,2,47.39463072798725,34.06333501844032,1.3396340227698804,38.46366403421063,1,v,1.0610483000000386,correct,v
203,4F4K,204,2,58.64009006131904,47.84992718866022,1.6925549842085537,50.64767930324348,1,v,0.9821332999999868,correct,v
204,4F4K,205,1,54.297690279271,39.39738996353111,1.546418399745562,43.142715550044166,2,n,1.7286335000007966,correct,n
205,4F4K,206,2,44.89307376146144,28.35639916990941,1.2717298300168798,33.63585065185352,1,v,3.6053322999996453,correct,v
206,4F4K,207,2,49.31027699229758,71.35692261758041,1.3940751263528586,69.1865199007925,2,b,1.4437319999997271,correct,b
207,4F4K,208,2,70.33499505025459,57.38178298068785,2.158531058534825,58.81871777426583,1,v,4.486463299999741,correct,v
208,4F4K,209,1,58.75188485849802,47.07321505840116,1.696494256450308,49.961709507634666,2,n,4.174957100000029,correct,n
209,4F4K,210,2,68.10731698367144,51.49258352609508,2.0608214423114126,53.83413248841437,1,v,2.1412442000000738,correct,v
210,4F4K,211,2,36.830421854606215,49.42580626590127,1.075429279311272,52.03320328117356,2,b,3.235138399999414,correct,b
211,4F4K,212,1,35.84106510660634,48.119768187758815,1.053530406540241,50.88555833170698,1,c,2.942816099999618,correct,c
212,4F4K,213,1,49.66852885664278,38.150514057270414,1.4044992613233072,42.03973077343321,2,n,4.241377399999692,correct,n
213,4F4K,214,1,54.66672175409749,39.10054824674345,1.5583309444050926,42.87977002483662,2,n,1.7164362000003166,correct,n
214,4F4K,215,2,56.93414255721682,43.75229562145194,1.6335654705464295,47.01405379229955,1,v,2.0775405000003957,correct,v
215,4F4K,216,1,35.287276786967766,48.87940328475707,1.0414678495546723,51.55385732726767,1,n,4.40644070000053,incorrect,c
216,4F4K,217,2,61.28676096427179,45.398419442701375,1.7883174155682633,48.47741684920428,1,v,1.6011847000008856,correct,v
217,4F4K,218,2,45.21184741567851,33.51493845474645,1.280187762161736,37.99001856927618,1,b,5.0,correct,v
218,4F4K,219,1,54.5582350919064,37.510243064258006,1.5548194418889314,41.475093606508594,2,n,1.5951036000005843,correct,n
219,4F4K,220,1,24.092756960367492,43.67300140770878,0.8251811146847273,46.94350084902178,1,n,1.5404818999995769,incorrect,c
220,4F4K,221,2,69.06915879229538,50.13276548845037,2.1024547693848703,52.65152549458057,1,v,4.030174800000168,correct,v
221,4F4K,222,2,45.36975626901189,61.53343828416343,1.2843983244031107,62.151168110278114,2,b,2.7991555000007793,correct,b
222,4F4K,223,1,68.19538423401465,49.78054678992238,2.064598896803963,52.34374356021222,2,c,2.6036439999988943,incorrect,n
223,4F4K,224,2,46.06393774683045,52.16603620063488,1.3030732026918272,54.41615542242855,2,b,1.8742316000007122,correct,b
224,4F4K,225,1,45.98574037510264,55.38295098690192,1.300956038025483,57.1560556741657,1,n,2.1306056000012177,incorrect,c
225,4F4K,226,1,57.57440853516095,61.8885590758765,1.6554601193057263,62.42764453324627,1,c,1.0731599999999162,correct,c
226,4F4K,227,2,50.87112940041621,36.72568873196774,1.4400649502543157,40.78514896084664,1,v,1.8912670000008802,correct,v
227,4F4K,228,2,51.29217639251358,67.0002063571889,1.4527286897732357,66.2333520613068,2,v,2.050316799999564,incorrect,b
228,4F4K,229,1,66.5862497988833,55.32430825520612,1.996658351257148,57.106777073610175,2,c,1.9956622999998217,incorrect,n
229,4F4K,230,1,43.69963858714072,62.77109996536839,1.2405579744292463,63.10834683164068,1,c,2.391519900000276,correct,c
230,4F4K,231,2,64.1039467031994,54.24119647336491,1.8962095446243956,56.191895008348936,1,v,3.465745899999092,correct,v
231,4F4K,232,1,64.12723621661507,50.26896816269621,1.897128085792867,52.770391487080765,2,n,2.520415500001036,correct,n
232,4F4K,233,1,44.62531493931377,59.09491326803296,1.2646686566830625,60.215094091669606,1,c,1.0149951999992481,correct,c
233,4F4K,234,1,63.41674016413775,41.3938017309622,1.8693052892967896,44.91541382293124,2,c,2.037980700000844,incorrect,n
234,4F4K,235,2,41.86803194219196,60.22514308473472,1.194197089975818,61.1203726902868,2,v,2.9559417000000394,incorrect,b
235,4F4K,236,1,52.98492187309319,39.34625491144533,1.5047748650706512,43.09740515490827,2,n,1.558668800000305,correct,n
236,4F4K,237,2,53.40380831535128,71.37040749458241,1.5179394564075102,69.1952022334848,2,b,1.9350200000008044,correct,b
237,4F4K,238,2,53.344793422844894,38.32859351695229,1.516077813695305,42.19700119831225,1,b,1.8006592000001547,incorrect,v
238,4F4K,239,2,76.28071854607794,59.083051714124124,2.442606652245066,60.20552382412881,1,b,2.1366757999985566,incorrect,v
239,4F4K,240,2,46.84978568600972,30.368746903384945,1.324541981292706,35.310274734976176,1,v,1.2491922999997769,correct,v
240,4F4K,241,2,58.906513098147066,41.64497884830267,1.7019579498978603,45.13881573525711,1,b,4.884538600001179,incorrect,v
241,4F4K,242,1,68.87171498462988,53.654682497960096,2.0938403571164828,55.69290975326329,2,c,1.1338691000000836,incorrect,n
242,4F4K,243,1,51.641021781451286,38.09251234579949,1.4633051505254413,41.98852720122989,2,n,2.0623692000008305,correct,n
243,4F4K,244,2,57.268780768428805,45.7871580226197,1.644972451308724,48.8224561231097,1,v,3.3201021000004403,correct,v
244,4F4K,245,2,62.70609389473189,45.65081567207493,1.8418847813806123,48.70147090339493,1,v,0.8606161999996402,correct,v
245,4F4K,246,2,57.85573225981332,41.557102640416815,1.665172880698686,45.060650776143056,1,v,1.2310287000000244,correct,v
246,4F4K,247,1,35.64547837746997,45.69123658482259,1.0492542823338595,48.73734249822086,1,c,3.1744708999995055,correct,c
247,4F4K,248,1,47.29360591066274,32.82613392173481,1.336822737832165,37.39764550952376,2,n,0.9821190000002389,correct,n
248,4F4K,249,1,32.674010173054185,43.37107294049588,0.986383317595085,46.67482904577784,1,n,1.9471048999985214,incorrect,c
249,4F4K,250,2,51.90275651653647,39.83082967654902,1.471291078063981,43.527008103528,1,b,1.4009280999998737,incorrect,v
250,4F4K,251,1,46.95536435720805,59.71438153330712,1.3274531371527152,60.712911627857146,1,c,1.7821826999988843,correct,c
251,4F4K,252,1,54.80415529610288,38.86305018199039,1.5627907905016982,42.669543983349136,2,n,1.3210295000008045,correct,n
252,4F4K,253,1,40.49131454781427,57.21989060192599,1.1604942998552457,58.685337609726254,1,c,1.5222544000007474,correct,c
253,4F4K,254,2,48.13163556252872,34.75783395354323,1.3603228265151917,39.06589873829,1,b,1.4679379999997764,incorrect,v
254,4F4K,255,2,43.12851250389423,64.53997571217634,1.225911960718178,64.44397345301424,2,b,2.105187000001024,correct,b
255,4F4K,256,1,39.86787378382597,51.62708798880954,1.1455466523240905,53.95058157785965,1,n,3.841989000000467,incorrect,c
256,4F4K,257,1,44.32983646695917,59.3672458175864,1.2569219737503572,60.43442940878116,1,c,0.881859600000098,correct,c
257,4F4K,258,1,52.59861660702288,44.20625341954532,1.4927354413853835,47.41788856793571,2,n,1.3733881000007386,correct,n
258,4F4K,259,1,30.54651483494191,41.73643634004752,0.9436968842928488,45.22017259662879,1,n,1.9835418999991816,incorrect,c
259,4F4K,260,1,42.373721361348586,56.33362013746516,1.2068209452587475,57.95105568496844,1,c,1.1523424000006344,correct,c
260,4F4K,261,2,43.07358561102681,56.57650367852684,1.22451255696497,58.1529639043761,2,b,1.655767399999604,correct,b
261,4F4K,262,1,33.867867995175565,47.07783015948934,1.0111773406801607,49.96579054880712,1,c,2.500813599999674,correct,c
262,4F4K,263,2,30.267120021001634,45.23768565359826,0.938230041377228,48.33467735365633,2,b,4.824054400000023,correct,b
263,4F4K,264,2,53.714672069285626,72.4009655888635,1.5277835491976604,69.84995598420478,2,b,2.937743699998464,correct,b
264,4F4K,265,2,43.69894929976591,33.02058212962168,1.2405401932323117,37.564574273332944,1,v,2.004192200000034,correct,v
265,4F4K,266,2,59.921034751035,73.37555884230974,1.738244521497442,70.45295041790797,2,b,2.050202399999762,correct,b
266,4F4K,267,1,35.47667579446909,51.07029474177155,1.0455776977879352,53.46789094747368,1,n,3.5567976999991515,incorrect,c
267,4F4K,268,1,25.986418763933685,45.17293938293133,0.8583229998901385,48.27716816578862,1,c,1.7588554999983899,correct,c
268,4F4K,269,2,63.112275097137726,50.51905397327532,1.8575077794109585,52.98841520531882,1,v,4.012052300000505,correct,v
269,4F4K,270,2,69.69818321230885,51.94904696897815,2.1301359307804733,54.22890906111402,1,v,2.409466099999918,correct,v
270,4F4K,271,1,39.79830750479873,55.97660478023275,1.1438907138927614,57.65336804905467,1,c,1.9045845999989979,correct,c
271,4F4K,272,2,52.52994183500515,64.55207473099729,1.4906052593110717,64.45297216515438,2,b,2.9013726000011957,correct,b
272,4F4K,273,1,33.99329317297105,25.22622443260376,1.0138180782506103,31.105862240590287,2,n,2.1546670999996422,correct,n
273,4F4K,274,1,43.25865986391082,33.1379170254407,1.2292341866785006,37.66541770830555,2,n,1.2309384000000136,correct,n
274,4F4K,275,2,40.9014214392146,58.66480231473872,1.170433236626009,59.86717055349488,2,b,2.5978865999986738,correct,b
275,4F4K,276,1,48.982692969006926,62.97529162159834,1.384611071318719,63.26451209290818,1,c,1.1885095999987243,correct,c
276,4F4K,277,1,51.80186901013912,66.82291624279733,1.4682076967781257,66.1071982282619,1,c,0.8062897999989218,correct,c
277,4F4K,278,1,51.42858795586785,65.30916072077304,1.4568553481793496,65.01223223139489,1,c,0.7030152000006638,correct,c
278,4F4K,279,1,43.993501204107794,32.41406883248152,1.248161862580413,37.044698776269904,2,n,0.8971542999988742,correct,n
279,4F4K,280,1,62.364075214978136,51.08921529335409,1.8288316247724885,53.484320636686185,2,c,0.9396469999992405,incorrect,n
280,4F4K,281,1,61.35246879133465,76.10749739639742,1.7907625636251705,72.05627273301164,1,c,2.2759474000013142,correct,c
281,4F4K,282,2,58.19873544028039,49.504527830481855,1.6770922678524982,52.10216285693813,1,b,1.3766271000004053,incorrect,v
282,4F4K,283,2,64.37975956375665,44.68895049884769,1.9071162497323253,47.84709186260817,1,v,1.3705485999998928,correct,v
283,4F4K,284,1,47.93090167430381,58.91466871966762,1.3546564776462646,60.069515214945966,1,n,2.9680521999998746,incorrect,c
284,4F4K,285,1,41.272032829788174,55.735246791528034,1.1794881995540878,57.45152196223948,1,c,1.6800827999995818,correct,c
285,4F4K,286,1,63.30749626371338,45.22380513639909,1.8650636771280693,48.32234888025136,2,n,1.2370612000013352,correct,n
286,4F4K,287,1,47.48682613568892,66.48398693770318,1.342204765071927,65.86479208614215,1,c,1.5222837999990588,correct,c
287,4F4K,288,1,37.24420652134711,50.74352577733229,1.084722638630233,53.18384866222361,1,c,3.4354074000002583,correct,c
288,4F4K,289,1,57.92957729421465,37.76454251039271,1.6677318249728716,41.6991943750363,2,n,1.4239376000004995,correct,n
289,4F4K,290,2,61.54971534181046,53.90020818342515,1.7981226871086753,55.902087349285225,1,b,1.4909332999995968,incorrect,v
290,4F4K,291,2,71.97212697370573,54.83165098966101,2.2332794848163102,56.69173447351753,1,v,1.8014565000012226,correct,v
291,4F4K,292,2,65.69714707771465,52.37390891531062,1.9600825456292104,54.59527374385938,1,v,1.0115996000004088,correct,v
292,4F4K,293,2,50.94381513272342,41.404966464711016,1.4422431926993626,44.92534277291536,1,b,2.0806305000005523,incorrect,v
293,4F4K,294,1,49.022305618959926,42.74988669851108,1.3857520756502113,46.12198974124995,2,c,2.3976450999998633,incorrect,n
294,4F4K,295,1,28.00751545443498,37.52488692015507,0.8951649559123381,41.48799255689376,1,n,1.4797504999987723,incorrect,c
295,4F4K,296,2,48.77076814042984,64.33312146285697,1.378522719062088,64.28983059325854,2,v,2.0988207000009425,incorrect,b
296,4F4K,297,1,61.05204727282614,57.0384820058601,1.7796103795961429,58.5355992258617,2,c,1.4797968000002584,incorrect,n
297,4F4K,298,2,59.01524408810156,40.49965797455791,1.7058104259307936,44.120697082570906,1,b,3.6478076000003057,incorrect,v
298,4F4K,299,2,56.8637256590822,43.20874581393249,1.6311752266052428,46.53036825846146,1,v,1.9798258999999234,correct,v
299,4F4K,300,1,60.20902464710481,50.080368794120105,1.7486853722813809,52.605775119615735,2,n,2.318717000000106,correct,n
300,4F4K,301,2,58.85840963299643,73.38207021514644,1.7002563607271577,70.45692530244253,2,v,1.6376196000001073,incorrect,b
301,4F4K,302,1,45.32969981474372,27.774128973229185,1.2833289295504984,33.15798197080504,2,c,1.4608157999991818,incorrect,n
302,4F4K,303,2,74.7928593292578,64.52423578362021,2.3681915541330905,64.4322639438595,1,v,1.8258535000004485,correct,v
303,4F4K,304,2,37.711581316529774,54.82417174963537,1.0953162204318048,56.68541923724304,2,b,1.1156771999994817,correct,b
304,4F4K,305,1,50.070969321463416,69.06380791114898,1.416302150786482,67.66815198987818,1,c,1.9895763999993505,correct,c
305,4F4K,306,2,30.339243051341303,42.11172817491448,0.9396382134429602,45.55407474681269,2,b,4.005887999999686,correct,b
306,4F4K,307,1,36.81925530003951,59.90474890562162,1.0751795914993747,60.86509893558697,1,c,3.502187899999626,correct,c
307,4F4K,308,2,45.95495952724399,59.214632736193806,1.3001236018730595,60.3116080997504,2,v,2.5493542999993224,incorrect,b
308,4F4K,309,1,71.79137427752741,60.71988744393333,2.2249011318555025,61.51239709520205,2,c,2.97415379999984,incorrect,n
309,4F4K,310,1,63.2902645847169,42.87454783880234,1.8643955022099488,46.23293766945972,2,n,1.5950742999993963,correct,n
310,4F4K,311,1,61.22311117293913,53.61893584969118,1.7859520355149394,55.66242054727749,2,n,1.5344239000005473,correct,n
311,4F4K,312,1,44.08055951841951,57.02029351177598,1.2504234899172422,58.52056992387914,1,c,1.4676459999991494,correct,c
312,4F4K,313,2,23.239621441544863,36.63784912335596,0.8106711143114382,40.70804666567859,2,b,1.2855859999999666,correct,b
313,4F4K,314,2,57.73427857445749,35.355129801799016,1.660972695502744,39.58584315951,1,v,1.801426199999696,correct,v
314,4F4K,315,1,51.29863657680511,38.57936209101262,1.4529238562884157,42.41862221075438,2,c,1.5820540999993682,incorrect,n
315,4F4K,316,2,46.34544417705308,34.91999405391607,1.3107234521590811,39.20688212626906,1,v,1.6062611999986984,correct,v
316,4F4K,317,2,57.56342658856802,69.48534936625772,1.6550821163650078,67.95342058285955,2,b,1.7641812000001664,correct,b
317,4F4K,318,2,56.31359972883609,44.61921370047978,1.612621645346158,47.78509874183774,1,v,1.7400271999995311,correct,v
318,4F4K,319,1,36.15295029416314,44.82999836064828,1.0603852509639922,47.97245982194905,1,n,2.8466393999988213,incorrect,c
319,4F4K,320,1,30.716306517173077,43.71126944948746,0.9470347015794348,46.97755071335805,1,c,2.737409299999854,correct,c
320,4F4K,321,1,37.07064606637001,49.68023266127192,1.0808148349998457,52.25598368822722,1,c,2.360967900000105,correct,c
321,4F4K,322,1,49.39766519305003,63.28449681465856,1.3966107240499923,63.50002209826332,1,c,1.0428152999993472,correct,c
322,4F4K,323,1,51.38303889489946,69.91854883669112,1.4554761174707234,68.24373151539575,1,c,0.6240763000005245,correct,c
323,4F4K,324,2,42.50238110314404,57.30168796736747,1.2100540019238564,58.75275849687072,2,v,1.1095722999998543,incorrect,b
324,4F4K,325,2,49.53140889364448,39.59506524579848,1.4005002751083264,43.31792804847829,1,v,0.9943095999988145,correct,v
325,4F4K,326,2,49.147300366135866,71.00022145117157,1.3893585973180351,68.95579063981768,2,b,0.9749124000009033,correct,b
326,4F4K,327,2,57.01519870189588,33.35187231188664,1.6363211916390437,37.84951943671355,1,v,0.909322899999097,correct,v
327,4F4K,328,1,41.10726384609087,56.82163359755003,1.1754538643002377,58.35622570502912,1,n,1.0246157000001404,incorrect,c
328,4F4K,329,2,43.40483973141769,35.145933591772724,1.232976405207933,39.4035372097502,1,v,2.391579000001002,correct,v
329,4F4K,330,2,38.309001388718364,51.98191142870663,1.1090082067984233,54.25728641229816,2,b,0.9993439999998373,correct,b
330,4F4K,331,1,59.22893338777059,47.799809195435394,1.713407135385934,50.603471618842455,2,c,1.5647558000000572,incorrect,n
331,4F4K,332,1,46.122635654054726,33.13937278433866,1.3046646901533894,37.6666693952582,2,c,2.1290301000008185,incorrect,n
332,4F4K,333,2,47.526530062191405,59.24353219948688,1.3433133736730842,60.33488422260908,2,v,2.5974785999987944,incorrect,b
333,4F4K,334,2,39.92998049774226,53.37579532808938,1.147027050418586,55.454810497811984,2,b,2.075973900000463,correct,b
334,4F4K,335,1,47.51070296304936,35.691094097209884,1.3428713414672644,39.87905835997007,2,n,1.159139100000175,correct,n
335,4F4K,336,1,48.5367003226413,60.96510239910372,1.3718293332751772,61.70570902815721,1,n,2.4763674000005267,incorrect,c
336,4F4K,337,2,42.07245269547187,58.84534085454738,1.1992841994917962,60.01343461368305,2,v,1.8308514000000287,incorrect,b
337,4F4K,338,2,21.25812003119991,37.81908491402311,0.7779469057646043,41.74728758710796,2,b,1.3462935000006837,correct,b
338,4F4K,339,1,50.48635540170837,33.712950019289465,1.4285887466829246,38.160838911762106,2,n,3.344365899998593,correct,n
339,4F4K,340,1,47.05315352291065,37.174537029650494,1.3301552177054463,41.17959449240267,2,n,1.7104233000009117,correct,n
340,4F4K,341,2,57.64416419807691,43.89159167760796,1.6578631533593375,47.13798510536424,1,v,3.4960802999994485,correct,v
341,4F4K,342,1,32.20831420141677,42.68685663579387,0.9768774056802252,46.06589356149067,1,c,2.500774199999796,correct,c
342,4F4K,343,1,40.443263814624544,33.944875057566215,1.159335328256196,38.36120516009646,2,c,2.3065666999991663,incorrect,n
343,4F4K,344,2,51.149333160228295,62.33382246043461,1.4484199917611107,62.77222901057018,2,b,2.4702751000004355,correct,b
344,4F4K,345,2,65.83207430402275,50.58174701494817,1.9655897357473509,53.04302318125279,1,b,1.703317400000742,incorrect,v
345,4F4K,346,1,42.957031816333576,26.19241340857073,1.2215483386257604,31.87626701297049,2,c,3.4526958000005834,incorrect,n
346,4F4K,347,1,49.22195540047221,63.75367258035911,1.3915171234601724,63.85511409265171,1,c,1.4279936000002635,correct,c
347,4F4K,348,1,43.092049248713614,58.51882087388178,1.224982787256686,59.748669165874354,1,n,1.6827274000006582,incorrect,c
348,4F4K,349,1,52.07453905452245,61.08705472802361,1.4765561006481895,61.801600412421095,1,c,0.9093529999991006,correct,c
349,4F4K,350,1,46.13267842384629,59.99689040237144,1.3049371763332966,60.93862395084081,1,c,0.9096002000005683,correct,c
350,4F4K,351,2,47.5774940327542,36.830408359145935,1.3447377260873017,40.87710742507255,1,b,0.8971715999996377,incorrect,v
351,4F4K,352,2,52.94528683512982,44.71356755479768,1.5035351594651782,47.86897404726082,1,v,1.8135717999994085,correct,v
352,4F4K,353,1,51.54236084465039,64.55661818496135,1.460306116248555,64.45635089209894,1,c,0.9885235999990982,correct,c
353,4F4K,354,1,37.18890031647043,50.30414295411806,1.0834758593692522,52.80107482598781,1,c,2.482444100000066,correct,c
354,4F4K,355,1,48.81133250120981,38.9807443657832,1.3796860103072883,42.77370574178964,2,n,1.0855205999996542,correct,n
355,4F4K,356,2,61.42646842744435,52.61702031978679,1.793520272972283,54.80442456502176,1,b,2.4218890000011015,incorrect,v
356,4F4K,357,1,44.54527384801475,49.638547691978815,1.2625654831838942,52.21950262649036,1,n,2.088065899999492,incorrect,c
357,4F4K,358,2,27.70715557573681,45.141962454310615,0.8895913513380364,48.24965149802745,2,v,3.4232697000006738,incorrect,b
358,4F4K,359,2,46.4452842855059,50.9468408337632,1.3134474937302836,53.3606437596029,2,b,1.6450744999983726,correct,b
359,4F4K,360,1,65.37145004158229,49.94743504685359,1.946852387196726,52.48964689287932,2,c,3.0955655999987357,incorrect,n
360,4F4K,361,1,68.45493975877059,59.15472013093982,2.075772293583038,60.26332654653816,2,c,4.850640200000271,incorrect,n
361,4F4K,362,2,52.55683191795287,40.35379082841393,1.4914389845202296,43.99115288548554,1,b,1.8308446000010008,incorrect,v
362,4F4K,363,2,59.02041524349701,67.31706591339473,1.7059938635559613,66.45770306678476,2,v,0.7272618999995757,incorrect,b
363,4F4K,364,2,63.1200026667624,46.13076883067637,1.8578062868631489,49.12720489009438,1,v,1.6436417999993864,correct,v
364,4F4K,365,1,35.47631323177057,42.187736617260654,1.0455698149152868,45.62170979713702,1,c,1.4496066000010615,correct,c
365,4F4K,366,2,64.66726793519227,49.01997783513219,1.9185522262118115,51.67729402498923,1,b,3.259344500000225,incorrect,v
366,4F4K,367,2,67.95898694915005,56.49194628391579,2.0544747627265854,58.08272871223178,1,b,1.3112081999988732,incorrect,v
367,4F4K,368,2,60.95035589577105,47.788902093159805,1.775851168855629,50.59384971061368,1,v,0.7515227000003506,correct,v
368,4F4K,369,2,37.87156529527785,47.75879032829125,1.0989661570941216,50.56728409281845,2,v,1.1945605000000796,incorrect,b
369,4F4K,370,1,28.74555848098711,44.73741410231911,0.909009170662043,47.89017063460408,1,n,1.41323519999969,incorrect,c
370,4F4K,371,1,46.8486997611408,29.14245103309647,1.324512071918994,34.28580810428486,2,n,3.1627380999998422,correct,n
371,4F4K,372,1,37.69299228479653,26.691647126821454,1.0948929099049916,32.278136819412765,2,n,3.4354268000006414,correct,n
372,4F4K,373,1,43.03289048924688,25.64670102784885,1.2234767744691173,31.4399213900968,2,n,1.4340613000003941,correct,n
373,4F4K,374,1,37.220934464101326,59.02494932630992,1.084197837070758,60.158624622050375,1,c,2.2519288000003144,correct,c
374,4F4K,375,2,52.28638935946693,62.30766566913124,1.4830751266334783,62.75205104849069,2,b,2.731390699998883,correct,b
375,4F4K,376,1,40.91499681108971,58.86318828890274,1.1707636871137503,60.027876296635725,1,c,2.373359799999889,correct,c
376,4F4K,377,2,34.84988514842527,46.25745164985008,1.0320383306208842,49.23949874140179,2,b,1.2795064999991155,correct,b
377,4F4K,378,1,60.24340844941529,45.694351471440335,1.749936113786016,48.7401066856952,2,c,1.158160000000862,incorrect,n
378,4F4K,379,1,62.7896863928201,79.51604413620886,1.8450892350116024,73.86888475726447,1,c,2.8717909999995754,correct,c
379,4F4K,380,2,43.55100209569461,55.63132711569634,1.2367295662267772,57.36446899935069,2,b,1.795383500000753,correct,b
380,4F4K,381,1,56.59896867638661,62.14815939991272,1.6222195210316286,62.62882925646916,1,c,1.20669529999941,correct,c
381,4F4K,382,2,54.043369236741874,64.83713859009717,1.5382618187798325,64.66443669693913,2,b,2.7981507999993482,correct,b
382,4F4K,383,1,38.5197847382846,62.841331547878085,1.1138797875595978,63.16211684791868,1,n,2.0236896999995224,incorrect,c
383,4F4K,384,2,55.37253203138818,43.20844513495964,1.5813710962667995,46.53010066697649,1,v,0.9152470000008179,correct,v
384,4F4K,385,1,32.10687796098675,46.188522847246695,0.9748190426391884,49.1784033178566,1,c,2.6100225999998656,correct,c
385,4F4K,386,2,44.55070418285513,56.14891974436825,1.262708060934266,57.797180937802665,2,v,3.8600776999992377,incorrect,b
386,4F4K,387,2,51.03627295941641,66.20895459451476,1.4450187260481135,65.66690445037429,2,b,1.2509646999988036,correct,b
387,4F4K,388,2,49.75430517000906,37.79435295874867,1.4070066576402422,41.72547878575539,1,v,1.6375752000003558,correct,v
388,4F4K,389,1,39.14050626892938,26.216875009623905,1.1283504262728716,31.895898733456736,2,n,1.2431341999999859,correct,n
389,4F4K,390,1,49.10154435870346,36.97589355745557,1.388037293780072,41.0049338085989,2,c,1.048118799999429,incorrect,n
390,4F4K,391,2,52.270829996489006,60.693486583171946,1.482595358472083,61.49154485639608,2,b,1.5767722000000504,correct,b
391,4F4K,392,2,58.03712940227391,38.11666910987333,1.6714658531940672,42.00985140951656,1,v,0.9457021999987774,correct,v
392,4F4K,393,1,42.69198839030538,24.88521009285179,1.214834387596743,30.8363395453063,2,n,1.6558156999999483,correct,n
393,4F4K,394,2,43.01442296421169,64.40690966424587,1.2230070234238513,64.34487938955199,2,v,0.9032721000003221,incorrect,b
394,4F4K,395,2,34.71051562323062,56.841328890483,1.0290517021575918,58.37253438385908,2,b,0.771228899999187,correct,b
395,4F4K,396,2,32.5543384415819,40.00072448503602,0.9839317506935116,43.67774130987416,2,v,1.9228068999982497,incorrect,b
396,4F4K,397,2,42.33729525680543,33.09461364337006,1.2059071733250872,37.62819069023709,1,b,1.3766456000012113,incorrect,v
397,4F4K,398,1,38.181145280289456,29.62164316361198,1.1060636105296222,34.68465598793624,2,c,2.505897699998968,incorrect,n
398,4F4K,399,1,40.66353673688317,55.11583096991107,1.1646577821798194,56.93137209060491,1,n,0.6129636000005121,incorrect,c
399,4F4K,400,1,46.37904445907581,43.21686117131159,1.3116395723137897,46.53759057325019,2,c,0.49809190000087256,incorrect,n
