,condition,trial,sub_task,x,y,xt,yt,cat,resp,rt,acc,correct_resp
0,2F4K,1,1,27.07102251047978,50.92480438849224,0.8779013118736777,53.16643689372787,1,c,5.0,NA,c
1,2F4K,2,1,49.489901168703696,66.88034311346132,1.3992919844111495,65.98958604394329,1,c,1.6609372000002622,correct,c
2,2F4K,3,2,58.75787912583644,49.41999949744789,1.696705733033372,51.85136522537165,1,v,2.9315694999995685,correct,v
3,2F4K,4,1,67.45193618800734,54.121146392838064,2.032926542032744,55.91845067338645,2,c,2.051675100000466,incorrect,n
4,2F4K,5,1,46.73460050843808,61.52002900451063,1.3213732236027078,61.97700313097876,1,c,1.6632988999999725,correct,c
5,2F4K,6,2,48.82198324583566,33.81637373280377,1.3799916114979036,38.05561620298361,1,v,3.3322054000000207,correct,v
6,2F4K,7,2,43.57817271211183,58.50964514369177,1.2374285122591595,59.57441959323069,2,v,2.779922099999567,incorrect,b
7,2F4K,8,1,46.44993288990344,30.65903461106665,1.3135744642833542,35.35654077024886,2,n,4.643119599999409,correct,n
8,2F4K,9,1,44.19827421105681,22.325499317677373,1.253488035993911,28.649044751115483,2,n,1.7277500000000146,correct,n
9,2F4K,10,2,45.03359515916857,23.234482447412308,1.2754513358738058,29.344438239970422,1,v,3.374570300000414,correct,v
10,2F4K,11,1,43.42855733810668,49.386666461745726,1.2335846514641342,51.82211932913469,1,n,2.068475899999612,incorrect,c
11,2F4K,12,1,57.79567327718528,43.46098973353578,1.6630945586208448,46.57128854731785,2,n,1.3765635999998267,correct,n
12,2F4K,13,1,46.69216267966339,57.96744415211348,1.3202076659446496,59.13186635931776,1,n,2.1413275000004433,incorrect,c
13,2F4K,14,1,65.54285008690351,47.894390489950126,1.953803668285138,50.50841080634204,2,c,1.7770641000006435,incorrect,n
14,2F4K,15,1,41.40681518675353,28.61487307749625,1.182798612013186,33.64875331299375,2,c,1.109559999999874,incorrect,n
15,2F4K,16,2,36.3580748180765,18.871464063402872,1.064917925530542,26.103583953686744,1,v,2.4680014999994455,correct,v
16,2F4K,17,1,53.25442369941463,68.28792346868819,1.513231497360546,66.97880934459616,1,c,4.090866399999868,correct,c
17,2F4K,18,2,26.60757608551536,41.92598419406622,0.8694815276549244,45.20348485691567,2,v,2.074546600000758,incorrect,b
18,2F4K,19,2,25.315510196127917,44.68042950396105,0.8464315483067149,47.65736032528391,2,b,2.7836655999999493,correct,b
19,2F4K,20,2,43.59378719460824,58.68115684274381,1.2378303631522718,59.71381899523024,2,v,1.0660115000000587,incorrect,b
20,2F4K,21,2,60.90396275411941,53.47791683558425,1.7741387989160815,55.369842818339215,1,v,1.108675200000107,correct,v
21,2F4K,22,1,35.61741330621809,49.5658932590607,1.0486421195899054,51.97931493516072,1,n,2.0988167999994403,incorrect,c
22,2F4K,23,1,53.167420865514366,70.2696441611774,1.5104962746776631,68.32135949331827,1,n,1.7290164999994886,incorrect,c
23,2F4K,24,2,76.77137701092124,57.52607058464567,2.4676560318653737,58.76956176748027,1,v,1.2739153000002261,correct,v
24,2F4K,25,1,52.08147773318314,41.859560610905554,1.4767691620474666,45.14431165270064,2,n,5.0,correct,n
25,2F4K,26,1,27.65207600764026,49.51967318039531,0.8885730434484238,51.93878944550628,1,c,4.461040099999991,correct,c
26,2F4K,27,2,34.63046710479314,46.46874898723654,1.0273402064886497,49.246609483182,2,b,2.962000700000317,correct,b
27,2F4K,28,2,35.44710415100938,50.76941573544689,1.0449349435248012,53.0311438298445,2,b,1.2847324999993361,correct,b
28,2F4K,29,1,56.46876951708589,77.01009129992889,1.6178334390615676,72.40673548215753,1,n,1.0191916000003403,incorrect,c
29,2F4K,30,1,39.59866481992994,58.19769884344093,1.139151749044637,59.32014754078986,1,n,1.1399669000002177,incorrect,c
30,2F4K,31,2,61.014136145455495,46.05725875470548,1.778207994877807,48.88144972559692,1,b,1.0974465999997847,incorrect,v
31,2F4K,32,2,37.35768216770075,42.6880849761956,1.087285237200073,45.88254173954904,2,b,1.1936098000005586,correct,b
32,2F4K,33,2,44.16827403903868,30.96941671771865,1.2527063088420871,35.61878558671171,1,b,1.2870293999994828,incorrect,v
33,2F4K,34,1,52.87789056227667,38.83439496155426,1.5014294817787583,42.455325651595466,2,c,1.6074662000000899,incorrect,n
34,2F4K,35,1,68.37494531273967,52.03277754076652,2.072322245871819,54.127379004886365,2,c,1.0428671999998187,incorrect,n
35,2F4K,36,1,37.30144071195984,50.50229614332587,1.086014391482692,52.79828563897623,1,c,0.9167883000000074,correct,c
36,2F4K,37,1,53.16601995023288,30.99517645931684,1.5104522727278635,35.640582976882875,2,c,1.6610945000002175,incorrect,n
37,2F4K,38,2,76.25980215655288,61.67963418376248,2.441544485918859,62.10162723535892,1,b,1.384123499999987,incorrect,v
38,2F4K,39,1,47.88254707152175,55.14519382392152,1.3532950474173795,56.78570807443336,1,c,0.7036628000005294,correct,c
39,2F4K,40,1,44.73229985759107,29.292984370241268,1.26748528281896,34.21140127695262,2,c,0.836543200000051,incorrect,n
40,2F4K,41,1,39.96947009584667,48.56126383105683,1.14796933354696,51.09650119116907,1,n,3.568737399999918,incorrect,c
41,2F4K,42,1,44.4420879606134,57.34583339189508,1.2598593131295093,58.621096820294,1,n,1.0064277000001312,incorrect,c
42,2F4K,43,1,37.217397424673415,47.43579581983597,1.0841180965289754,50.103147679036105,1,c,1.4084153000003425,correct,c
43,2F4K,44,2,48.02637880790309,55.792478599995455,1.357348672312816,57.329739574316456,2,b,2.050515500000074,correct,b
44,2F4K,45,2,59.80393556607224,50.47302653410907,1.7340170293543806,52.7727488185636,1,b,0.7879443000001629,incorrect,v
45,2F4K,46,2,33.337624939585375,52.94236354513961,1.0000892454253465,54.91093968416528,2,v,2.1959140999997544,incorrect,b
46,2F4K,47,1,46.09490228246759,62.04355588096568,1.3039125079177911,62.384687142139015,1,n,2.4461639000001014,incorrect,c
47,2F4K,48,2,45.28623430241461,64.36732603488814,1.282169529668773,64.15446750226123,2,b,1.2797171000001981,correct,b
48,2F4K,49,1,40.31603618812822,57.456985894103056,1.1562722164589434,58.71269032182421,1,n,1.3280707999992956,incorrect,c
49,2F4K,50,2,55.92995358628013,45.23050299238857,1.5998078184382087,48.14677174899132,1,b,1.189930500000628,incorrect,v
50,2F4K,51,1,60.13261240248918,41.742642121503415,1.7459090085637066,45.04016225069693,2,c,0.9396489999999176,incorrect,n
51,2F4K,52,1,41.73085895833723,54.65007491716008,1.190795577567607,56.367370089368464,1,n,0.8061395000004268,incorrect,c
52,2F4K,53,1,46.254456067532416,28.526545233210875,1.308245849604643,33.57576288308122,2,n,2.0396159000001717,correct,n
53,2F4K,54,2,56.41690621079696,68.93989603207105,1.6160895993721611,67.42711100896547,2,b,1.9348741000003429,correct,b
54,2F4K,55,2,38.47394974905929,51.56666352880519,1.1128186413587855,53.72394436768384,2,b,1.4131479999996372,correct,b
55,2F4K,56,1,64.90621410862342,54.193848389647776,1.9281087471987493,55.98027549422635,2,n,1.469072399999277,correct,n
56,2F4K,57,1,63.95973962308565,45.341116473723176,1.8905318944482044,48.245134399951226,2,n,0.5623629000001529,correct,n
57,2F4K,58,1,48.73715170469529,54.18183777499327,1.377559421361389,55.97006443251463,1,c,2.3440176000003703,correct,c
58,2F4K,59,2,65.52334321533365,54.44966330875909,1.9530112998223803,56.19751430605305,1,b,2.798176300000705,incorrect,v
59,2F4K,60,2,45.85944727300237,57.31394228009124,1.297543961033044,58.59479675470906,2,b,1.540455700000166,correct,b
60,2F4K,61,1,44.43728075026828,28.222804218972257,1.259733379945022,33.325300157708135,2,n,5.0,correct,n
61,2F4K,62,1,49.558892287423234,31.416701045761016,1.4013008913210585,35.99796725639701,2,n,0.6677993000002971,correct,n
62,2F4K,63,1,44.872622667596296,65.80047008708605,1.271189118308799,65.2115399947149,1,n,1.3159390999999232,incorrect,c
63,2F4K,64,1,50.87274381818908,61.59455979226016,1.4401132953045497,62.03523516985844,1,n,0.8719031000000541,incorrect,c
64,2F4K,65,2,60.26744633376747,76.98067400882842,1.7508110445704332,72.39062799753786,2,v,1.899930999999924,incorrect,b
65,2F4K,66,2,47.4977135140942,55.40303166498413,1.3425086701605895,57.00281426512368,2,v,1.1997052999995503,incorrect,b
66,2F4K,67,2,55.264541987080456,44.37867174254414,1.577823969582662,47.38872265443759,1,b,2.4338517000005595,incorrect,v
67,2F4K,68,2,59.5558135757252,47.36319887386601,1.7250933197383205,50.03893499269509,1,v,1.7407677000001058,correct,v
68,2F4K,69,1,52.29906259268924,35.01831792089515,1.4834660165979752,39.09924106692586,2,n,1.1950219999998808,correct,n
69,2F4K,70,2,57.79320264950283,43.40892523433169,1.663009118902966,46.52489708101312,1,v,1.9606278000001112,correct,v
70,2F4K,71,1,34.94139694238052,50.066329568760025,1.034004101490036,52.41749405336829,1,n,3.91593980000016,incorrect,c
71,2F4K,72,2,26.53304577786145,34.654916487975754,0.8681350365304553,38.78289418349142,2,b,2.8406100999991395,correct,b
72,2F4K,73,2,45.848968952280366,55.15151968786429,1.2972612692596344,56.791040821123495,2,v,1.2552406999993764,incorrect,b
73,2F4K,74,2,44.22032627385365,27.55566827421276,1.2540629669701129,32.7781673366827,1,b,1.9943901999995433,incorrect,v
74,2F4K,75,1,53.769739908147535,62.91420153386157,1.5295340215584234,63.05553715724372,1,c,2.0381370999994033,correct,c
75,2F4K,76,1,49.18753605827949,58.05577398963477,1.3905215291012725,59.20415381926874,1,c,0.7142954000000827,correct,c
76,2F4K,77,1,39.45647527132522,30.271371715769952,1.1357885383063957,35.03004347121954,2,c,1.699651000000813,incorrect,n
77,2F4K,78,1,53.99030234561763,36.9110218400309,1.536565290813752,40.7568734450442,2,c,3.138398600000073,incorrect,n
78,2F4K,79,2,75.46603258422314,60.85599040519531,2.401575189095224,61.4554046882219,1,v,1.2309611999999106,correct,v
79,2F4K,80,1,49.25278534846278,70.62342449622815,1.3924094982266757,68.55463029376982,1,n,1.1889584000000468,incorrect,c
80,2F4K,81,1,43.410397696873545,54.82921747898765,1.2331189142503087,56.5189465977554,1,n,2.6098679000006086,incorrect,c
81,2F4K,82,2,77.55620345455365,63.09210496165689,2.508258611840811,63.191491087740296,1,v,1.0234823000000688,correct,v
82,2F4K,83,1,45.37107567452285,53.61210695085085,1.2844335639809903,55.48452837080914,1,c,2.0396471000003658,correct,c
83,2F4K,84,2,59.23142579268914,46.13682366568705,1.713495940329155,48.95208483972873,1,v,1.783223000000362,correct,v
84,2F4K,85,2,64.2606866650993,55.11317206283633,1.902399973306406,56.75870875756684,1,v,0.5282948000003671,correct,v
85,2F4K,86,2,57.11879951084498,48.32843305774245,1.6398501481423244,50.89135172161405,1,v,0.5333610999996381,correct,v
86,2F4K,87,1,49.4386373796626,65.21002526446242,1.397801133186188,64.77934881890326,1,n,2.167020699999739,incorrect,c
87,2F4K,88,2,40.71377882276025,54.22052127667072,1.1658751998348262,56.002948276569605,2,b,1.07927699999982,correct,b
88,2F4K,89,1,67.49551310059398,54.67760457660747,2.0347695263660435,56.39067917477504,2,c,0.8965410000000702,incorrect,n
89,2F4K,90,1,48.18957657278519,41.930168945166805,1.3619627984680296,45.20721291759604,2,n,1.692169500000091,correct,n
90,2F4K,91,1,58.61955386256,74.39715199100874,1.6918323527999295,70.91554628243378,1,n,2.1828322999999727,incorrect,c
91,2F4K,92,2,42.33772383306152,25.00173802329747,1.20591792040891,30.72430879165521,1,b,1.371015400000033,incorrect,v
92,2F4K,93,1,70.70331926161056,58.9222148021348,2.1751269083661158,59.909253976358,2,n,3.320067399999971,correct,n
93,2F4K,94,2,60.99591353986468,43.67791296671382,1.777534308960405,46.76456308914943,1,v,2.7910745999997744,correct,v
94,2F4K,95,2,56.60813239972817,74.42177897017704,1.6225286713421438,70.93016339664881,2,v,0.7697064999993017,incorrect,b
95,2F4K,96,2,71.80504782805889,60.67374107124429,2.2255338357043546,61.31138924917296,1,b,1.109656100000393,incorrect,v
96,2F4K,97,1,40.59842299092457,47.64028634539737,1.1630818999988526,50.28393737312128,1,c,1.0269904000006136,correct,c
97,2F4K,98,2,43.22666297675045,53.32213122988814,1.2284165796743782,55.23654872406397,2,v,1.394808799999737,incorrect,b
98,2F4K,99,1,39.235296227550165,50.77974787681721,1.130576713201321,53.04014358191254,1,n,1.463042200000018,incorrect,c
99,2F4K,100,1,69.77209479610504,55.669964512107285,2.133412356520584,57.2270251801456,2,c,1.250626099999863,incorrect,n
100,2F4K,101,2,76.1758768472804,60.41936642518698,2.437287272696001,61.10977184706062,1,v,0.8182946999995693,correct,v
101,2F4K,102,2,32.203730176075794,19.46015098209176,0.9767842920858446,26.52602885071392,1,b,1.7362130000001343,incorrect,v
102,2F4K,103,2,39.027048724544095,48.57514740749416,1.1256914657981,51.10872796113282,2,b,1.085254999999961,correct,b
103,2F4K,104,2,48.36132384577044,66.71126646534195,1.3668355869277595,65.86884383933453,2,b,1.7651875000001382,correct,b
104,2F4K,105,2,62.02861397353895,46.33955844394123,1.8161185994867648,49.13200499370853,1,v,1.5102183999997578,correct,v
105,2F4K,106,2,36.28895877110522,50.946803273948994,1.0633884952241786,53.18558078758569,2,b,4.684930500000519,correct,b
106,2F4K,107,2,70.75062995174913,57.54272370718885,2.1772678471355107,58.78326430971978,1,v,0.932933399999456,correct,v
107,2F4K,108,1,39.45663640400081,54.66724760272363,1.1357923439537605,56.38191069232048,1,n,1.1459534999994503,incorrect,c
108,2F4K,109,2,40.65887414998444,57.53810982461011,1.1645448673630154,58.77946816389339,2,b,1.2566437999994378,correct,b
109,2F4K,110,1,44.076585200295526,59.09671983491313,1.2503201546609743,60.05037095947607,1,c,1.0611023000001296,correct,c
110,2F4K,111,1,56.93453603731684,35.33176337594439,1.633578836741977,39.37263255909925,2,c,1.1520700000000943,incorrect,n
111,2F4K,112,2,30.84644091839468,43.29862850102985,0.9496009132436352,46.42661538920153,2,b,0.9288629000002402,correct,b
112,2F4K,113,1,50.43317189349699,63.40727235515128,1.4270097151711232,63.43138685227139,1,n,3.5558075999997527,incorrect,c
113,2F4K,114,1,58.82320589666149,42.532532461942985,1.6990121586198048,45.74392489562747,2,n,0.8729085999993913,correct,n
114,2F4K,115,2,38.1945789675649,55.27954419769969,1.1063726277734602,56.8988995024565,2,b,2.9498647999998866,correct,b
115,2F4K,116,2,39.84416240570272,28.70586336917585,1.1449819634521754,33.72401656053061,1,b,1.4739509999999427,incorrect,v
116,2F4K,117,2,43.17387967514133,54.89802837676229,1.227069011894376,56.57710476695452,2,b,3.2715987999999925,correct,b
117,2F4K,118,1,38.54349648539623,52.39339716460546,1.1144291458302005,54.43863798201953,1,c,2.579684399999678,correct,c
118,2F4K,119,2,64.25291939713932,53.3558987053584,1.9020927304721933,55.265454780083616,1,v,3.2169066999995266,correct,v
119,2F4K,120,1,41.82326233709817,61.87004928809925,1.1930858602545598,62.24992477011279,1,c,1.8140393000003314,correct,c
120,2F4K,121,2,71.71137488789594,54.97830137277272,2.221202995475489,56.64490509746409,1,v,3.914619700000003,correct,v
121,2F4K,122,1,37.96956592334328,51.05696233450249,1.1012079861067252,53.28140580785941,1,n,3.9572989999996935,incorrect,c
122,2F4K,123,2,42.97995998229724,55.01512615758052,1.2221308846262318,56.67599165258422,2,b,2.749609899999996,correct,b
123,2F4K,124,2,62.03490243136847,44.31812533258809,1.8163560994082404,47.33481033467823,1,v,1.0124667000000045,correct,v
124,2F4K,125,1,62.00300991783175,43.35884607999007,1.8151519164967944,46.48027372293519,2,n,2.3719077999994624,correct,n
125,2F4K,126,2,49.872514028735225,37.11238004201476,1.4104694525310866,40.93410196200211,1,v,5.0,correct,v
126,2F4K,127,1,49.12325338409888,26.12635645361747,1.3886640320393602,31.620452698981705,2,n,1.230933100000584,correct,n
127,2F4K,128,2,60.9918432343839,38.88517701184186,1.7773838654933822,42.50031879113215,1,v,2.51157830000011,correct,v
128,2F4K,129,2,30.07457713395871,45.90193921990394,0.9344810503400685,48.743524889791885,2,b,0.9336020000000644,correct,b
129,2F4K,130,2,27.6932522441966,44.952920463665286,0.8893341972879983,47.89985207242143,2,b,1.0669944000001124,correct,b
130,2F4K,131,2,48.14827304688767,36.69979556290948,1.3607935344176856,40.57112555757979,1,v,0.8302975000005972,correct,v
131,2F4K,132,1,47.4494599179334,61.24788688332399,1.3411622654213464,61.76383715063371,1,c,2.347660800000085,correct,c
132,2F4K,133,1,46.43020387022609,38.74066188246582,1.3130356763799405,42.372295269002365,2,c,2.0927246000001105,incorrect,n
133,2F4K,134,2,47.249433997871726,32.14811953702093,1.335595391003319,36.62111417420725,1,v,0.872091499999442,correct,v
134,2F4K,135,1,33.25902243917632,48.92508323625073,0.998455941683442,51.41666602151336,1,n,1.1474051000004692,incorrect,c
135,2F4K,136,2,55.46402651630659,36.43984788405509,1.5843826362480853,40.34277534810954,1,v,1.449549400000251,correct,v
136,2F4K,137,1,66.9833614414039,53.63964130495206,2.0132144293528644,55.50804547671562,2,c,1.328249300000607,incorrect,n
137,2F4K,138,2,57.91468562674247,71.53956735073749,1.6672154692184888,69.14941439389946,2,v,1.0685075000001234,incorrect,b
138,2F4K,139,1,52.84594735896647,36.55308551634825,1.5004325030537269,40.442215099922464,2,n,1.4251373999995849,correct,n
139,2F4K,140,1,52.91137921715889,66.97620881989542,1.502475406875873,66.05786626309342,1,n,1.0866746000001513,incorrect,c
140,2F4K,141,2,53.405636462232906,37.15246694880087,1.5179971623457482,40.96940306053443,1,v,2.9024402000004557,correct,v
141,2F4K,142,2,34.75487619723601,56.54814968493463,1.0300013911222694,57.9605445752626,2,b,1.977867900000092,correct,b
142,2F4K,143,1,66.32529991077107,50.11376555831858,1.9858532257354011,52.45897006274168,2,n,1.2006320000000414,correct,n
143,2F4K,144,1,68.68041727889464,55.30599049014851,2.085527763782246,56.921164152024254,2,n,1.3341896000001725,correct,n
144,2F4K,145,2,58.420674210610144,46.545916711809824,1.6848500822791346,49.315046305536654,1,v,2.85272569999961,correct,v
145,2F4K,146,2,46.29942580667005,66.94861898672431,1.3094697879017947,66.03822883308668,2,b,1.6865542000005007,correct,b
146,2F4K,147,2,27.763747762347627,42.75097759752195,0.8906388399414451,45.9385878558858,2,b,1.2249368000002505,correct,b
147,2F4K,148,2,57.62911139551501,78.43417832880078,1.6573442998100163,73.16753533836172,2,v,2.6100253999993583,incorrect,b
148,2F4K,149,1,72.42946082102047,59.57412509663074,2.254619260090202,60.43485859290454,2,n,1.2335972000000766,correct,n
149,2F4K,150,2,66.57634918966636,59.243951404614805,1.99624732677694,60.16919437327967,1,v,1.3038096999998743,correct,v
150,2F4K,151,1,37.57259364171709,47.60454549680148,1.0921551433677947,50.25234806325764,1,c,1.2258708999997907,correct,c
151,2F4K,152,1,56.877380158715376,45.14297420181523,1.6316384439156089,48.06892378759461,2,n,2.713190599999507,correct,n
152,2F4K,153,1,46.07762721019077,30.434187452999357,1.303444194029028,35.16702703901651,2,c,2.65856309999981,incorrect,n
153,2F4K,154,2,28.906438876249567,45.640264008837065,0.9120552748585188,48.511049832285856,2,b,0.9094637999996849,correct,b
154,2F4K,155,2,57.10220351828999,39.8313301580237,1.6392843269959243,43.339728970181184,1,v,1.2127673000004506,correct,v
155,2F4K,156,1,65.48762873997075,52.99813639823044,1.9515614117079811,54.95881743363869,2,n,4.5206146000000444,correct,n
156,2F4K,157,2,63.35791219226576,52.28543341068367,1.867019978775835,54.34553340168562,1,v,0.8362244999998438,correct,v
157,2F4K,158,1,39.25705661217594,54.7054171674837,1.131088408681436,56.41422207144793,1,c,4.8615359999994325,correct,c
158,2F4K,159,2,54.84340510783151,39.74765024245381,1.5640668248930476,43.265411448716,1,v,1.1460107000002608,correct,v
159,2F4K,160,1,38.23781061152017,51.21725432330451,1.1073676782542812,53.42072676265605,1,c,2.2144318999999086,correct,c
160,2F4K,161,2,48.48485655192221,66.03440607392164,1.3703512145966334,65.38146365054203,2,v,1.0972202000002653,incorrect,b
161,2F4K,162,1,62.3350064649202,50.687989897201255,1.827726489234768,52.96019950690596,2,c,0.7703176999993957,incorrect,n
162,2F4K,163,2,48.35513376805467,70.44728192678716,1.3666596604757284,68.43873524132529,2,v,0.9032456999993883,incorrect,b
163,2F4K,164,1,54.30642091583772,38.83740530644667,1.5466991751474832,42.45799264648382,2,c,1.0246390000002066,incorrect,n
164,2F4K,165,2,44.467488538974784,63.27447838558494,1.2605249342164964,63.33045781083018,2,b,1.3523365999999442,correct,b
165,2F4K,166,2,54.715424155471005,64.03200424068022,1.5599099247277213,63.90324596557753,2,v,1.091404099999636,incorrect,b
166,2F4K,167,1,61.87755470497285,51.84910619847943,1.8104227778967976,53.96855434591718,2,n,1.1338514999997642,correct,n
167,2F4K,168,1,49.75672141986894,62.10459511206314,1.4070773537669783,62.43201256912142,1,n,0.8729224999997314,incorrect,c
168,2F4K,169,1,68.47270809180391,62.68894208692901,2.076539395992364,62.88284116607496,2,n,1.431377099999736,correct,n
169,2F4K,170,2,66.30273436782291,49.18972684538111,1.98492160797284,51.649233498640015,1,v,1.1828444000002492,correct,v
170,2F4K,171,1,42.31393883838622,60.28441501625731,1.205321626836836,61.00252462265903,1,n,0.9882132999991882,incorrect,c
171,2F4K,172,1,39.16591050009042,48.69736988715859,1.128946653062079,51.21633424663515,1,c,1.2635307999998986,correct,c
172,2F4K,173,1,36.9740569193454,55.32675744541443,1.078646180971788,56.93864362733565,1,c,1.2734494000005725,correct,c
173,2F4K,174,1,66.19179233020182,52.76069861903849,1.980347721757305,54.75485337846753,2,n,1.6315254999999524,correct,n
174,2F4K,175,2,28.609797123492516,44.09065335607615,0.9064465857018283,47.13223288877423,2,b,2.427020099999936,correct,b
175,2F4K,176,2,60.93888482873732,73.00081287334805,1.7754276182540678,70.06970958625526,2,b,1.5306220999991638,correct,b
176,2F4K,177,1,55.02737834626823,36.06523223000247,1.5700618038103111,40.014186794799386,2,n,3.568758500000513,correct,n
177,2F4K,178,2,41.95314848702062,57.40465729372298,1.1963126293185118,58.66958373416538,2,v,1.9529656000004252,incorrect,b
178,2F4K,179,1,34.29756545040607,55.54046974759421,1.0202530075961955,57.11832675695124,1,c,3.1805217999999513,correct,c
179,2F4K,180,1,58.91260637622226,42.26208418025716,1.702173612109169,45.502934947527045,2,n,3.1015730999997686,correct,n
180,2F4K,181,1,42.07479993739262,56.81234018625992,1.1993427374108072,58.17993723393234,1,n,2.447146299999986,incorrect,c
181,2F4K,182,1,66.53203067025173,58.9648516694024,1.994408477201709,59.94376127084728,2,n,3.380730500000027,correct,n
182,2F4K,183,2,51.87009777364752,57.43790379878357,1.47029223485712,58.69697400485667,2,v,4.078703799999857,incorrect,b
183,2F4K,184,1,53.536734226927074,66.00547766469386,1.5221410222285072,65.36049170465343,1,n,5.0,incorrect,c
184,2F4K,185,1,51.28247239705972,30.16524579949999,1.4524355748051914,34.940868312697525,2,n,5.0,incorrect,n
185,2F4K,186,1,44.62970641603832,32.605150940074566,1.2647841492105931,37.01234960906097,2,n,4.916199100000085,correct,n
186,2F4K,187,2,56.28311670476277,73.79525214543648,1.6115997660214498,70.55503526015995,2,v,0.8607879999999568,incorrect,b
187,2F4K,188,2,27.32792793922364,42.64621289866013,0.8826037842750212,45.84522809482856,2,b,1.073341999999684,correct,b
188,2F4K,189,1,43.80485076475336,28.08974669129585,1.2432750702652935,33.21584647727839,2,n,2.330832000000555,correct,n
189,2F4K,190,2,62.60431045442111,45.78991676206552,1.8379905048760976,48.644018689755256,1,v,1.3465530000003127,correct,v
190,2F4K,191,2,57.43814614663212,45.97321292272348,1.650776017826589,48.806822450001405,1,b,1.5161643000001277,incorrect,v
191,2F4K,192,2,54.90572378001456,74.2798872600389,1.5660949822101866,70.84580061726382,2,b,0.8243443999999727,correct,b
192,2F4K,193,2,66.1752474970219,56.97988633944678,1.979666519848575,58.31875774209516,1,v,1.9110379000003377,correct,v
193,2F4K,194,1,52.39572408837073,63.018618165851954,1.486450810658215,63.135379335387285,1,n,3.394062400000621,incorrect,c
194,2F4K,195,1,43.45787134933813,28.22820226083106,1.234336834086122,33.32974403439459,2,c,5.0,incorrect,n
195,2F4K,196,2,63.45238298113981,51.48596385660849,1.8706912787476024,53.65397233194881,1,v,1.5829742999994778,correct,v
196,2F4K,197,1,55.9988768949687,47.18266646194187,1.6021023387435285,49.87918675267114,2,n,2.214147000000594,correct,n
197,2F4K,198,1,58.70721752457322,68.31574862787457,1.694919231408061,66.99807205092524,1,n,1.5880210999994233,incorrect,c
198,2F4K,199,1,57.594666805941,36.884607472046966,1.6561576435204692,40.73363578706631,2,n,0.9096896000000925,correct,n
199,2F4K,200,1,47.8447676679841,25.51912208625692,1.3522323154968576,31.13490590818409,2,n,0.9214468000000124,correct,n
200,2F4K,201,1,57.76292249073303,35.26163986974921,1.6619623211709722,39.31142814835124,2,n,3.362185699999827,correct,n
201,2F4K,202,2,69.77603885496764,58.55734557504815,2.133587334226827,59.61321788766305,1,v,1.3339934999994512,correct,v
202,2F4K,203,2,54.15401081769082,63.81910554726317,1.5418050136733017,63.74299709504795,2,b,1.8767951999998331,correct,b
203,2F4K,204,1,54.1458740943898,62.48385510295733,1.5415441647932395,62.72507824683113,1,n,1.8621499999999287,incorrect,c
204,2F4K,205,1,46.55762628540054,62.740700795200034,1.3165194070440824,62.92257653078097,1,c,1.6861054000000877,correct,c
205,2F4K,206,1,50.04355298481247,65.5751853051747,1.4154949375709542,65.04719346733155,1,c,1.4992568999996365,correct,c
206,2F4K,207,1,60.75488441258647,45.58380205867352,1.7686474899448263,48.4608719518632,2,n,0.9337224000000788,correct,n
207,2F4K,208,1,49.25441982307603,66.68306891176901,1.3924568241671114,65.84866789617882,1,c,1.5722504000004847,correct,c
208,2F4K,209,2,50.30726714163203,39.48305999972355,1.4232785250878923,43.030518415952834,1,v,4.903676399999313,correct,v
209,2F4K,210,2,54.717550186148095,44.30844695892835,1.5599788891915036,47.32619210016657,1,v,1.1217316000002029,correct,v
210,2F4K,211,1,41.30952887355196,60.72229510432962,1.1804082149306367,61.34979288626476,1,c,5.0,correct,c
211,2F4K,212,1,71.45137207514082,62.9792830255611,2.209226230928143,63.1053173452957,2,n,3.0659876999998232,correct,n
212,2F4K,213,1,55.8479012502513,41.95122445253832,1.597080505140169,45.22597075221877,2,n,1.8136003999998138,correct,n
213,2F4K,214,2,53.122888121055006,36.26648079888545,1.5090981536580366,40.19063527286151,1,v,1.0624555000003966,correct,v
214,2F4K,215,1,79.85496911008143,62.506673203563366,2.631068980863586,62.74265597274452,2,n,1.8306365000007645,correct,n
215,2F4K,216,2,45.56681945733367,53.37724234562923,1.289672348186819,55.28372171562448,2,v,1.4251679999997577,incorrect,b
216,2F4K,217,1,48.37784252058308,34.19894823990347,1.3673051703844628,38.38694759453296,2,n,1.5419480999998996,correct,n
217,2F4K,218,2,33.40260766739494,44.940617619708576,1.0014415573264794,47.888905741272055,2,b,1.2846336000002339,correct,b
218,2F4K,219,1,47.18715296916347,60.08017332686696,1.333866784238671,60.83984015769453,1,n,2.0738375999999334,incorrect,c
219,2F4K,220,2,30.632745928170053,53.44377760117568,0.945390568973617,55.340646326646976,2,b,3.7570402999999715,correct,b
220,2F4K,221,1,31.070409543469065,39.36753160363625,0.954033801000862,42.92800370356728,1,c,4.229609699999855,correct,c
221,2F4K,222,1,25.196723590836456,45.68044831798348,0.8443433594954963,48.546758260237645,1,c,2.4705604000000676,correct,c
222,2F4K,223,2,55.57012914790808,70.32987872489765,1.5878821856989316,68.36121579047973,2,v,2.7860058000005665,incorrect,b
223,2F4K,224,2,47.52160626074114,35.97899644503928,1.343175842118143,39.93863152506184,1,v,1.928996200000256,correct,v
224,2F4K,225,1,48.29610842249064,66.24007096618658,1.3649832547674734,65.53022940662541,1,c,3.8905768999993597,correct,c
225,2F4K,226,2,44.64869533860661,34.12686445628361,1.2652836649761938,38.32445610743567,1,v,1.8975760000002992,correct,v
226,2F4K,227,2,25.454757411855493,44.86989528207691,0.8488859971994801,47.82597735428335,2,b,1.8076872999999978,correct,b
227,2F4K,228,2,40.23440884839923,56.02633834480122,1.1543112330607503,57.52546498313946,2,v,2.12342499999977,incorrect,b
228,2F4K,229,1,44.37524991810507,27.78396500857092,1.258109503832035,32.96492988813583,2,c,2.3077183999994304,incorrect,n
229,2F4K,230,1,57.05375812235386,42.30475220158849,1.637633753839942,45.54095385728705,2,n,1.6005073000005723,correct,n
230,2F4K,231,2,58.00735776278553,44.84408217491322,1.6704313959375698,47.803007352297904,1,v,3.5082093999999415,correct,v
231,2F4K,232,2,47.73291614598365,69.37401668780879,1.349090830700603,67.72205145606168,2,b,0.9153948000002856,correct,b
232,2F4K,233,1,45.97275627374346,41.02618522902144,1.3006048314760132,44.40220490101228,2,c,2.822465000000193,incorrect,n
233,2F4K,234,2,73.02028797431653,57.95508677654305,2.282490157756257,59.12174745022316,1,v,1.109603099999731,correct,v
234,2F4K,235,1,44.56211468798828,58.157915628689935,1.263007705264111,59.28765246286618,1,c,2.6534582000003866,correct,c
235,2F4K,236,2,51.50729509536412,39.72251865622431,1.4592416903929932,43.243094388093866,1,v,2.1257805000004737,correct,v
236,2F4K,237,1,41.56648158607552,53.54020439533369,1.1867322303394106,55.42309203301241,1,c,1.8938465999999607,correct,c
237,2F4K,238,2,68.05143749580652,56.81885487467464,2.058428197088261,58.18533958732054,1,v,0.8307421999998041,correct,v
238,2F4K,239,2,34.160735718034765,18.7685596019039,1.0173542134497735,26.03024068649932,1,b,1.4741294999994352,incorrect,v
239,2F4K,240,1,49.80581397029135,35.23803728238903,1.408514503365059,39.29083296033492,2,c,3.01053950000005,incorrect,n
240,2F4K,241,2,34.4699544082531,48.49267792327341,1.023916899818596,51.03608971981856,2,v,4.855316600000151,incorrect,b
241,2F4K,242,1,53.96458256990656,73.81759098291877,1.5357437128534108,70.56852665958927,1,n,4.2789395999998305,incorrect,c
242,2F4K,243,2,37.23322039968584,45.34946762707109,1.0844748620710405,48.25255985049321,2,b,2.2736461000004056,correct,b
243,2F4K,244,2,30.86705779323215,49.213083284619685,0.9500081094952902,51.66974554901796,2,b,1.274830800000018,correct,b
244,2F4K,245,1,47.82910311952404,62.72149573701232,1.351791917660907,62.90783650544973,1,n,3.611369199999899,incorrect,c
245,2F4K,246,2,58.32368050804127,77.78948470442117,1.6814552867563866,72.82773669771149,2,v,1.013340800000151,incorrect,b
246,2F4K,247,1,30.24864776597444,42.20531117452872,0.937869717901356,45.452349024391104,1,c,4.450001500000326,correct,c
247,2F4K,248,2,45.108319346586846,59.05996307974819,1.277434731114712,60.020672260889626,2,v,1.1997598000007201,incorrect,b
248,2F4K,249,1,49.375803103630815,40.461102332250505,1.3959759560263043,43.89945118602549,2,c,3.224113000000216,incorrect,n
249,2F4K,250,1,40.1473680237749,56.52011276366029,1.1522238619650065,57.93722641748419,1,n,4.7220133000000715,incorrect,c
250,2F4K,251,2,57.43499435421516,44.777791548828425,1.6506678300386006,47.74401422402781,1,v,1.061063500000273,correct,v
251,2F4K,252,2,47.173401679760914,30.364423968132392,1.333485419527457,35.108306596652945,1,v,4.6491297000002305,correct,v
252,2F4K,253,2,49.07050526968986,37.52690789797172,1.3871416884508825,41.29941946734499,1,v,1.7953810999997586,correct,v
253,2F4K,254,2,47.86053974157335,65.1653611250031,1.3526758812838768,64.74646486480634,2,b,2.8649264999994557,correct,b
254,2F4K,255,2,70.2686611857041,54.88651900231473,2.1555556895983026,56.56737967745612,1,v,1.332888599999933,correct,v
255,2F4K,256,1,44.21860723982175,56.516603603013735,1.2540181396505363,57.93430739281082,1,c,2.6874684999993406,correct,c
256,2F4K,257,1,70.45303711041913,46.913911075306345,2.1638359306687778,49.641205736763325,2,n,2.5613501999996515,correct,n
257,2F4K,258,1,48.73563318659384,71.77189660466907,1.377515923272783,69.29809094055861,1,n,1.7832235000005312,incorrect,c
258,2F4K,259,2,56.85261581913468,38.69709667712651,1.6307984317449051,42.33371233669414,1,v,2.285817599999973,correct,v
259,2F4K,260,1,48.67327111987803,58.3690240828761,1.3757307421710123,59.45991345454166,1,c,1.158158899999762,correct,c
260,2F4K,261,1,63.50461643696931,51.00024992194231,1.87272426048097,53.23208076468891,2,n,2.5965153000006467,correct,n
261,2F4K,262,1,60.004292551399615,52.159676295929344,1.7412565461251543,54.23699630246955,2,n,5.0,correct,n
262,2F4K,263,2,32.170800090276586,44.52499343429236,0.9761156563881572,47.51899672130222,2,v,1.552647700000307,incorrect,b
263,2F4K,264,2,48.76185680173951,58.86062920366696,1.3782672940893246,59.85937892639092,2,v,1.1523520999999164,incorrect,b
264,2F4K,265,1,56.96927519480839,41.94693432918136,1.63475932852406,45.22214876545728,2,n,4.090838000000076,correct,n
265,2F4K,266,1,52.161956826166914,69.470199394468,1.4792426275277957,67.78700764442401,1,n,0.9457292999995843,incorrect,c
266,2F4K,267,1,49.92271189369038,31.286408460956235,1.4119425189600223,35.8873609937523,2,n,0.7279580000003989,correct,n
267,2F4K,268,2,50.43586989121215,65.8844269999245,1.4270897773501294,65.27260997736997,2,b,1.9363651000003301,correct,b
268,2F4K,269,1,49.63894941021009,60.920932648066746,1.4036356372984449,61.50663417934129,1,n,1.2188249999999243,incorrect,c
269,2F4K,270,1,55.0567201481951,73.71589051983682,1.571020062449363,70.50703617379848,1,c,1.8256867000000057,correct,c
270,2F4K,271,1,58.05980582652542,75.13998926331476,1.6722542070503268,71.35179683457129,1,c,1.3173409999999421,correct,c
271,2F4K,272,2,36.70576862900208,22.78637793779161,1.0726452785526637,29.00036934029051,1,v,4.667193000000225,correct,v
272,2F4K,273,2,52.746617288482,49.28352176484854,1.4973365420615237,51.73159242415485,1,v,3.556786999999531,correct,v
273,2F4K,274,1,54.2808191813628,41.48158139619123,1.5458759732543688,44.80764984701417,2,c,3.319243500000084,incorrect,n
274,2F4K,275,2,53.11890285441683,68.59057439470374,1.508973097929111,67.18770757696825,2,b,1.9106903000001694,correct,b
275,2F4K,276,2,42.051829346940174,57.60006824881785,1.1987699961572544,58.83042914199355,2,v,1.6304826999994475,incorrect,b
276,2F4K,277,2,36.90976754197321,50.25622927732894,1.0772051454627565,52.58347123985173,2,b,2.100233500000286,correct,b
277,2F4K,278,2,51.62436916420014,62.52352438757944,1.462798522832391,62.75563313932047,2,b,2.215010500000062,correct,b
278,2F4K,279,2,46.81445216089902,28.769171020969345,1.3235691447530336,33.77642520296671,1,v,1.3463116999992053,correct,v
279,2F4K,280,2,59.12399244735388,53.08765530135421,1.7096722397633048,55.035622295245545,1,v,1.86835020000035,correct,v
280,2F4K,281,1,39.43649246032588,49.34536806107793,1.1353166811457966,51.78587830280307,1,c,5.0,correct,c
281,2F4K,282,1,35.49442744902422,54.600369812775575,1.0459637286477077,56.32527099281618,1,c,1.0549516999999469,correct,c
282,2F4K,283,1,63.50169374084922,47.64009299708916,1.8726104477044672,50.28376649404149,2,n,2.8659809000000678,correct,n
283,2F4K,284,1,63.68747390560581,45.03839404702799,1.8798586891662992,47.97589562610925,2,n,0.8727528999997958,correct,n
284,2F4K,285,1,56.44379174640125,48.35700809341832,1.6169933575700774,50.91653986889334,2,n,2.3844128000000637,correct,n
285,2F4K,286,1,63.462262878432085,51.635764294825016,1.8710756455582516,53.78383065892109,2,n,2.482396399999743,correct,n
286,2F4K,287,2,57.23052490276457,49.05877852016064,1.643664382326102,51.53419154293916,1,v,1.5283172999997987,correct,v
287,2F4K,288,1,48.21866164467116,55.05052068110044,1.3627867723413336,56.70586101787919,1,c,1.3160080999996353,correct,c
288,2F4K,289,1,37.03112436945872,49.55668087052936,1.0799269532074671,51.9712382977978,1,c,2.79817279999952,correct,c
289,2F4K,290,2,58.945259179609096,49.8105765362729,1.703329773581923,52.193697457081534,1,v,1.5212184000001798,correct,v
290,2F4K,291,1,61.27304851881468,69.51832522625283,1.7878075633437902,67.81945560821718,1,n,5.0,correct,c
291,2F4K,292,1,53.78198175957585,69.86385099862333,1.5299234325809306,68.05136896666315,1,c,4.904805799999849,correct,c
292,2F4K,293,1,47.01117025220603,57.45661626859038,1.328994475575311,58.712385923902886,1,c,4.831234500000392,correct,c
293,2F4K,294,1,21.9950490085825,40.43602450242877,0.7899599789489168,43.87715002161734,1,n,1.9035669000004418,incorrect,c
294,2F4K,295,1,39.988779212904845,52.50290010408711,1.148430360811818,54.53299770363596,1,c,1.110012299999653,correct,c
295,2F4K,296,1,61.71137395066534,49.91481989871808,1.8041774207067076,52.2849513017722,2,c,1.334148400000231,incorrect,n
296,2F4K,297,2,42.879622544000185,31.29321816924127,1.2195836177153907,35.89313873893953,1,v,1.837801199999376,correct,v
297,2F4K,298,1,48.968316695174046,54.47653669515289,1.384197208950686,56.22030762024028,1,n,2.695986400000038,incorrect,c
298,2F4K,299,1,50.06411160064255,68.40912854994174,1.4161001972484322,67.06263258762138,1,c,5.0,incorrect,c
299,2F4K,300,2,50.78914083238238,27.65495014934411,1.437611868994891,32.859326174302666,1,v,4.193081000000348,correct,v
300,2F4K,301,1,47.79113163939595,34.74275298016747,1.3507249711673657,38.85929508785021,2,n,2.4947283999999854,correct,n
301,2F4K,302,1,43.229625725014905,54.60433221289332,1.2284922630537598,56.32862772900141,1,c,2.6754407999997056,correct,c
302,2F4K,303,1,25.27288899148188,45.84137680841227,0.8456817027219775,48.68973210540243,1,c,0.7090508999999656,correct,c
303,2F4K,304,1,53.39736087022238,60.91860133925552,1.5177359586125834,61.50479594225662,1,c,1.53582649999953,correct,c
304,2F4K,305,1,68.01198485531103,55.77252648916148,2.056740166239994,57.31302024919948,2,c,1.1391320000002452,incorrect,n
305,2F4K,306,1,57.6857298038315,39.257155377914046,1.6592967177676488,42.83008876103023,2,n,0.8668660000003001,correct,n
306,2F4K,307,2,38.26576720498168,58.07844527660455,1.1080116236655482,59.22269567152016,2,v,1.135161600000174,incorrect,b
307,2F4K,308,2,55.96207207037227,66.25120651335135,1.600876663137232,65.53826748349593,2,v,1.8743901999996524,incorrect,b
308,2F4K,309,1,69.50179428235819,62.03256881068137,2.1214546349655503,62.3761639217455,2,n,4.583462399999917,correct,n
309,2F4K,310,1,53.724812007972034,34.3539408325945,1.528105722583462,38.52141189653064,2,c,5.0,correct,n
310,2F4K,311,1,42.53112127443538,52.575744986136925,1.210777388760225,54.59572815583451,1,n,4.376114299999244,incorrect,c
311,2F4K,312,1,58.16578462802697,39.96526148967178,1.6759435297728016,43.45870382049649,2,n,4.606680800000504,correct,n
312,2F4K,313,2,54.94193592588047,33.07607846139439,1.5672747121445778,37.41690148691701,1,v,2.6403418999998394,correct,v
313,2F4K,314,1,59.620925565346106,44.61957867140121,1.7274306189819244,47.60319634586391,2,n,2.312633800000185,correct,n
314,2F4K,315,2,47.90536447229341,39.31933918160732,1.353937303777487,42.88524870841107,1,v,4.42460199999914,correct,v
315,2F4K,316,2,48.77566651385823,30.442429175167568,1.3786631408999588,35.17396667765217,1,v,1.012513399999989,correct,v
316,2F4K,317,2,61.9540654993466,78.98882292610946,1.8133054480955244,73.45369805431118,2,b,1.3102609999996275,correct,b
317,2F4K,318,2,44.589272537552574,62.23485527288574,1.2637211670717294,62.53286046243898,2,v,1.4980052000000796,incorrect,b
318,2F4K,319,1,36.97282535351015,51.14819081084271,1.0786185575294724,53.36071549107807,1,c,5.0,incorrect,c
319,2F4K,320,1,22.0372392208198,34.72752442139458,0.7906533313712251,38.84604628715283,1,c,0.5344371999999566,correct,c
320,2F4K,321,1,49.90114677481484,55.56572584845114,1.4113094978161398,57.13953737875532,1,n,4.248716999999488,incorrect,c
321,2F4K,322,1,48.9724685964338,59.48775190615724,1.3843167206576552,60.365469068070645,1,c,1.546668399999362,correct,c
322,2F4K,323,1,26.33686712851729,39.060334916191,0.8646007626087227,42.65555952683088,1,c,4.108911299999818,correct,c
323,2F4K,324,2,57.767198004914896,44.583531399838094,1.6621100875212345,47.57110829106051,1,v,1.175307200000134,correct,v
324,2F4K,325,2,34.82274015061261,48.02995975584274,1.031455946147161,50.62808679817796,2,v,0.9213313000000198,incorrect,b
325,2F4K,326,2,41.70861494238289,30.24666210763532,1.1902449008832228,35.00927255972234,1,v,1.0381869000002553,correct,v
326,2F4K,327,2,67.04031545918026,56.14763187350584,2.015600143001085,57.626802051420505,1,v,1.9956053999994765,correct,v
327,2F4K,328,2,49.36332422362636,37.30341547388527,1.3956137598042748,41.102382876358334,1,b,1.8742813999997452,incorrect,v
328,2F4K,329,1,55.57274574220337,47.9123384218094,1.5879685855905223,50.52425808477157,2,n,1.5963694000001851,correct,n
329,2F4K,330,1,32.051461654533746,48.69041011298943,0.9736963571978808,51.21020826033845,1,c,1.7530953000004956,correct,c
330,2F4K,331,1,75.46976169640264,63.82114152844265,2.401761425762253,63.7445323026408,2,n,2.1421909999999116,correct,n
331,2F4K,332,2,64.56529036550806,50.9099102761474,1.914488124147179,53.15347430807572,1,v,1.7664463999999498,correct,v
332,2F4K,333,1,42.51226560836237,24.4610169118024,1.210302745020628,30.298333238132926,2,c,1.8014411000003747,incorrect,n
333,2F4K,334,2,69.47082324956835,61.7948358400863,2.120088806019793,62.191397760217846,1,v,1.4980307000005268,correct,v
334,2F4K,335,2,64.14529157943653,47.63656557601743,1.8978404976185408,50.28064897846425,1,v,1.794364499999574,correct,v
335,2F4K,336,2,53.97244799805252,73.00469013978025,1.5359949149999697,70.07210419314369,2,v,3.749680600000829,incorrect,b
336,2F4K,337,2,27.98056112571312,40.94334164424061,0.8946633569804322,44.328472717399634,2,b,1.1885056999999506,correct,b
337,2F4K,338,2,46.82396278791597,56.6761735240865,1.3238309301672917,58.06693536597785,2,v,1.134165700000267,incorrect,b
338,2F4K,339,1,65.12720159074688,54.45857697145221,1.9369893849335151,56.205075232080766,2,n,2.166974900000241,correct,n
339,2F4K,340,1,60.98076442204309,41.74834438453255,1.7769744435357873,45.04524152985472,2,n,3.896628399999827,correct,n
340,2F4K,341,1,49.9669745255581,33.28372400950765,1.4132426910740603,37.595721790230975,2,c,2.213079999999536,incorrect,n
341,2F4K,342,1,43.4340475964131,51.81456828547703,1.2337254938073283,53.93866695707116,1,c,1.2795372000000498,correct,c
342,2F4K,343,1,48.55523678442989,64.94094209627924,1.3723582135187182,64.58083443040134,1,c,1.1998037000003023,correct,c
343,2F4K,344,1,51.86095629526727,29.271617470526927,1.4700127710709394,34.19361188876686,2,n,2.834583300000304,correct,n
344,2F4K,345,1,56.59344390884705,47.1578787953753,1.6220331641641246,49.857245661494254,2,c,1.2430930999998964,incorrect,n
345,2F4K,346,2,55.91753968032919,71.89432401776448,1.5993948974782637,69.3760819991682,2,v,1.9424241999995502,incorrect,b
346,2F4K,347,1,39.11734125590327,47.41148351495558,1.1278070274847003,50.08164492914115,1,c,1.0965721000002304,correct,c
347,2F4K,348,1,39.39667529828104,23.45668570505048,1.134377056807679,29.5159455420318,2,c,2.585722199999509,incorrect,n
348,2F4K,349,1,34.67064933662737,46.34362899607704,1.028198975786596,49.13561654416478,1,c,1.146521799999391,correct,c
349,2F4K,350,2,34.97246070981584,44.70952148179049,1.0346722351901512,47.683253880006745,2,v,1.991041100000075,incorrect,b
350,2F4K,351,1,36.164916940668064,50.737315662624354,1.0606491494461123,53.0031798094082,1,n,1.4979960999999093,incorrect,c
351,2F4K,352,2,58.46645157766936,36.00998218239998,1.6864546775619078,39.96577585597559,1,v,1.1399385999993683,correct,v
352,2F4K,353,2,66.85389285052412,54.34671699247235,2.007801695243859,56.11014904663422,1,v,1.3901887000001807,correct,v
353,2F4K,354,2,54.57970230793248,46.03520546557135,1.5555136654399273,48.86186921955159,1,v,0.9760532000000239,correct,v
354,2F4K,355,2,41.71032775714488,50.26637000367042,1.1902872945690306,52.59232973440777,2,v,4.424493299999995,incorrect,b
355,2F4K,356,1,53.66859251343328,33.90252590304418,1.526320332069791,38.13015664556239,2,n,1.5101035999996384,correct,n
356,2F4K,357,2,68.21074681019184,49.037330023405005,2.0652585502368783,51.515341875966,1,v,1.0601518000003125,correct,v
357,2F4K,358,1,54.701877796014216,35.16654574579604,1.5594705777268822,39.22846732801848,2,c,2.1434930000004897,incorrect,n
358,2F4K,359,1,52.81664469283269,34.564105711165645,1.4995185202849162,38.70394867828799,2,n,2.1184582999994745,correct,n
359,2F4K,360,1,50.19269878554986,66.71344898643581,1.4198917678395804,65.87040501148212,1,n,2.374306599999727,incorrect,c
360,2F4K,361,2,49.26862650008943,65.35242858786177,1.3928682438941844,64.88401493468002,2,b,3.9813101999998253,correct,b
361,2F4K,362,1,63.14497830737457,49.896734898340014,1.858771396298663,52.26912332746265,2,n,2.238450599999851,correct,n
362,2F4K,363,1,45.12977273684318,62.4945829616628,1.278004735561515,62.73334313491872,1,n,2.4765080999995916,incorrect,c
363,2F4K,364,2,57.59198723381195,44.72939894212879,1.6560653647622663,47.70094539791638,1,v,1.3280766999996558,correct,v
364,2F4K,365,1,37.0947379976623,23.15197999022527,1.0813564347049744,29.28090864774629,2,c,1.4083449999998265,incorrect,n
365,2F4K,366,2,32.891699502444766,44.94913719475854,0.9908585223645568,47.896485968813145,2,b,1.0610288999996556,correct,b
366,2F4K,367,2,44.70564100928442,60.48077066013837,1.2667828405235655,61.15850528346246,2,v,1.8342891000002055,incorrect,b
367,2F4K,368,1,48.24860113593139,28.387533800232603,1.3636354724132662,33.4610314233123,2,c,3.215953300000365,incorrect,n
368,2F4K,369,1,35.26206985524423,47.654148315413984,1.0409220932608527,50.29618812823071,1,n,5.0,incorrect,c
369,2F4K,370,2,63.70256845953693,45.55484945023078,1.8804488363838392,48.435139517257845,1,v,1.9291199999997843,correct,v
370,2F4K,371,1,31.238357600437052,45.90258412361863,0.9573714759803612,48.74409766817784,1,c,1.3765917999999147,correct,c
371,2F4K,372,2,62.141009019917874,50.17656638709084,1.8203681765166504,52.513864361378005,1,v,0.932757099999435,correct,v
372,2F4K,373,1,68.76047242427143,57.94753629459304,2.089002433083185,59.11556398671154,2,n,2.464431099999274,correct,n
373,2F4K,374,1,55.79967800103228,40.35886232227615,1.5954797966001113,43.80853757736002,2,n,1.2552365000001373,correct,n
374,2F4K,375,2,43.27017278270382,59.56298665947997,1.2295285060004075,60.42591464481352,2,v,3.4767804000002798,incorrect,b
375,2F4K,376,2,62.47694958909359,43.67433306399056,1.8331292206293608,46.761373646630425,1,v,3.417165400000158,correct,v
376,2F4K,377,2,43.78002175751831,52.87913087631737,1.242633327196255,54.85663403123373,2,b,1.3272275999997873,correct,b
377,2F4K,378,2,59.645709276775705,43.30972382215775,1.7283211018882148,46.43650222578115,1,v,0.8669310000004771,correct,v
378,2F4K,379,1,54.46045913095699,44.31188095814127,1.551661403946447,47.32924995976697,2,n,4.066488700000264,correct,n
379,2F4K,380,2,52.42230888079671,68.81744853614009,1.4872727704613862,67.34340255345698,2,v,1.2202642000002015,incorrect,b
380,2F4K,381,1,57.81132727791287,43.31192754006244,1.663636010287452,46.43846591402843,2,n,3.155285800000456,correct,n
381,2F4K,382,1,51.4466965694385,48.15805495410148,1.457404042064994,50.74110890013339,2,n,3.5264115999998467,correct,n
382,2F4K,383,2,42.28990971304725,60.35007657682487,1.204719512275987,61.054731033545416,2,b,4.940471200000502,correct,b
383,2F4K,384,1,54.03347185321731,64.35654392517942,1.5379452612229536,64.14641212800191,1,n,1.8318061999998463,incorrect,c
384,2F4K,385,2,64.77649560820646,53.38609481454068,1.9229148355905232,55.29129720207053,1,v,0.7940166999997018,correct,v
385,2F4K,386,2,59.57227049223529,43.47056601384557,1.7256837683251958,46.57982126836232,1,b,2.364852100000462,incorrect,v
386,2F4K,387,2,44.73214618407045,60.0339622080832,1.2674812325115352,60.8029699939484,2,b,0.7567354000002524,correct,b
387,2F4K,388,2,52.8592805761709,65.80659516119196,1.5008485653293893,65.2159986138844,2,b,1.1035193999996409,correct,b
388,2F4K,389,1,51.74786630336045,61.93755966989251,1.466559891396032,62.30240172130095,1,n,3.6295779000001858,incorrect,c
389,2F4K,390,1,45.588258691184166,32.60491102504061,1.2902474333679754,37.01214387147995,2,c,0.6787213999996311,incorrect,n
390,2F4K,391,2,27.314815137882213,46.663447398338064,0.8823631548275569,49.419252112544086,2,b,3.59320149999985,correct,b
391,2F4K,392,2,51.170205366071386,32.80169578581406,1.4490487791549855,37.18102039738452,1,v,0.8117559000002075,correct,v
392,2F4K,393,2,36.13910297028781,46.98060161647261,1.0600799601626472,49.70027779459555,2,b,2.6585324999996374,correct,b
393,2F4K,394,1,39.37818062044556,59.410740492094405,1.1339408751371909,60.30353574955181,1,c,3.2350998999991134,correct,c
394,2F4K,395,2,62.250425438763024,43.60944539129503,1.8245146854445675,46.70356213618973,1,v,3.3625370999998268,correct,v
395,2F4K,396,1,63.52328418504946,50.41462296830048,1.873451364892973,52.72178108852639,2,n,4.837279300000773,correct,n
396,2F4K,397,1,24.585776019499963,33.87871586033248,0.8336844207098507,38.109551509058086,1,c,2.098819299999377,correct,c
397,2F4K,398,1,54.27969134715225,43.21061306076392,1.5458397187865724,46.34818528081525,2,n,0.7043768999992608,correct,n
398,2F4K,399,2,58.55369604824068,46.38993219591224,1.6895170168714604,49.17669589898595,1,v,1.995731999999407,correct,v
399,2F4K,400,2,51.27750755275776,64.15707868237355,1.45228563159361,63.99712004014085,2,b,1.4070031000001109,correct,b
