,condition,trial,sub_task,x,y,xt,yt,cat,resp,rt,acc,correct_resp
0,4F4K,1,1,62.96018580808176,44.03303563585413,1.8516424904065203,46.93504651141065,2,n,3.241236799999797,correct,n
1,4F4K,2,1,47.36429670845392,61.52888715683864,1.3387892772792649,61.519513951340286,1,n,2.6904729999998835,incorrect,c
2,4F4K,3,1,52.81275297394475,32.65564753178052,1.4993971751303472,37.12407923177469,2,c,2.1974795999999515,incorrect,n
3,4F4K,4,2,58.34350453816487,46.04141058250416,1.6821485744724465,48.68332618394301,1,v,2.4301930999999968,correct,v
4,4F4K,5,2,58.839689968242,48.375726530288645,1.6995946401104312,50.70483297996193,1,v,1.1574803000000884,correct,v
5,4F4K,6,1,53.19460751238812,34.1855318242586,1.5113504456061115,38.4155255598046,2,n,1.3037177000001066,correct,n
6,4F4K,7,2,55.19180278596768,68.43599053274072,1.575439205713249,66.50781686887044,2,v,2.0319953000000623,incorrect,b
7,4F4K,8,2,55.69387126716619,64.35908412226148,1.5919732981126071,63.63763369553328,2,b,1.9341933000000608,correct,b
8,4F4K,9,1,62.3765472657655,46.90544352191688,1.829305991945669,49.433272249994296,2,c,2.610734500000035,incorrect,n
9,4F4K,10,1,52.23394640143997,64.23340844256339,1.4814586841172883,63.54564329424768,1,c,2.057741300000089,correct,c
10,4F4K,11,1,62.40429004278474,45.8235723173173,1.8303616135772451,48.493999132978686,2,n,1.2976767999998629,correct,n
11,4F4K,12,2,55.71941829459056,33.924683576994745,1.5928192355211888,38.19437617324402,1,v,2.4401318000000174,correct,v
12,4F4K,13,1,45.83131039878743,55.03324685709145,1.296785003281165,56.33999949654679,1,c,1.2322057999999743,correct,c
13,4F4K,14,1,35.92623216757663,55.77125391580646,1.055397861237821,56.94740182692381,1,c,1.6010954999999285,correct,c
14,4F4K,15,1,49.63752457684446,67.44673558707082,1.4035940501881057,65.83247814722417,1,n,1.6435352000000876,incorrect,c
15,4F4K,16,2,53.29556775166271,44.9578544835194,1.5145267215544045,47.74077618523287,1,v,1.5768742999998722,correct,v
16,4F4K,17,2,64.15481283522314,73.11554651392218,1.8982162862621283,69.50170781489707,2,b,1.5525310000000445,correct,b
17,4F4K,18,2,59.52131157725771,37.364981511099465,1.7238560973279158,41.13740498785798,1,v,1.8432328999999754,correct,v
18,4F4K,19,2,47.59098660875339,61.59087669796493,1.3451150723944916,61.56691028504641,2,v,1.1451140000001487,incorrect,b
19,4F4K,20,1,64.18436811942743,39.6600446582024,1.89938325981334,43.12497253649177,2,n,2.7124856999998883,correct,n
20,4F4K,21,1,58.853682486697416,52.22674583919844,1.7000892367268885,53.994830218220784,2,c,1.2991503000000648,incorrect,n
21,4F4K,22,1,55.560290971383694,68.10484603068598,1.5875573713697355,66.28332274715284,1,c,1.5100730000001477,correct,c
22,4F4K,23,1,41.271549374662094,52.475014517254905,1.179476342022168,54.20433599031395,1,c,1.0490425999998934,correct,c
23,4F4K,24,1,36.06793797957226,52.63286734027858,1.0585123775593603,54.33735158085502,1,c,2.628248800000165,correct,c
24,4F4K,25,2,50.54342821875879,63.32161531411644,1.4302851963733998,62.87234747311448,2,v,1.7860788000000412,incorrect,b
25,4F4K,26,2,37.8106968013002,58.1684394535466,1.097576048363251,58.8892843612776,2,b,1.4250600999998824,correct,b
26,4F4K,27,1,62.35300061063268,40.006980010214384,1.828410511768727,43.42653391489673,2,n,2.0812581000000137,correct,n
27,4F4K,28,2,46.33493837292843,28.135986503181257,1.3104371400951504,33.40354519648984,1,b,5.0,correct,v
28,4F4K,29,2,32.10621292563064,52.94660356561118,0.9748055619389387,54.60127117008641,2,b,1.079051500000105,correct,b
29,4F4K,30,1,36.72394493047264,42.82044811051325,1.0730507781574443,45.87772209019805,1,c,0.8307866000000104,correct,c
30,4F4K,31,2,64.2564485883714,47.78188421774598,1.9022323253648543,50.1920437832638,1,v,1.4979238000000805,correct,v
31,4F4K,32,2,44.48083666542806,54.764979732316135,1.2608748622555406,56.11818077834093,2,b,1.2855216000000382,correct,b
32,4F4K,33,2,44.55120043829509,64.55810182072295,1.262721091317537,63.78289864382891,2,b,1.0488379000000805,correct,b
33,4F4K,34,1,53.0470030661973,70.20465218742522,1.5067186967406818,67.67934005611556,1,c,1.6435983999999735,correct,c
34,4F4K,35,1,33.12894140650365,39.39130697119794,0.9957588087282936,42.89154688347263,1,c,1.655739799999992,correct,c
35,4F4K,36,2,77.10348288637243,62.89507399380456,2.4847565145144315,62.55389103351943,1,v,1.5215564999998605,correct,v
36,4F4K,37,2,51.049163358402254,33.66320818708252,1.445406112794434,37.97307528838719,1,b,1.2368834999999763,incorrect,v
37,4F4K,38,1,61.537226794071856,70.89661568910866,1.7976557895699885,68.12472451020342,1,n,1.5709085000000869,incorrect,c
38,4F4K,39,2,52.89086387937722,42.13211319010723,1.50183458087123,45.277466563040655,1,b,2.440148700000009,incorrect,v
39,4F4K,40,2,23.595684496880057,39.22965322119447,0.816695698885109,42.75120947988096,2,v,1.717892699999993,incorrect,b
40,4F4K,41,1,44.88973935933143,54.87465091305213,1.2716416552149914,56.20892784886227,1,c,2.2813284999999723,correct,c
41,4F4K,42,2,34.32631149889976,52.0797751264065,1.020863053564318,53.87063645001214,2,b,1.1639748000000054,correct,b
42,4F4K,43,2,37.26799318257663,47.48799858108444,1.085259307395034,49.93785864668301,2,b,1.0672033999999258,correct,b
43,4F4K,44,1,38.4592794161198,54.16516884661781,1.112479215569493,55.62032467331839,1,c,1.012406399999918,correct,c
44,4F4K,45,2,57.317861344542976,42.23018188368625,1.6466521703156392,45.36297793218991,1,v,1.679330899999968,correct,v
45,4F4K,46,1,71.84624287423722,60.58789601408839,2.2274411046546434,60.79484160577592,2,n,1.3096883999999136,correct,n
46,4F4K,47,2,49.39171265635987,66.55433965239325,1.3964378629424914,65.21136822593694,2,b,1.7095869999998285,correct,b
47,4F4K,48,2,52.03016439429611,60.97041706590348,1.4751942441336474,61.09059312880076,2,b,0.721118400000023,correct,b
48,4F4K,49,2,64.52442768428425,57.34962074076138,1.9128620447328857,58.23161848916652,1,v,0.9638694999998734,correct,v
49,4F4K,50,2,51.94284074073455,35.975227146308306,1.4725179516335825,39.94219631253454,1,b,0.9328246000000036,incorrect,v
50,4F4K,51,2,31.71642246882882,51.35238623442503,0.9669362452006136,53.25418628063341,2,b,0.9031639999998333,correct,b
51,4F4K,52,2,48.90436587501456,34.12045344976379,1.3823576993074964,38.36031667899575,1,b,1.1702073999999811,incorrect,v
52,4F4K,53,2,46.766102465794326,64.67721419976304,1.3222390922419756,63.86959846814661,2,b,0.7574759999999969,correct,b
53,4F4K,54,2,31.552535536373167,45.42249613499758,0.9636465999344244,48.14518973263077,2,b,0.6907421999999315,correct,b
54,4F4K,55,2,62.86792941094746,47.40735095257768,1.8480936715540184,49.86806093775788,1,v,0.8546400000000176,correct,v
55,4F4K,56,2,42.61230367624863,32.08749180071311,1.2128230774322464,36.64813347804361,1,b,1.054072700000006,incorrect,v
56,4F4K,57,2,61.5120026218199,49.57308534496463,1.7967131269555152,51.734916427124936,1,v,1.1034566000000723,correct,v
57,4F4K,58,2,55.39102381530121,46.43517423612242,1.5819792912362307,49.02530725543903,1,v,0.5701282999998512,correct,v
58,4F4K,59,1,43.37601930687872,60.74522501355621,1.2322376990407558,60.91667359185316,1,c,1.4008345999998255,correct,c
59,4F4K,60,1,55.717448624332455,38.69669134066463,1.5927539979414416,42.28896308831679,2,n,1.619325599999911,correct,n
60,4F4K,61,2,81.18394277623136,63.96033083744578,2.70479317929025,63.34507527615484,1,v,1.3637747999998737,correct,v
61,4F4K,62,1,56.81539197161429,71.89785312546317,1.629536603658677,68.75586222511663,1,n,1.5760088000001815,incorrect,c
62,4F4K,63,2,46.924807199033225,34.24185684220623,1.3266099171422965,38.46332707667055,1,v,1.4979275999999118,correct,v
63,4F4K,64,2,58.50753403623892,46.6417997987158,1.687896007259264,49.204622920544,1,v,0.6422498000001724,correct,v
64,4F4K,65,2,36.921977383114026,58.99126982638405,1.077478678811622,59.54387057840891,2,b,0.611151899999868,correct,b
65,4F4K,66,1,48.03665071574048,39.78786621190302,1.35763863067331,43.23605014217608,2,c,0.9520646999999371,incorrect,n
66,4F4K,67,1,50.63167120645733,67.98072306469555,1.4329121238374716,66.19876625491412,1,n,0.8121254999998655,incorrect,c
67,4F4K,68,2,53.689707749792944,42.35953974818722,1.5269906544209766,45.47577772980602,1,v,1.5029764000000796,correct,v
68,4F4K,69,2,49.05939326497453,64.16182723891906,1.386821201920044,63.49315926541771,2,v,1.4061518999999407,incorrect,b
69,4F4K,70,2,59.70048776566998,70.52748210883807,1.7302909310792345,67.8880550174642,2,v,0.8661148999999568,incorrect,b
70,4F4K,71,1,49.27747817963407,44.52175490479541,1.3931246464828542,47.36094388061189,2,c,1.0306416999999328,incorrect,n
71,4F4K,72,2,57.1243146987317,67.41826905686496,1.6400382253183177,65.81283763507822,2,v,1.8318699999999808,incorrect,b
72,4F4K,73,1,45.83938608683279,31.063547324531307,1.2970027896507237,35.795889004550176,2,n,2.604610399999956,correct,n
73,4F4K,74,1,65.15701881797605,51.60030567193839,1.9381907523715192,53.46462078570384,2,n,1.0023412999998982,correct,n
74,4F4K,75,1,75.24556473691605,59.64532507935078,2.390590366832159,60.05947625689507,2,n,0.7878597000001264,correct,n
75,4F4K,76,1,46.34867928940752,58.34573431598678,1.3108116304672803,59.03087243932036,1,c,0.9759805999999571,correct,c
76,4F4K,77,2,67.06710127504044,51.453091652597024,2.0167231356950874,53.33970505624132,1,b,1.4372475000000122,incorrect,v
77,4F4K,78,1,63.49159037723005,50.243561926704544,1.8722170656710453,52.30915895826431,2,n,1.261010400000032,correct,n
78,4F4K,79,2,54.68140071447614,69.8120596977479,1.558806682569455,67.42336476272143,2,v,0.6482813000000078,incorrect,b
79,4F4K,80,2,56.48033370325279,40.78746187537096,1.6182225270434096,44.1056900685161,1,b,1.4857683999998699,incorrect,v
80,4F4K,81,1,47.39619777518579,60.28429164483748,1.3396776765682208,60.558992155180896,1,c,2.3185218999999506,correct,c
81,4F4K,82,1,24.18181622333897,37.31073844355154,0.8267107126500096,41.09061946117195,1,c,1.0853081000000202,correct,c
82,4F4K,83,2,51.37819342722058,62.650186444630606,1.455329473024081,62.37007610079527,2,v,1.079174200000125,incorrect,b
83,4F4K,84,2,64.93694371460751,73.4757531606825,1.9293412105043384,69.71767134766057,2,b,1.04187950000005,correct,b
84,4F4K,85,1,46.33549128283208,32.70055928986234,1.3104522068518305,37.16179062151542,2,c,1.7164162999999917,incorrect,n
85,4F4K,86,1,65.57386689462317,40.48323826518261,1.9550642319845863,43.84085120590449,2,n,1.200625700000046,correct,n
86,4F4K,87,2,46.75097079625302,30.137795747369992,1.3218231095773736,35.031931109166585,1,v,1.661791600000015,correct,v
87,4F4K,88,1,43.13943627928085,60.89450301884565,1.2261904625694626,61.03202482038022,1,c,1.5336554999998953,correct,c
88,4F4K,89,1,34.24626115381411,52.76188394861804,1.0191651383596712,54.44595577753845,1,c,0.7270366999998714,correct,c
89,4F4K,90,1,37.44290982497317,52.86528278761168,1.0892138971226188,54.53292140841283,1,c,0.7642416999999568,correct,c
90,4F4K,91,1,53.897427723386606,41.57932945700114,1.5336006267329474,44.79556409708366,2,c,1.4433621000000585,incorrect,n
91,4F4K,92,1,46.02738617695466,57.05692527224644,1.302083154060673,57.995070765006325,1,c,1.0002741999999216,correct,c
92,4F4K,93,2,59.6903255335467,44.74489294541711,1.7299253286507856,47.55531999050147,1,b,1.0306081000001086,incorrect,v
93,4F4K,94,2,75.95174681864447,55.97663490918291,2.425954352562564,57.1156767480339,1,v,1.0488516000000345,correct,v
94,4F4K,95,2,26.33345548130571,38.10415337366295,0.8645394272314866,41.77592200181753,2,b,1.0852449999999862,correct,b
95,4F4K,96,1,63.11873272249223,49.19581422904989,1.8577572270293556,51.41095195614596,2,n,1.236951099999942,correct,n
96,4F4K,97,2,41.90180984465041,48.76570044760369,1.195036178792557,51.04092323180459,2,b,0.6367711999998846,correct,b
97,4F4K,98,1,25.415836280186657,42.40185371058402,0.8481992359055133,45.51267662571703,1,c,1.3647679999999127,correct,c
98,4F4K,99,2,43.67085252251667,52.91059485604137,1.2398156118003876,54.57101110052009,2,b,1.3886726000000635,correct,b
99,4F4K,100,2,46.89879988997863,31.631573501246635,1.325892671456757,36.26776295838079,1,v,0.9395821999999043,correct,v
100,4F4K,101,2,47.57300502004918,29.591353651007037,1.3446122055268883,34.58411187364634,1,v,0.6786337999999432,correct,v
101,4F4K,102,2,62.07686402715253,47.31999533162491,1.8179416831994928,49.79243671717065,1,v,0.5572483999999349,correct,v
102,4F4K,103,1,60.52247673318922,45.02730439967518,1.760120623328192,47.80124351632583,2,n,0.9760121000001618,correct,n
103,4F4K,104,2,31.45810186623289,50.07699969038678,0.9617561506226886,52.16669022896463,2,b,0.9337053999997806,correct,b
104,4F4K,105,1,59.16492943548558,49.6638535224105,1.7111282362427596,51.81277137937782,2,n,0.6968286999999691,correct,n
105,4F4K,106,2,61.681860316049466,49.55722638621372,1.803070502846464,51.721310088956976,1,v,0.6604241000000002,correct,v
106,4F4K,107,2,68.96234930474424,59.63574674654518,2.0977903133383418,60.051956426836114,1,v,0.9765592000001106,correct,v
107,4F4K,108,2,45.09503561929437,60.973909599463454,1.2770819174429444,61.09328613959203,2,b,0.6724204000001919,correct,b
108,4F4K,109,1,41.22879365450888,50.74773770545139,1.178428158981108,52.73961188150489,1,c,0.8303071000000273,correct,c
109,4F4K,110,2,44.6162288473607,58.70964037863252,1.2644297327961127,59.32055653077116,2,b,0.9638271999999688,correct,b
110,4F4K,111,2,49.3393577825973,30.001548772919925,1.3949184036695148,34.92005159616101,1,b,0.9031770999999935,incorrect,v
111,4F4K,112,1,27.44988809622975,45.92761878716704,0.8848449878013925,48.58443919816774,1,c,0.8842698999999357,correct,c
112,4F4K,113,1,72.62105284689423,58.52296926289291,2.2636196799538992,59.17211638566592,2,n,0.7870824999999968,correct,n
113,4F4K,114,2,49.87853754175076,56.21151095669917,1.4106461325563997,57.30770041896292,2,v,1.0002780999998322,incorrect,b
114,4F4K,115,2,59.96031960264496,52.4481485592831,1.739665083202408,54.18168232286133,1,v,0.6783640999999534,correct,v
115,4F4K,116,1,60.94617008817435,47.87363724025379,1.77569660297151,50.27134805325244,2,n,0.6967915000000175,correct,n
116,4F4K,117,1,34.084729515959005,41.75951032376357,1.0157475504999045,44.95261921707355,1,c,0.7393180999999913,correct,c
117,4F4K,118,2,43.48784698913414,30.73322045554429,1.2351064680533874,35.522552326684185,1,v,1.5222736000000623,correct,v
118,4F4K,119,2,47.36795931553235,60.02392287810859,1.3388912457274258,60.35595722853199,2,v,0.9698898000001464,incorrect,b
119,4F4K,120,1,53.4116714719343,39.0994354241093,1.5181876745926484,42.63820600549836,2,n,1.3575326000000132,correct,n
120,4F4K,121,2,26.311030586683103,37.02449877832852,0.8641363756067758,40.84390509493401,2,b,1.5038038999998662,correct,b
121,4F4K,122,1,78.95351064571415,60.11525718891117,2.582208184717196,60.42726002706994,2,n,0.6846943000000465,correct,n
122,4F4K,123,1,50.10596262439134,62.198421818964206,1.4173331197392725,62.02912940777658,1,n,0.8303602999999384,incorrect,c
123,4F4K,124,1,68.26732199724702,54.00094896925525,2.0676896491580816,55.48357407844355,2,n,0.7089829999999893,correct,n
124,4F4K,125,1,41.954146373030575,32.105447112697846,1.1963374536089202,36.66314229182973,2,c,0.6725449000000481,incorrect,n
125,4F4K,126,2,36.342415759214255,47.78393652092249,1.0645712223672912,50.19381792319868,2,b,0.7078817999999956,correct,b
126,4F4K,127,1,59.9605006363177,47.093666138459845,1.7396716321654917,49.59640377761522,2,n,0.5936544000001049,correct,n
127,4F4K,128,1,40.39199843577325,47.52055828980967,1.158100096377084,49.96603259284946,1,c,0.7879840000000513,correct,c
128,4F4K,129,1,43.82866249050642,64.90422001958915,1.2438908314913304,64.03432780677909,1,c,0.5275164000001951,correct,c
129,4F4K,130,1,49.55397455937708,66.45360308833858,1.4011575998250998,65.14056206284484,1,n,1.0487112000000707,incorrect,c
130,4F4K,131,1,40.927581995059256,24.367958292745207,1.1710701178727638,30.43976715553685,2,n,1.6378712000000633,correct,n
131,4F4K,132,1,58.98350798702032,38.93814105392928,1.7046850755659193,42.49828990514148,2,n,0.5936655000000428,correct,n
132,4F4K,133,1,55.71793628712973,39.45150901156081,1.592770149604536,42.943825137093256,2,n,0.5928676999999425,correct,n
133,4F4K,134,2,37.09458274980101,47.53420579243367,1.0813529437800449,49.97784086662036,2,b,0.6786147000000256,correct,b
134,4F4K,135,1,57.79186862196087,66.94437135769411,1.6629629871329057,65.48419659047765,1,n,0.8900418000000627,incorrect,c
135,4F4K,136,1,56.7110005927062,68.57831472324868,1.6260031110962008,66.60381217947793,1,c,0.7999953000000914,correct,c
136,4F4K,137,1,41.69517321058541,55.78526216958444,1.1899122585049935,56.95888992826396,1,c,1.2005633000001126,correct,c
137,4F4K,138,1,36.302723155613,56.12018376786414,1.0636929043186127,57.23308895047391,1,c,0.7514372000000549,correct,c
138,4F4K,139,2,58.64769014748087,48.47453645912616,1.692822495634264,50.790041384282205,1,b,0.7151733999999124,incorrect,v
139,4F4K,140,2,42.80790778046829,33.65563451152527,1.2177662488469432,37.96667105567754,1,b,0.8303127000001496,incorrect,v
140,4F4K,141,1,50.18244126148575,38.30607631346415,1.419588938335729,41.95064301315372,2,c,1.9034072000001743,incorrect,n
141,4F4K,142,1,48.185286964970594,67.47045338256389,1.3618413169586314,65.84883350681052,1,c,2.1791430999999193,correct,c
142,4F4K,143,2,54.59339077463124,42.93671077481015,1.5559564955688363,45.9791144793125,1,v,1.7605114000000412,correct,v
143,4F4K,144,2,42.93799366595184,27.370100892706706,1.2210648389767602,32.78981088377565,1,b,1.3947571999999582,incorrect,v
144,4F4K,145,1,28.924531134512225,46.22826088744338,0.912398470964066,48.84564550989607,1,c,0.9205900000001748,correct,c
145,4F4K,146,1,51.59170862476349,32.14169919328889,1.4618053905167967,36.69345188938271,2,n,0.8972011000000748,correct,n
146,4F4K,147,2,40.96810701206879,56.20346196060103,1.1720573876044584,57.3011273834098,2,v,1.5709410999998,incorrect,b
147,4F4K,148,2,57.69632755747158,41.38351184188203,1.659662424069266,44.624908935820535,1,b,1.4071576000001187,incorrect,v
148,4F4K,149,1,45.76522983573429,33.546069041328394,1.295004306060956,37.87406037904368,2,n,1.7892211000003044,correct,n
149,4F4K,150,1,61.86835674754349,50.38577922724618,1.810076538419232,52.43070294304954,2,n,1.0842523000001165,correct,n
150,4F4K,151,1,57.50642677715034,42.19087540306738,1.6531215464854438,45.32870400760845,2,n,0.6474473000002945,correct,n
151,4F4K,152,2,56.24861087724536,41.86017646833307,1.6104438120044622,45.04037513968572,1,b,0.7336184999999205,incorrect,v
152,4F4K,153,1,28.932773323441754,49.862088163604994,0.912554861708738,51.9826812231124,1,c,0.7817970999999488,correct,c
153,4F4K,154,2,61.5864488759099,45.24444353232144,1.7994967120901109,47.99025457730036,1,b,1.3037427999997817,incorrect,v
154,4F4K,155,1,45.25208463944588,55.9392454345073,1.2812593557270788,57.085067599686674,1,c,1.0669951999998375,correct,c
155,4F4K,156,1,28.08591410576843,38.78722140935208,0.8966254924727245,42.367431475534495,1,c,0.7028605000000425,correct,c
156,4F4K,157,1,38.432462651509965,51.40042286735464,1.1118590267719175,53.29498560660595,1,c,0.80000310000014,correct,c
157,4F4K,158,1,38.591850280375965,50.92219343655538,1.1155502555031436,52.888270038525775,1,c,0.6051158999998734,correct,c
158,4F4K,159,1,65.1875460261726,58.58388716347567,1.9394214976343584,59.22059474697071,2,c,0.7083109999998669,incorrect,n
159,4F4K,160,2,42.06866629525504,48.50033235418344,1.1991897763934949,50.8122807443329,2,v,1.6314254999997502,incorrect,b
160,4F4K,161,1,47.74753486484575,63.48368050655587,1.349501000076762,62.99276933212503,1,c,1.6681268000002092,correct,c
161,4F4K,162,2,51.05409532876337,37.95699912013465,1.4455543575475347,41.6486679687145,1,v,1.2673096999997142,correct,v
162,4F4K,163,2,62.45586502220698,44.30825262835175,1.832325677341926,47.17491251708445,1,v,0.4904913000000306,correct,v
163,4F4K,164,2,38.35682627193404,62.480307449858905,1.1101116535048208,62.24214786706581,2,b,0.9092365000001337,correct,b
164,4F4K,165,1,30.392740557750383,40.32821387994059,0.9406840950207348,43.70594837645801,1,c,0.7571720000000823,correct,c
165,4F4K,166,1,62.41767419391259,45.55160730073175,1.8308711026613889,48.2575059221832,2,n,0.6361649999998917,correct,n
166,4F4K,167,1,50.40511971139504,34.61796253356494,1.4261775421479763,38.78294951585864,2,n,1.243022099999962,correct,n
167,4F4K,168,1,51.26666371826786,41.19349025883925,1.4519581908840016,44.459339022683615,2,n,0.5939878999997745,correct,n
168,4F4K,169,2,61.80064341805549,76.29377521844768,1.8075296371873848,71.33134798452754,2,b,0.7211194000001342,correct,b
169,4F4K,170,2,57.7035533497579,43.97466936282063,1.6599118172523903,46.88416959237091,1,b,0.660425099999884,incorrect,v
170,4F4K,171,1,51.772176823102654,64.23902236247001,1.4673014586441055,63.54975674796823,1,n,2.2391443999999865,incorrect,c
171,4F4K,172,2,54.58182886308775,41.80189187251792,1.5555824525082225,44.98956460363234,1,b,0.5997164999998859,incorrect,v
172,4F4K,173,2,53.52072238499958,64.8843059539881,1.5216342992467395,64.0199035178522,2,v,0.5935004000002664,incorrect,b
173,4F4K,174,1,26.11846831384892,48.93059983047795,0.8606831019871984,51.18287061826145,1,c,0.7575435999997353,correct,c
174,4F4K,175,1,43.7118179426941,35.62942021300815,1.2408722011303608,39.64602595322561,2,n,1.5472466000001077,correct,n
175,4F4K,176,1,64.23136852024845,50.37090436705357,1.9012405216235173,52.41799478480005,2,n,0.8788798999999017,correct,n
176,4F4K,177,2,66.04412746156801,51.2943699287226,1.9742761833095317,53.20489454061462,1,b,0.9213527000001704,incorrect,v
177,4F4K,178,2,68.53950509955847,56.67247590431862,2.0794257231279194,57.683240824232605,1,v,0.7083220999998048,correct,v
178,4F4K,179,2,30.210735744360115,42.18913645409567,0.9371306318704444,45.3271877174994,2,b,1.1763826000001245,correct,b
179,4F4K,180,1,54.02123979776034,37.1559708014488,1.537554121608486,40.95718650245645,2,n,1.419010900000103,correct,n
180,4F4K,181,2,47.36356342583345,35.18878465400027,1.338768863330431,39.269425546456056,1,b,1.35834530000011,incorrect,v
181,4F4K,182,1,35.085871876040805,43.57427939820968,1.0371152017961245,46.53509815734058,1,c,0.6725839999999152,correct,c
182,4F4K,183,1,51.92235450574711,38.909880089948,1.4718907936393466,42.4737812333844,2,n,1.1823680000002241,correct,n
183,4F4K,184,1,56.93731466481797,44.56039534359223,1.6336732275471624,47.39460759950263,2,n,0.7817850000001272,correct,n
184,4F4K,185,1,38.2180196466251,30.95176465072379,1.1069120442111051,35.70330173531365,2,c,1.1520000999998956,incorrect,n
185,4F4K,186,1,55.32150330654345,63.85575512871085,1.5796939735905675,63.26802076434262,1,c,1.3219244000001709,correct,c
186,4F4K,187,2,59.53631386213783,46.3251427350467,1.7243939618229016,48.92977914438705,1,v,1.1459476999998515,correct,v
187,4F4K,188,2,61.15642020076593,44.01646163868452,1.7834769942151747,46.92059948226537,1,v,0.6057866000001013,correct,v
188,4F4K,189,1,73.86217008907518,58.73137436526715,2.322800263272541,59.33781755997303,2,n,0.9881271999997807,correct,n
189,4F4K,190,1,61.81616788413815,49.844601315038055,1.808113242070965,51.96769984686786,2,n,0.9095268000000942,correct,n
190,4F4K,191,2,40.7322604938808,51.38005697422973,1.166323349909846,53.27768958261315,2,v,1.449355100000048,incorrect,b
191,4F4K,192,2,45.15456653959491,61.139187995688815,1.2786638097152243,61.2205762029006,2,b,0.4531120000001465,correct,b
192,4F4K,193,2,48.37952261405269,61.27999137227997,1.367352940160151,61.32878028610871,2,b,0.6300615999998627,correct,b
193,4F4K,194,2,66.48556637440164,53.20750667414228,1.9924824146078404,54.82027763423624,1,v,1.0305684999998448,correct,v
194,4F4K,195,1,27.86468218214094,49.35502933589216,0.8925101402150034,51.54774160863381,1,c,0.5816632999999456,correct,c
195,4F4K,196,2,39.47651293566352,46.28076298640245,1.1362618876475172,48.89124162036206,2,b,1.4372647000000143,correct,b
196,4F4K,197,2,66.30966640078441,57.76344348868976,1.9852077502282524,58.56475861821602,1,v,0.447974300000169,correct,v
197,4F4K,198,1,31.74348940736905,45.11376095375234,0.9674806299091306,47.87650862438501,1,c,0.6361657000002197,correct,c
198,4F4K,199,1,72.8249003979603,54.33106563485024,2.273235281613914,55.75828001174336,2,n,0.44727770000008604,correct,n
199,4F4K,200,2,53.27600189440197,65.62633540623817,1.5139106456954676,64.55387988894002,2,b,1.5763471999998728,correct,b
200,4F4K,201,1,36.53395284993144,27.67006682353366,1.0688197601773797,33.02954054509836,2,c,1.3245716999999786,incorrect,n
201,4F4K,202,1,65.38953550390008,53.136601616297504,1.947584690547665,54.76080156973237,2,n,0.8061357000001408,correct,n
202,4F4K,203,1,51.33910405691169,62.55348636756667,1.454147002780379,62.2972971315572,1,n,0.9750960999999734,incorrect,c
203,4F4K,204,1,52.59267357904152,39.49758602198661,1.492550977861944,42.983842751587865,2,n,0.7575256000000081,correct,n
204,4F4K,205,1,48.48318729468728,61.45968713048339,1.3703036488481992,61.46655381765914,1,c,0.8053189999995993,correct,c
205,4F4K,206,2,58.32026716042302,69.83471019130891,1.6813359437028617,67.43819713890676,2,v,0.9573534000001018,incorrect,b
206,4F4K,207,2,49.63609670243,61.986706554662696,1.4035523755537054,61.86853437332546,2,b,1.1642578000000867,correct,b
207,4F4K,208,2,38.8122064052864,53.310244060086326,1.1206736331510396,54.90639768635971,2,v,0.9279431999998451,incorrect,b
208,4F4K,209,1,49.37758271898125,33.14760311588795,1.3960276165533891,37.537848111116666,2,n,1.4979381000002832,correct,n
209,4F4K,210,2,43.49622294327337,29.711085808381505,1.2353216090739028,34.682029578782654,1,b,1.0790580000002592,incorrect,v
210,4F4K,211,1,57.11765964738058,48.74639647842018,1.6398112795720698,51.02429949769829,2,n,1.4981032000000596,correct,n
211,4F4K,212,1,42.05765395237378,48.82087976422287,1.198915199091382,51.0884336141816,1,c,1.1944790000002286,correct,c
212,4F4K,213,2,55.157540129966414,38.54945948649781,1.5743171493098909,42.16139352416749,1,v,1.5646735999998782,correct,v
213,4F4K,214,1,53.71135872302849,73.14103813289806,1.5276782899146082,69.51706214190334,1,c,0.9289521999999124,correct,c
214,4F4K,215,1,46.76478263274572,30.34565883225389,1.3222028036808775,35.20289802763879,2,n,0.6907595999996374,correct,n
215,4F4K,216,2,56.430345876767646,74.82702488151176,1.6165413110450555,70.50843010193493,2,b,0.9517384999999194,correct,b
216,4F4K,217,2,37.54087960642893,58.49304585085936,1.0914351319872708,59.14829042398096,2,v,1.2248584999997547,incorrect,b
217,4F4K,218,2,56.54265602266103,41.58894229555403,1.6203210320511072,44.80394252513023,1,v,1.012401399999817,correct,v
218,4F4K,219,1,47.5961819417634,34.56736392614242,1.3452603982889018,38.73990668716961,2,n,0.8607010000000628,correct,n
219,4F4K,220,2,45.293287241931694,57.54568790907926,1.2823575886914076,58.389650322561,2,b,0.8788878000000295,correct,b
220,4F4K,221,1,42.578223848872526,54.09486571657592,1.2119638904714942,55.56180419661148,1,c,2.0881336000002193,correct,c
221,4F4K,222,2,48.03038564728051,62.10957267464066,1.3574617711563608,61.96179625797569,2,b,1.5525866999996651,correct,b
222,4F4K,223,2,45.52048013509938,57.55674797887259,1.2884302196044242,58.39855459427983,2,b,0.7878771999999117,correct,b
223,4F4K,224,2,69.66267675458582,61.40232188118277,2.1285637551383774,61.42261059360991,1,b,0.9456626999999571,incorrect,v
224,4F4K,225,2,45.85623052552696,53.95004766967055,1.2974571707228997,55.44114920042618,2,b,0.9945130999999492,correct,b
225,4F4K,226,1,53.13808143146321,62.60375698676185,1.509575007428334,62.335145811752064,1,c,1.1702124999997068,correct,c
226,4F4K,227,1,37.939490625873546,51.56040764296147,1.1005195078910148,53.43077764295944,1,c,1.0063470999998572,correct,c
227,4F4K,228,1,54.661159058390425,41.65281804669464,1.5581506980064144,44.85961766831658,2,n,1.1149209999998675,correct,n
228,4F4K,229,2,47.30669511845157,63.41312095154041,1.337186647008319,62.94037964582974,2,b,1.0002835000000232,correct,b
229,4F4K,230,2,46.08433810632992,58.425489707983736,1.3036261012664023,59.0944687961364,2,b,0.8364181000001736,correct,b
230,4F4K,231,1,41.88744246216903,49.07347439802316,1.194679201534762,51.30577513200792,1,c,0.9023677999998654,correct,c
231,4F4K,232,1,66.29901287013722,51.31690235636552,1.9847680080404968,53.2240406246799,2,n,0.9274107999999615,correct,n
232,4F4K,233,2,42.97642104061882,55.70527176139402,1.2220409510505683,56.893269232177246,2,b,1.5646553999999924,correct,b
233,4F4K,234,1,52.57841623155822,32.24268701727966,1.4921085420763758,36.77793163154123,2,c,0.9091168999998445,incorrect,n
234,4F4K,235,2,44.72279706358289,38.533719185098015,1.2672348460756542,42.14775872293573,1,v,0.9752403000002232,correct,v
235,4F4K,236,2,33.19499519073487,49.46720879415726,0.9971274728188853,51.64405874774392,2,b,0.9277380999997149,correct,b
236,4F4K,237,2,42.08736282176538,63.59610906166582,1.1996560920409878,63.07612059623014,2,b,1.0549298999999337,correct,b
237,4F4K,238,2,52.96656442447466,62.03209286041431,1.5042005533547114,61.90300512791078,2,b,0.8546140999997078,correct,b
238,4F4K,239,1,57.11618444420376,40.235708889260586,1.639760977512992,43.62546825699948,2,n,0.9152843000001667,correct,n
239,4F4K,240,1,76.22613272809433,54.43675949935709,2.439835670799303,55.84607050116605,2,n,0.8185773000000154,correct,n
240,4F4K,241,2,50.74615252299562,35.53827233700755,1.4363273378633492,39.56805032150303,1,b,3.1090023000001565,incorrect,v
241,4F4K,242,1,54.39972659273617,42.89023459884882,1.5497030512980088,45.93858274424356,2,n,1.2432693999999174,correct,n
242,4F4K,243,1,58.46228070189556,40.018817652870666,1.6863084161330812,43.43682733062069,2,n,0.6361347000001842,correct,n
243,4F4K,244,2,52.95742754697962,70.66591831683948,1.5039147883748645,67.97706199047241,2,b,0.6545836000000236,correct,b
244,4F4K,245,1,41.70434751377217,54.24631447859723,1.1901392848041077,55.687827450084505,1,n,1.127707300000111,incorrect,c
245,4F4K,246,2,53.60678197052289,42.876400087565045,1.5243597912413689,45.92651769646202,1,v,1.405986600000233,correct,v
246,4F4K,247,1,49.208193236596586,69.77195669961853,1.391118961418373,67.39708471192216,1,c,0.8295352000000094,correct,c
247,4F4K,248,2,59.272833622166615,42.0819012515868,1.714971984147054,45.23368573698191,1,v,0.9274507999998605,correct,v
248,4F4K,249,2,63.74623336941513,50.480616300463176,1.8821570335108015,52.51170127923446,1,v,1.2004421000001457,correct,v
249,4F4K,250,1,41.96295807492341,56.26370540641639,1.1965566836174293,57.350310954159454,1,c,0.684729999999945,correct,c
250,4F4K,251,1,44.22442889616585,29.28355417647425,1.2541699576929928,34.33293043358562,2,c,1.327152500000011,incorrect,n
251,4F4K,252,2,51.60291992491496,67.00281509732827,1.4621462244918226,65.52489645079059,2,b,0.757503600000291,correct,b
252,4F4K,253,1,54.03787576246274,44.812670720741714,1.5380861076519412,47.61434997553331,2,n,1.054683599999862,correct,n
253,4F4K,254,1,34.55761869881615,52.9030053841184,1.0257851285779676,54.56463222160298,1,c,0.8121356999999989,correct,c
254,4F4K,255,1,73.53762173973358,55.25743219543024,2.3071769432295928,56.524954543719154,2,n,0.7274122999997417,correct,n
255,4F4K,256,1,61.10901988523193,50.272948046828745,1.7817199550433698,52.33428110475413,2,n,0.8062571999998909,correct,n
256,4F4K,257,2,54.54153866184311,44.13319694055839,1.5542797139358058,47.02234951709106,1,v,1.0913210000003346,correct,v
257,4F4K,258,2,36.27309953742092,51.57994692922639,1.0630378650705534,53.447352748050896,2,b,0.8236051999997471,correct,b
258,4F4K,259,1,35.92890354574669,50.2077565038729,1.0554564899508132,52.27854356907536,1,c,0.5804490000000442,correct,c
259,4F4K,260,1,53.07048039344823,44.813766096501645,1.5074544523161877,47.61530392983296,2,n,1.3460758999999598,correct,n
260,4F4K,261,1,55.85076554754717,36.98324836424529,1.597175632304484,40.808375103914834,2,c,1.036658499999703,incorrect,n
261,4F4K,262,1,48.957458523909615,65.71239592200692,1.3838847072797766,64.61534082022398,1,n,1.1034274999997251,incorrect,c
262,4F4K,263,2,42.4708881508246,52.672123949386176,1.20926182416202,54.3704079610619,2,b,1.668479599999955,correct,b
263,4F4K,264,2,59.59637124215969,72.93876223683867,1.7265488304878012,69.39493047813664,2,b,0.8364982000002783,correct,b
264,4F4K,265,2,65.63251477548859,50.35533704670523,1.9574499819098063,52.40469391812662,1,b,0.8966118999996979,incorrect,v
265,4F4K,266,2,41.9052782551554,55.40398980515524,1.1951223721749582,56.64565865079818,2,b,0.5208397999999761,correct,b
266,4F4K,267,1,63.74046877700879,50.73689944783646,1.881931430367365,52.73037134252223,2,n,0.6969310999998015,correct,n
267,4F4K,268,1,52.51098206982513,34.272224819224334,1.4900176932392042,38.489106637255176,2,n,1.2180052000003343,correct,n
268,4F4K,269,2,26.809188393919083,43.11057411245502,0.8731344026126747,46.130738706241225,2,b,0.9699611000000914,correct,b
269,4F4K,270,1,26.279362445793407,43.19212758613234,0.8635675114333096,46.201859095242575,1,c,0.8789181000001918,correct,c
270,4F4K,271,1,56.29897867498482,43.80865116009643,1.6121314244062808,46.73944155963333,2,c,1.1216486000002988,incorrect,n
271,4F4K,272,1,65.83143846634881,47.66066533053283,1.9655637471418357,50.08723162164438,2,n,0.7887842999998611,correct,n
272,4F4K,273,1,40.98154032897112,51.32211014440225,1.172384833470191,53.22846536588781,1,c,0.7939452999999048,correct,c
273,4F4K,274,1,66.72986528875892,58.153693433376304,2.002630084624788,58.87749490187086,2,n,0.6847355999998399,correct,n
274,4F4K,275,2,40.10063263098669,49.67092232098898,1.1511046342301077,51.81883306012199,2,b,0.9083442999999534,correct,b
275,4F4K,276,1,49.672357355765776,38.05588730023006,1.4046110799284253,41.73417590491695,2,n,1.3036887000002935,correct,n
276,4F4K,277,2,43.99912470141603,54.2700454472935,1.248307827841646,55.70755982180963,2,b,0.9092170999997506,correct,b
277,4F4K,278,2,70.55162270434748,50.91184783992631,2.168276408797629,52.87945853735762,1,v,0.9107926000001498,correct,v
278,4F4K,279,1,56.81548574155613,66.23140681781152,1.6295397810807346,64.98389345670763,1,c,1.1706092999997963,correct,c
279,4F4K,280,2,56.370637936981765,46.66057459491397,1.6145354722388383,49.220911278676766,1,v,1.0671645000002172,correct,v
280,4F4K,281,2,43.234647095465085,57.57174064762484,1.2286205445680514,58.41062317940623,2,b,1.5889588999998523,correct,b
281,4F4K,282,1,36.561630346250986,51.201434055357325,1.0694350829299994,53.12589759826933,1,c,0.7511018999998669,correct,c
282,4F4K,283,2,61.05324859354316,50.59570250051021,1.7796548361748346,52.60993633850437,1,v,0.7696634999997514,correct,v
283,4F4K,284,1,58.23826317762314,44.31219601173986,1.6784713309116546,47.178348909937085,2,c,0.6907914999997047,incorrect,n
284,4F4K,285,1,58.06435335965166,37.18417746958555,1.672412348391858,40.98149856972537,2,n,0.678603600000315,correct,n
285,4F4K,286,2,47.30271007176914,34.47230214438173,1.3370758433330068,38.65907616465797,1,v,1.29776449999963,correct,v
286,4F4K,287,2,51.340198917073,43.044659281347485,1.454180109688642,46.07325552557894,1,v,0.8535593000001427,correct,v
287,4F4K,288,1,37.76289809321676,57.33158377861249,1.0964856588132894,58.2170633621671,1,c,0.6118927999996231,correct,c
288,4F4K,289,2,40.90072600456743,52.098935232155554,1.1704163109296597,53.886834272082005,2,b,1.4615225000002283,correct,b
289,4F4K,290,1,53.74399887290856,39.44258727564018,1.5287155272963386,42.93607718553994,2,n,1.5039935999998306,correct,n
290,4F4K,291,1,29.3432298222222,42.7559392029628,0.9203770370932628,45.82146409898886,1,c,0.4910770000001321,correct,c
291,4F4K,292,2,54.174748240501344,43.24446157310298,1.5424700181884183,46.24749730974936,1,b,1.1038573999999244,incorrect,v
292,4F4K,293,1,56.937596894257545,42.47225951575422,1.6336828152705416,45.574073468078986,2,n,0.8060846000003039,correct,n
293,4F4K,294,2,58.61391117079691,40.97581989656072,1.6916338507986606,44.26972490852637,1,v,0.9882609000001139,correct,v
294,4F4K,295,1,61.57189013808973,49.0690540701819,1.7989520141150095,51.30197383145544,2,n,1.249104299999999,correct,n
295,4F4K,296,2,47.88362767654983,67.59642923000008,1.353325457042871,65.93557045451762,2,b,0.7997496999996656,correct,b
296,4F4K,297,2,38.68926071078008,28.696214032971174,1.1178121963548058,33.85583298958444,1,b,1.2856775000000198,incorrect,v
297,4F4K,298,2,42.36251566742784,61.08140622118784,1.2065397696055191,61.176109213378986,2,b,1.4797005000000354,correct,b
298,4F4K,299,1,39.81911817047266,51.18650475020713,1.144385834720066,53.113203249366606,1,c,1.5525391999999556,correct,c
299,4F4K,300,2,52.81457036283659,65.29502832271406,1.499453840728787,64.31635799410952,2,v,0.6663923999999497,incorrect,b
300,4F4K,301,2,67.69864993936069,53.07863741040437,2.043382799263186,54.71215660621998,1,v,0.854601399999865,correct,v
301,4F4K,302,2,32.21363967438829,48.614908486278274,0.9769855911692672,50.91103139241529,2,b,0.9577589000000444,correct,b
302,4F4K,303,1,40.71854483013955,33.27070738163525,1.1659907511815002,37.64161881336416,2,c,0.6659128000001147,incorrect,n
303,4F4K,304,1,37.03073265471218,52.23569261822143,1.0799181567207967,54.00238641144149,1,c,0.7568381999999474,correct,c
304,4F4K,305,2,39.92926823928054,49.27887338512763,1.1470100619286585,51.4823249516004,2,v,0.7089544999998907,incorrect,b
305,4F4K,306,2,46.35771729356234,65.07359109163629,1.3110580075733975,64.15680012080075,2,b,0.6359176999999363,correct,b
306,4F4K,307,1,26.32152930173417,48.55919712111705,0.8643250498247772,50.86302085842383,1,c,1.14590249999992,correct,c
307,4F4K,308,1,36.26719131210399,29.58633148984484,1.0629072702896123,34.58000726620039,2,n,1.0309167999998863,correct,n
308,4F4K,309,1,55.91016219639405,38.5024069003957,1.5991495523819723,42.120636928494655,2,n,0.836405300000024,correct,n
309,4F4K,310,2,43.35855733914351,62.05290842978569,1.2317903406964454,61.918806598137735,2,b,0.988129200000003,correct,b
310,4F4K,311,1,53.2418294413093,42.95729443905436,1.5128352486973236,45.99706540092132,2,n,1.1277368000000934,correct,n
311,4F4K,312,2,50.92044157350868,40.45769788546762,1.441542375865117,43.81862333172928,1,v,1.2551950000001852,correct,v
312,4F4K,313,2,47.54084017772716,30.792285251436716,1.34371316356792,35.571367535528886,1,v,0.9086096999999427,correct,v
313,4F4K,314,2,52.66229213213936,59.61677389299688,1.4947132745298837,60.03705832585795,2,b,1.0002706999998736,correct,b
314,4F4K,315,2,43.64785423305917,61.32069429588542,1.2392228291165428,61.36001876990952,2,b,0.6109238999997615,correct,b
315,4F4K,316,1,43.578265727503,56.32457495146199,1.2374309056965491,57.39997532348961,1,c,1.2552123000000392,correct,c
316,4F4K,317,2,70.7388087479389,54.08145907496073,2.176732707765463,55.55064056891245,1,v,0.800978600000235,correct,v
317,4F4K,318,1,36.43473599658008,51.6927214408057,1.0666168909926157,53.54297822754966,1,c,0.6543470999999954,correct,c
318,4F4K,319,2,55.38897049901897,70.5775701277992,1.5819117460988616,67.92029327103347,2,v,0.7814061999997648,incorrect,b
319,4F4K,320,2,38.157816422528526,29.56750548272763,1.105527178181193,34.56462262045948,1,v,0.660983600000236,correct,v
320,4F4K,321,1,39.73134547686284,51.46221761344174,1.1422990274422058,53.34745212009907,1,c,4.052593200000047,correct,c
321,4F4K,322,1,49.96437280273801,59.100154714514886,1.4131662348682308,59.63000175957196,1,c,1.2491037999998298,correct,c
322,4F4K,323,2,39.876802656319,29.715874187773935,1.1457593665011618,34.68594796198293,1,v,1.1277580999999373,correct,v
323,4F4K,324,1,32.96376091145899,42.79529273577,0.992344411970648,45.85578415565133,1,c,0.6791976999998042,correct,c
324,4F4K,325,2,33.02780172004621,47.62549981079732,0.9936667885722033,50.056817333277095,2,v,0.6300619999997252,incorrect,b
325,4F4K,326,1,42.184249787723786,56.91073711035428,1.2020754849157698,57.87664603214306,1,n,1.1581928999999036,incorrect,c
326,4F4K,327,2,46.02307661558793,26.16782117396396,1.3019664733553358,31.837629969729097,1,v,0.8546015000001717,correct,v
327,4F4K,328,2,39.08204838740768,54.10637613759745,1.126979639677479,55.57138785547379,2,v,1.1459436000000096,incorrect,b
328,4F4K,329,1,48.527403523504326,68.87371061096539,1.3715641547993729,66.8021020220119,1,c,1.0306310999999369,correct,c
329,4F4K,330,1,36.518623682499005,53.656996458273525,1.0684791163359035,55.196554970677134,1,c,0.6846805999998651,correct,c
330,4F4K,331,2,24.25127712270704,37.16846525254772,0.8279056754021947,40.96795544730003,2,b,0.8546155999997609,correct,b
331,4F4K,332,1,50.0572287532581,34.59583317362671,1.4158975327117558,38.76412305943982,2,n,1.115627300000142,correct,n
332,4F4K,333,1,33.94142348971761,50.64050504160358,1.0127251638484285,52.64816153223504,1,c,1.1459437000003163,correct,c
333,4F4K,334,2,51.89355034931821,41.06633993317697,1.4710094456699807,44.348571070142285,1,v,0.6664574999999786,correct,v
334,4F4K,335,1,56.152656762664165,46.26313008882942,1.6072336814809247,48.87592876585661,2,n,1.0792050000000017,correct,n
335,4F4K,336,2,48.59304806924058,34.30956284478313,1.3734376730927391,38.52080988217744,1,v,0.8728297999996357,correct,v
336,4F4K,337,2,45.93548778558509,39.62590303292918,1.2995972838569934,43.095308794266096,1,v,0.6604616999998143,correct,v
337,4F4K,338,1,33.75727948044332,47.91556519386523,1.0088546851292517,50.30757855556099,1,c,0.5572292000001653,correct,c
338,4F4K,339,1,52.49198698048699,36.00549252168424,1.4894292647203051,39.96814233920862,2,c,0.9508291000001918,incorrect,n
339,4F4K,340,1,27.50140208922033,39.56626774706527,0.8857933445850811,43.04350074374823,1,c,0.6604029000000082,correct,c
340,4F4K,341,1,27.866468990522296,39.88178128651384,0.8925433026127596,43.31768303319173,1,c,0.6233263999997689,correct,c
341,4F4K,342,1,62.98699055679901,41.567057426004936,1.852674863400668,44.78486805889307,2,n,0.9445917999996709,correct,n
342,4F4K,343,2,52.918243356250926,45.35436443250181,1.502689879150659,48.08590976233056,1,b,0.9816019999998389,incorrect,v
343,4F4K,344,1,52.15234028925752,45.34516723000151,1.4789468525640728,48.07790690491513,2,n,1.1216726000002382,correct,n
344,4F4K,345,2,44.39995931811032,51.17799551375639,1.2587561086519812,53.1059673493678,2,v,1.504115699999602,incorrect,b
345,4F4K,346,2,64.24007409865978,47.41611714156872,1.901584729432988,49.875648675528296,1,b,0.6854218999997101,incorrect,v
346,4F4K,347,1,40.55088313680411,47.75672476947442,1.1619326878417462,50.1702933163868,1,c,0.6179345000000467,correct,c
347,4F4K,348,2,27.91701009579477,45.32162096912253,0.8934818343911484,48.05741774919006,2,b,1.4129883000000518,correct,b
348,4F4K,349,1,59.79433830058026,45.92846649390838,1.7336710069275276,48.58517596329073,2,n,1.049177299999883,correct,n
349,4F4K,350,1,58.4637655522641,37.08937816267334,1.686360484399599,40.89979987802962,2,n,1.2068921000000046,correct,n
350,4F4K,351,1,61.3003320898689,47.381534147109136,1.7888221564391202,49.845713446810805,2,n,0.8364274000000478,correct,n
351,4F4K,352,2,42.54003829088183,53.41307778365181,1.2110019169372617,54.99252992076435,2,v,1.0487925000002178,incorrect,b
352,4F4K,353,2,44.81852594916968,57.4958312397228,1.2697599494145204,58.34949795823694,2,b,0.46714010000005146,correct,b
353,4F4K,354,2,29.573889481246688,40.51829957075091,0.924802167611302,43.87136675892041,2,b,1.127853700000287,correct,b
354,4F4K,355,2,48.03108883585372,58.96342605719007,1.3574816206441167,59.52182665813384,2,b,0.6435265000000072,correct,b
355,4F4K,356,2,42.35311785240953,26.548924800716897,1.2063040081440544,32.13792140610774,1,v,0.7393065000001116,correct,v
356,4F4K,357,2,52.22796787203483,64.63711885627083,1.4812745205859212,63.84043402827732,2,b,0.5150005999998939,correct,b
357,4F4K,358,1,38.0326623699083,47.68987078515772,1.1026537784138872,50.11248827619493,1,c,0.6240006999996695,correct,c
358,4F4K,359,1,58.06017681442447,40.26453990196996,1.6722671076658484,43.65054998822883,2,n,0.9821340000003147,correct,n
359,4F4K,360,2,37.364429666148446,50.51205345548578,1.0874378052055715,52.5385416527501,2,b,0.7999844999999368,correct,b
360,4F4K,361,1,60.36012753553831,55.76590513942993,1.7541885512332085,56.943014909671135,2,n,1.2852767999997923,correct,n
361,4F4K,362,1,51.88577087687168,63.365203604359806,1.4707715003338433,62.90476697611849,1,c,0.903168999999707,correct,c
362,4F4K,363,2,57.76769301857962,37.91881446717187,1.662127196572355,41.61565798338547,1,v,0.7514333000003717,correct,v
363,4F4K,364,1,31.34228874281304,44.48104332670774,0.9594427725265792,47.32547408233951,1,c,0.42372519999980796,correct,c
364,4F4K,365,1,69.04934359259234,57.330688760237,2.101588640824843,58.21634104211456,2,n,1.5527882999999747,correct,n
365,4F4K,366,1,54.108142539210746,41.65362194866607,1.5403351349263097,44.86031838242458,2,n,1.497901499999898,correct,n
366,4F4K,367,2,54.15558443274192,36.86546800938653,1.5418554660669683,40.706962662282685,1,v,0.690912400000343,correct,v
367,4F4K,368,1,66.99891655679049,48.8401879549341,2.0138657280771093,51.1050556283496,2,n,1.4433228999996572,correct,n
368,4F4K,369,2,59.601982023081845,70.27200168566122,1.7267502837147548,67.72301538040043,2,b,0.8120892000001732,correct,b
369,4F4K,370,2,38.27304065571803,49.38615559393969,1.1081792199464922,51.57447174778785,2,b,0.786816600000293,correct,b
370,4F4K,371,1,62.52285109626099,42.142171089323135,1.8348797686317733,45.286236394150016,2,n,1.042017400000077,correct,n
371,4F4K,372,1,45.8266203622246,61.60887620981271,1.2966585384565137,61.58066438933909,1,c,0.5754473000001781,correct,c
372,4F4K,373,1,65.92706375788562,56.59218578758544,1.9694761042063016,57.61795769917256,2,c,1.0002737999998317,incorrect,n
373,4F4K,374,1,43.6942583304029,33.08098159023033,1.240419189443057,37.48172761218864,2,n,1.5163197000001674,correct,n
374,4F4K,375,1,39.72170130691396,55.98647430732623,1.1420699681941844,57.12372996497224,1,c,0.957771700000194,correct,c
375,4F4K,376,1,54.67830486763676,64.14194354931871,1.5587063355534854,63.47856892526456,1,c,0.7272845000002235,correct,c
376,4F4K,377,2,38.11185437589263,61.425235664791785,1.1044710710485148,61.44016752190362,2,b,0.7028756999998222,correct,b
377,4F4K,378,1,56.103022749550846,45.30493362675077,1.605575694823606,48.042896469554805,2,n,0.7999865000001591,correct,n
378,4F4K,379,1,69.93998418964466,52.810534245913246,2.1408734606117483,54.486882309414064,2,n,0.7020978999998988,correct,n
379,4F4K,380,1,37.36590130456677,56.90387459806211,1.0874710833348964,57.87108228276296,1,n,0.7575208999996903,incorrect,c
380,4F4K,381,1,51.77972680251844,67.6133285409146,1.467531839254502,65.9471888265396,1,c,0.7939291000002413,correct,c
381,4F4K,382,2,38.68090749966113,50.40928134729977,1.1176180490796823,52.45077957316594,2,v,1.1452624000003198,incorrect,b
382,4F4K,383,1,54.33176241191361,69.27311193646804,1.5475144410024433,67.06815180218993,1,c,0.7022614999996222,correct,c
383,4F4K,384,1,40.6871057932487,55.400348670630834,1.165228726389686,56.64266183509236,1,c,0.6784643999999389,correct,c
384,4F4K,385,1,43.0854839918355,55.56905499340152,1.2248155631900322,56.78140653472962,1,c,0.5936666000002333,correct,c
385,4F4K,386,2,45.27224334895753,51.68168037682814,1.2817965576034072,53.533619200178,2,b,1.0730764999998428,correct,b
386,4F4K,387,1,64.24122038318276,47.38767789413883,1.9016300567487745,49.85103175697248,2,n,1.073243299999831,correct,n
387,4F4K,388,2,37.85041597319216,55.19363334397048,1.0984829514592078,56.47235871300607,2,b,1.0488909000000604,correct,b
388,4F4K,389,1,55.06986711973446,71.87376690219881,1.5714496122635846,68.74086669038253,1,c,0.7149885999997423,correct,c
389,4F4K,390,2,41.63215660226175,61.42442536707152,1.188354026349872,61.43954675772153,2,b,0.612116899999819,correct,b
390,4F4K,391,1,41.66098075886812,52.86084180505247,1.189066517258287,54.5291875944344,1,c,1.121672799999942,correct,c
391,4F4K,392,2,71.2660319273152,59.149004942241525,2.200728171055157,59.66860581665586,1,v,0.8607017999997879,correct,v
392,4F4K,393,2,77.31067392785911,61.09685889381793,2.4954849754409647,61.18800467529309,1,v,0.7335092999996959,correct,v
393,4F4K,394,2,54.91002868605512,39.72046550397061,1.566235182183028,43.1774745527416,1,v,0.9578016000000389,correct,v
394,4F4K,395,1,73.1161857405422,60.994456166175496,2.287046299365787,61.10912642656256,2,n,0.6300798000002032,correct,n
395,4F4K,396,2,57.49925866450885,40.94229806691448,1.6528751559866874,44.240528646093296,1,v,0.7091597000003276,correct,v
396,4F4K,397,2,62.93249643810938,49.87832816132487,1.850576650678316,51.996593193273696,1,v,0.5270447999996577,correct,v
397,4F4K,398,1,53.47133812405057,37.27704007305087,1.52007250941613,41.06155922161812,2,n,1.0245343999999932,correct,n
398,4F4K,399,2,62.173148305889136,47.466395668952615,1.8215851673463648,49.9191639226193,1,v,0.7399593000000095,correct,v
399,4F4K,400,1,59.04796964974946,47.07070388343321,1.70697164021123,49.576507486131575,2,n,0.8788840000001983,correct,n
