,condition,trial,sub_task,x,y,xt,yt,cat,resp,rt,acc,correct_resp
0,4F4K,1,2,56.04139533285118,42.732169697566825,1.6035194575920764,45.76202893290446,1,b,4.7148864000000685,incorrect,v
1,4F4K,2,1,47.74790225488917,32.818960009083874,1.34951130984655,37.22625096565674,2,n,3.151305099999263,correct,n
2,4F4K,3,2,39.68190970381242,30.665119443759504,1.1411253611089542,35.43205744613473,1,v,1.7765490000001591,correct,v
3,4F4K,4,2,55.46459342737343,38.988578372235175,1.5844013139863344,42.50473645374807,1,v,2.1050052000000505,correct,v
4,4F4K,5,2,35.252397528812025,50.19041500921343,1.040712753264079,52.22221723041962,2,v,2.816407100000106,incorrect,b
5,4F4K,6,2,65.71201487408058,50.26077384132759,1.960688632418409,52.28235151541406,1,v,1.8682564999999158,correct,v
6,4F4K,7,1,28.792058180641316,39.37061879613927,0.9098885476816256,42.83614141193628,1,c,2.561498300000494,correct,c
7,4F4K,8,1,33.79906129993176,52.28559875892586,1.0097315877272903,54.00226184755012,1,c,5.0,correct,c
8,4F4K,9,2,43.209316751761534,50.91663546484376,1.227973564056828,52.841772290085984,2,v,2.0248581999994713,incorrect,b
9,4F4K,10,2,47.82099329198926,32.07061764019808,1.3515639718786456,36.59928224831917,1,v,2.924687400000039,correct,v
10,4F4K,11,1,29.39440550553793,46.71700705038816,0.9213569945963204,49.22966125421767,1,n,1.4791004999997313,incorrect,c
11,4F4K,12,2,19.31841979565465,38.55800640874678,0.7471928702026768,42.13165965893353,2,b,1.4205904999998893,correct,b
12,4F4K,13,2,63.23778452148452,45.7138840740292,1.8623620116416848,48.3588056064877,1,v,0.9700935000000754,correct,v
13,4F4K,14,1,44.45758851787044,66.25629599939168,1.2602654627689516,64.95447988787683,1,c,1.5661932000002707,correct,c
14,4F4K,15,1,73.04050085164238,53.341180986025634,2.283449724179545,54.88966871995368,2,c,0.9518443999995725,incorrect,n
15,4F4K,16,2,45.10967986157856,31.00320821320996,1.2774708716774394,35.71153534906571,1,v,1.6754539000003206,correct,v
16,4F4K,17,1,34.54789863886924,41.9392787009476,1.0255778147990728,45.070929774282064,1,c,1.4318709999997736,correct,c
17,4F4K,18,1,43.87994760993384,59.49820967841384,1.2452180790942275,59.8990629697688,1,n,1.2006992999995418,incorrect,c
18,4F4K,19,1,44.20058511903357,65.33824105319425,1.2535482725307887,64.30070643823737,1,n,0.9518637999999555,incorrect,c
19,4F4K,20,1,44.33482605771786,33.083417437962254,1.2570523932385618,37.44866405286139,2,n,0.9822457000000213,correct,n
20,4F4K,21,2,47.77523031240472,36.31065137578192,1.3502784159032213,40.19366618625797,1,v,1.4616759000000457,correct,v
21,4F4K,22,1,54.63811696332311,45.41546393864244,1.5574042937674744,48.09935598323824,2,c,1.6686626999999135,incorrect,n
22,4F4K,23,1,55.85014704447757,69.99592286704285,1.597155090506308,67.49544352026258,1,n,0.6241215000000011,incorrect,c
23,4F4K,24,1,60.83104169458544,53.84190466612834,1.7714506207465512,55.30812655595024,2,n,1.2495294000000285,correct,n
24,4F4K,25,2,54.42100109234924,42.71894931877715,1.5503887773121354,45.75050451600559,1,v,1.9839070999996693,correct,v
25,4F4K,26,1,52.265702913451626,34.75858852049509,1.4824373004465934,38.86691743722417,2,n,1.3646001000006436,correct,n
26,4F4K,27,1,30.83097787488896,47.05706873991244,0.9492956229501204,49.52436121694213,1,c,0.7882319999998799,correct,c
27,4F4K,28,2,52.65261287806383,46.1387090338315,1.4944124572417132,48.72787261271006,1,v,1.232432499999959,correct,v
28,4F4K,29,2,48.19237656214017,39.071913902605225,1.362042099891754,42.576997661481286,1,v,1.060520600000018,correct,v
29,4F4K,30,1,63.65206795277089,40.81729447934014,1.878475159925366,44.09368204961366,2,n,1.0307454000003418,correct,n
30,4F4K,31,2,47.06062689867152,51.57029937179633,1.3303619458483795,53.39716511248107,2,b,1.0964647000000696,correct,b
31,4F4K,32,1,26.634903704237264,40.26844876889608,0.8699757612553868,43.61617161486544,1,c,1.1171123999993142,correct,c
32,4F4K,33,1,57.30011611060535,44.02823994599488,1.646044664848718,46.89167241163459,2,n,0.5513660000005984,correct,n
33,4F4K,34,2,76.82205971453364,63.75128652842862,2.470258107930161,63.14469539624951,1,v,1.9835782999998628,correct,v
34,4F4K,35,1,40.74569665486179,23.199916641888667,1.1666492628141307,29.51993435548732,2,c,1.1825142999996388,incorrect,n
35,4F4K,36,1,64.32582931665958,50.29465119836074,1.904978716891346,52.31129765389856,2,n,0.8498702999995658,correct,n
36,4F4K,37,2,33.771479402980304,46.76692863660157,1.0091526228059404,49.272941836046,2,b,0.9640307999998186,correct,b
37,4F4K,38,2,44.91442437664422,60.71717797421297,1.2722945697942858,60.84975108748954,2,v,0.4495603999994273,incorrect,b
38,4F4K,39,2,31.55139489398281,42.92178429715506,0.963623743479779,45.927319832093616,2,b,0.722291099999893,correct,b
39,4F4K,40,2,48.7502514181033,59.65753333018856,1.37793472087703,60.02419306435253,2,v,0.8062036999999691,incorrect,b
40,4F4K,41,1,54.6603235321492,44.52110259907518,1.5581236264954663,47.32099626045063,2,c,2.044098600000325,incorrect,n
41,4F4K,42,2,46.92267374412455,34.22843389530722,1.3265510647948593,38.41640081774803,1,b,1.4024085999999443,incorrect,v
42,4F4K,43,1,39.93085208557612,56.12995754510335,1.1470478395081782,57.19743165982116,1,n,0.9083993000003829,incorrect,c
43,4F4K,44,2,26.850185054837517,34.31933911851347,0.8738790684553417,38.49354568325535,2,b,0.7880012999994506,correct,b
44,4F4K,45,2,37.49320871746678,57.535654939782354,1.0903537412187922,58.33743416415488,2,b,0.7408641000001808,correct,b
45,4F4K,46,1,49.08241752292141,31.00590802067334,1.3874853375796108,35.71377051768843,2,c,1.2483011000003899,incorrect,n
46,4F4K,47,1,58.29933121585847,51.87140702527277,1.680604132183952,53.65223415368935,2,n,0.7360425999995641,correct,n
47,4F4K,48,1,46.91148622865958,53.30526500070263,1.3262424947090403,54.859589943039424,1,n,0.8249961999999869,incorrect,c
48,4F4K,49,2,50.69100508868296,63.65954662092571,1.434681161116667,63.07689788757945,2,v,1.1582590999996683,incorrect,b
49,4F4K,50,1,37.52730153952968,55.93492325132131,1.0911270110010007,57.03795195696448,1,c,1.4859466999996584,correct,c
50,4F4K,51,2,59.34695984644253,41.78151443356357,1.7176175000776308,44.93345274930819,1,v,1.2554723999992348,correct,v
51,4F4K,52,1,23.02066830933976,41.67143949415647,0.8069885165919299,44.837542423205086,1,c,0.8790432999994664,correct,c
52,4F4K,53,2,50.91413547168004,63.70176897313051,1.4413533563546788,63.10811387458828,2,v,0.8075744999996459,incorrect,b
53,4F4K,54,2,62.13418148046852,46.73432618707996,1.820109748651762,49.24467713767092,1,v,0.860860099999627,correct,v
54,4F4K,55,1,61.002314305023006,72.75211444500522,1.7777709148243446,69.23279323375073,1,n,0.8730150999999751,incorrect,c
55,4F4K,56,2,43.64612504770941,55.750310787529294,1.2391782706885588,56.88671235520291,2,v,1.0550256000005902,incorrect,b
56,4F4K,57,2,42.31084940917028,28.88507154998511,1.2052441959980271,33.97530715517305,1,b,2.5493628999993234,incorrect,v
57,4F4K,58,2,59.648667730349686,36.82660416639449,1.7284274302849616,40.6370189264408,1,v,0.8851520999996865,correct,v
58,4F4K,59,2,54.34186885052757,42.9144106269604,1.5478396969184365,45.92089205352888,1,v,0.6740211999995154,correct,v
59,4F4K,60,2,36.5623193505172,53.07938106895165,1.0694504053077498,54.670227033706,2,b,1.0431014999994659,correct,b
60,4F4K,61,1,70.61535565753374,62.228435234093794,2.171151907778052,62.00613163437809,2,n,1.243509100000665,correct,n
61,4F4K,62,1,41.46068171431668,56.27802673173813,1.1841242341764622,57.31830105876052,1,c,1.8625542999998288,correct,c
62,4F4K,63,1,48.99471144245143,39.38085459004908,1.3849571525871278,42.84502511768749,2,c,2.518994200000634,incorrect,n
63,4F4K,64,1,53.59443206664472,69.94242634102741,1.523968372141701,67.46054599333264,1,n,0.6484453999992184,incorrect,c
64,4F4K,65,1,46.44505864137725,31.48299853789713,1.3134413308681772,36.10958033704247,2,n,0.9640371999994386,correct,n
65,4F4K,66,2,39.04036228805013,53.07171521870202,1.1260031541134814,54.66379488182017,2,v,1.134755299999597,incorrect,b
66,4F4K,67,1,65.04596743519033,47.41545344000508,1.9337201519672131,49.83460913875762,2,n,1.2310349999997925,correct,n
67,4F4K,68,2,33.61027678492103,54.10386769955527,1.0057754913902146,55.52637577825171,2,b,1.4132153000000471,correct,b
68,4F4K,69,1,36.43622105895175,55.85749092772186,1.0666498297015483,56.97455042316172,1,c,1.9168540000000576,correct,c
69,4F4K,70,1,55.30658343563073,45.77275626017116,1.5792039495640815,48.40997132360739,2,n,0.956853300000148,correct,n
70,4F4K,71,2,42.578047914367446,57.33378301281289,1.211959456564026,58.17477063738156,2,v,1.771190800000113,incorrect,b
71,4F4K,72,2,53.12264511629239,35.28706640887321,1.509090527990068,39.31742355694448,1,v,1.3949009999996633,correct,v
72,4F4K,73,1,31.83855338555318,46.03470783906213,0.9693950370530964,48.63755409786366,1,c,1.564817800000128,correct,c
73,4F4K,74,1,49.36237779586215,58.12518248035987,1.3955862938206338,58.81035251604652,1,n,1.0186151000007158,incorrect,c
74,4F4K,75,1,59.22143899816287,39.58605951979302,1.7131401363374474,43.02317112401721,2,n,0.6716612999998688,correct,n
75,4F4K,76,2,38.85700240135389,54.64452980880517,1.1217180343398734,55.975295440004345,2,b,1.2735834000004616,correct,b
76,4F4K,77,2,45.96385184263946,62.83941585807426,1.3003640306070132,62.46625462516673,2,v,0.9336735999995653,incorrect,b
77,4F4K,78,1,56.81213823470251,45.90822512493352,1.629426353663732,48.52768271615086,2,n,1.3888036999996984,correct,n
78,4F4K,79,1,50.07422137813812,62.23687032061353,1.4163979309161367,62.01251364258275,1,n,0.6496733000003587,incorrect,c
79,4F4K,80,2,40.16321710649692,59.960368793338645,1.1526036657431509,60.26132202198692,2,b,3.011563999999453,correct,b
80,4F4K,81,1,55.545207150861785,48.42595134848754,1.5870594974325027,50.70730641872687,2,n,2.9011406999998144,correct,n
81,4F4K,82,1,37.20861814503105,54.11769780803654,1.0839201980070692,55.537884875436006,1,c,1.419153799999549,correct,c
82,4F4K,83,1,76.48338818332067,61.10390579412419,2.4529224877294773,61.14807667604564,2,n,1.4676908999999796,correct,n
83,4F4K,84,1,55.369535532812186,69.56313901704459,1.581272563413865,67.21187618671475,1,n,1.3584867000008671,incorrect,c
84,4F4K,85,1,35.54313338153207,48.74822290654506,1.0470236292787307,50.984910459593344,1,c,1.648707899999863,correct,c
85,4F4K,86,2,44.90832401310638,64.76322385500767,1.2721331850195476,63.88555589321449,2,b,1.5102452000000994,correct,b
86,4F4K,87,2,58.03691937289732,43.38179631765813,1.6714585531863473,46.328307083826935,1,v,1.0307827999995425,correct,v
87,4F4K,88,1,55.2957666990742,34.88656171383325,1.5788487827756217,38.97588330245544,2,n,1.479952100000446,correct,n
88,4F4K,89,2,45.80654199483706,32.299398170877105,1.2961172732923234,36.79057118165155,1,b,1.759019599999192,incorrect,v
89,4F4K,90,2,38.02933934698931,54.8362467467651,1.1025775873184784,56.13397449769224,2,b,0.93401939999967,correct,b
90,4F4K,91,2,46.23871541839164,53.91268715286422,1.307817707789649,55.367144039255535,2,b,1.1035930000007284,correct,b
91,4F4K,92,2,42.90752305444416,61.26147993077112,1.2202913946997194,61.26916302041823,2,b,1.189133299999412,correct,b
92,4F4K,93,1,55.5641211088734,44.54946292266782,1.587683818158223,47.34569340477426,2,n,1.1292773000004672,correct,n
93,4F4K,94,1,48.73630632749517,60.336562918104754,1.3775352052854115,60.55457212171709,1,c,1.3888206999999966,correct,c
94,4F4K,95,2,40.79844625317282,57.81945261034956,1.1679296590640318,58.56549251424733,2,v,1.490773600000466,incorrect,b
95,4F4K,96,2,43.601511466624125,58.64376869780591,1.238029201564076,59.2236931331986,2,b,1.0260477000001629,correct,b
96,4F4K,97,1,47.733676884942405,30.50942732623284,1.3491121723017538,35.30364371456776,2,n,0.8305147999999463,correct,n
97,4F4K,98,1,35.204928475351686,58.10383154761398,1.0396859816877837,58.79328053835463,1,c,0.8547975000001315,correct,c
98,4F4K,99,1,57.42034866446234,38.88749820131597,1.6501651980750345,42.41711137004465,2,n,0.6803571000000375,correct,n
99,4F4K,100,1,46.848359606676894,61.8617230767778,1.3245027032633685,61.72788602162139,1,n,0.9279458000000886,incorrect,c
100,4F4K,101,1,48.18907019205805,54.15905229039635,1.3619484572234504,55.57229116432752,1,c,1.0429418000003352,correct,c
101,4F4K,102,2,34.91943489483807,52.43365689834617,1.0335319920985118,54.127141793272806,2,b,1.2435897000004843,correct,b
102,4F4K,103,2,45.0078032461464,36.62633786325726,1.2747674593311626,40.46480803652568,1,v,0.9444781000001967,correct,v
103,4F4K,104,1,42.78236916733885,52.306051491747176,1.2171197129467497,54.01952044734567,1,n,0.8657149999999092,incorrect,c
104,4F4K,105,1,53.37311017223757,66.10976804506667,1.5169707890532025,64.85089133120569,1,n,1.223949499999435,incorrect,c
105,4F4K,106,2,49.23615781090229,43.15716567664755,1.391928142046873,46.13250404486883,1,v,1.3758561000004192,correct,v
106,4F4K,107,2,62.3704568006864,43.21358367598162,1.8290743292907283,46.18168291076688,1,v,1.006487399999969,correct,v
107,4F4K,108,1,42.629128912768586,32.703775745418795,1.2132474832431508,37.12951475767308,2,n,2.3659182999999757,correct,n
108,4F4K,109,2,61.67379677466081,52.225513189011984,1.802768195407691,53.95154575350735,1,v,1.3037593999997625,correct,v
109,4F4K,110,2,52.63887230629785,35.11563454324427,1.493985524014486,39.17113560101246,1,v,0.9397452000002886,correct,v
110,4F4K,111,2,63.47540895297777,52.27987906189523,1.871587201948464,53.99743496460261,1,b,1.4326837999997224,incorrect,v
111,4F4K,112,2,33.87830128588166,47.79015689689727,1.011396743631395,50.158590118490665,2,b,0.5756261999995331,correct,b
112,4F4K,113,1,65.23688810993193,58.38830298992137,1.9414124424747696,59.02039104036179,2,n,1.4302150000003166,correct,n
113,4F4K,114,2,38.69357011355769,56.18353701592493,1.1179123696836315,57.24118951098807,2,b,1.5405258000000686,correct,b
114,4F4K,115,2,54.42195533074213,45.5172459632329,1.550419541717603,48.18786330962077,1,b,1.2202348000000711,incorrect,v
115,4F4K,116,2,24.61409259020992,45.65517530026177,0.8341754607727039,48.30777570424184,2,b,0.9700940000002447,correct,b
116,4F4K,117,2,46.31215949384164,39.0471845903712,1.309816567767869,42.5555528458156,1,v,0.9872513000000254,correct,v
117,4F4K,118,1,51.868452129722186,71.99540731570573,1.470241922018632,68.76785707968689,1,c,1.6559839999999895,correct,c
118,4F4K,119,2,47.78429241818107,63.25995109945252,1.350532887953288,62.78038736522129,2,v,1.789437999999791,incorrect,b
119,4F4K,120,2,27.8004748709306,49.79123172775037,0.8913192973315589,51.88061982538515,2,b,1.2492273999996542,correct,b
120,4F4K,121,2,46.94969689504926,37.42562113551042,1.3272967039445012,41.153004589586345,1,b,2.7869294999991325,incorrect,v
121,4F4K,122,1,52.30317726948351,63.36312088450608,1.4835929507905128,62.85712830228862,1,n,1.0731281999997009,incorrect,c
122,4F4K,123,2,40.19401368975357,51.92915481023399,1.15334202600684,53.7010947784983,2,v,1.3090101999996477,incorrect,b
123,4F4K,124,1,43.780779290386704,34.49100705528342,1.2426529018737076,38.639347811701775,2,n,1.1218165000000226,correct,n
124,4F4K,125,2,53.43324292846144,46.01841783632048,1.5188688344653205,48.62340527507759,1,v,1.4013740000000325,correct,v
125,4F4K,126,2,43.69875817012353,37.84758969131976,1.2405352628029638,41.517225101724655,1,v,0.6787232999995467,correct,v
126,4F4K,127,2,38.55089157626384,54.96643896751348,1.1146005321230277,56.24157646810029,2,b,0.9168265999996947,correct,b
127,4F4K,128,2,66.45094465839837,51.2902324384932,1.9910484663548995,53.15947733492441,1,v,1.714378200000283,correct,v
128,4F4K,129,1,48.011630333876255,26.24500603520809,1.3569324564465306,31.865627421942605,2,c,1.425351099999716,incorrect,n
129,4F4K,130,2,27.00780524010999,39.07402970737507,0.8767480107097563,42.57883251713752,2,b,0.994351700000152,correct,b
130,4F4K,131,1,45.92424811227819,66.645889385463,1.2992935743073812,65.22848169790409,1,n,1.7699802999995882,incorrect,c
131,4F4K,132,1,37.92693024626676,50.550916958149145,1.1002321054108362,52.530086569382895,1,n,1.953367199999775,incorrect,c
132,4F4K,133,1,56.93518334859061,42.003938599943865,1.6336008256117889,45.12727921894064,2,n,1.5102372999999716,correct,n
133,4F4K,134,2,48.112747866228005,60.51532836479453,1.359788652929528,60.693402255586506,2,v,1.5029707000003327,incorrect,b
134,4F4K,135,2,37.16591170664508,46.68062853617136,1.082958044085783,49.19811831235766,2,b,1.194583600000442,correct,b
135,4F4K,136,1,60.80301490989181,45.6569509370168,1.770418519039289,48.30931918451713,2,n,1.3220824999998513,correct,n
136,4F4K,137,2,76.16309955613058,58.50404529851495,2.436639780507384,59.11257687565841,1,b,1.1641681999999491,incorrect,v
137,4F4K,138,2,38.0268193756355,49.600949790907286,1.102519812298942,51.71754202033711,2,b,1.3099185999999463,correct,b
138,4F4K,139,2,47.23298316132493,56.1997749306047,1.3351385812857652,57.25444622782394,2,v,0.8148260999996637,incorrect,b
139,4F4K,140,2,49.706679340839365,57.37728277854431,1.4056139165663348,58.20985234568262,2,b,0.5928208000004815,correct,b
140,4F4K,141,1,61.34658365469011,49.9518808791882,1.7905434271358445,52.01817920961963,2,n,0.9336512999998376,correct,n
141,4F4K,142,2,52.90005673896039,33.09386483354899,1.502121699223447,37.45745928385032,1,b,1.247830199999953,incorrect,v
142,4F4K,143,1,69.98762929300516,55.67982901630513,2.142995586505152,56.82890024070257,2,n,1.0479905000001963,correct,n
143,4F4K,144,1,27.863509857009653,36.82207982242615,0.8924883830324178,40.63312670739955,1,c,1.346357600000374,correct,c
144,4F4K,145,1,55.929847126528514,64.17746449492024,1.599804276838294,63.45828033957476,1,n,0.746919500000331,incorrect,c
145,4F4K,146,2,66.74167978081759,59.540144877562085,2.0031221421243903,59.932023047186505,1,v,0.6239864999997735,correct,v
146,4F4K,147,2,54.992895217575295,32.37268980471299,1.5689363843268167,36.85192491340575,1,v,0.6908844999998109,correct,v
147,4F4K,148,1,66.9697460934434,48.92954263392242,2.012644522319009,51.14093156720656,2,n,1.0975124000005962,correct,n
148,4F4K,149,1,54.944028405128,41.68272462060155,1.5673429087017188,44.84737495991138,2,n,0.6170462999998563,correct,n
149,4F4K,150,2,35.2545140117369,46.70887450101464,1.0407585571071791,49.22260999237704,2,v,1.146295000000464,incorrect,b
150,4F4K,151,1,30.62930990041688,43.96928763781133,0.9453230230523868,46.840306626509474,1,c,0.7166555000003427,correct,c
151,4F4K,152,1,52.27513177349216,36.49221446010163,1.4827279869147272,40.34956131085259,2,n,0.8304446999991342,correct,n
152,4F4K,153,2,47.8737380481213,59.130140106447456,1.3530471755744444,59.60901352755764,2,v,1.5103613999999652,incorrect,b
153,4F4K,154,1,50.28001211053025,61.66877353781312,1.4224721070538042,61.58086919664342,1,n,1.370659500000329,incorrect,c
154,4F4K,155,1,54.37306400453054,46.624453814146655,1.548844083028688,49.14940431107837,2,c,0.7336804999995366,incorrect,n
155,4F4K,156,1,56.51530420890514,40.579671435197326,1.6193997122275994,43.88689005044241,2,n,0.7091042000001835,correct,n
156,4F4K,157,2,48.19240012480232,58.266354553753786,1.3620427672541162,58.92312523085127,2,v,2.028426799999579,incorrect,b
157,4F4K,158,1,38.04261081707806,52.46909601052029,1.102881910360494,54.15701369385272,1,c,1.067883300000176,correct,c
158,4F4K,159,1,51.54893818930841,37.43839700750688,1.4605058589502462,41.16402336011694,2,n,1.4495568000002095,correct,n
159,4F4K,160,2,71.1995893330917,60.536861846331945,2.197689667730654,60.71010239720167,1,v,1.0976828999991994,correct,v
160,4F4K,161,1,40.85019534314389,57.35261887543259,1.169187135372291,58.18996344985216,1,c,1.431083899999976,correct,c
161,4F4K,162,1,39.61629297286116,53.84807146446094,1.1395694011818058,55.31326970780957,1,c,0.9023052000002281,correct,c
162,4F4K,163,1,47.14468608061173,54.6309503855577,1.3326894009341863,55.96404591092663,1,c,0.7034071000007316,correct,c
163,4F4K,164,1,41.56940651771531,28.71988676643189,1.1868044122513033,33.84144870285131,2,c,0.8136489000007714,incorrect,n
164,4F4K,165,2,64.09656207097736,43.17350685072736,1.8959183867296572,46.14674850928364,1,v,0.6232685999993919,correct,v
165,4F4K,166,1,51.122125286393086,41.53282504678449,1.4476007483044049,44.716778076657526,2,n,0.7998335000002044,correct,n
166,4F4K,167,1,44.91595519333751,57.02136809380089,1.2723350706772285,57.922324952153126,1,c,0.8611556999994718,correct,c
167,4F4K,168,1,66.96943904837806,56.24081027380228,2.012631671981719,57.28793805693168,2,n,0.9886028999999326,correct,n
168,4F4K,169,2,68.80347013835865,58.895371781294,2.090871071174984,59.42330931934621,1,v,0.7394689000002472,correct,v
169,4F4K,170,1,57.39417500018132,66.23361838998227,1.649267313550262,64.93846689605049,1,n,0.9397816000000603,incorrect,c
170,4F4K,171,1,49.45884375180798,32.34984203850446,1.3983885842509003,36.832794882556,2,n,0.9022347999998601,correct,n
171,4F4K,172,1,61.5490891612935,43.54314240999044,1.7980992738016763,46.468937211354586,2,n,0.9507532999996329,correct,n
172,4F4K,173,2,55.074753883434255,40.18491100137517,1.5716093069923844,43.5435319988114,1,v,0.7394718000005014,correct,v
173,4F4K,174,2,42.318477897216304,56.77067138399045,1.2054353989887496,57.71913757845119,2,b,0.9327303999998549,correct,b
174,4F4K,175,1,58.20673101120335,44.4892064180819,1.6773711298002674,47.29321896343485,2,n,0.7226176000003761,correct,n
175,4F4K,176,1,39.109099018372746,53.51859130757011,1.1276137463700815,55.0381220116408,1,c,0.7334055999999691,correct,c
176,4F4K,177,1,47.41058666885776,61.824254617682186,1.3400785796675307,61.69937010172178,1,c,0.7274848999995811,correct,c
177,4F4K,178,1,47.288651165420646,60.72396984655278,1.3366850107026305,60.85500435539481,1,c,0.6253931999999622,correct,c
178,4F4K,179,1,42.484354384414736,59.24940572020429,1.2096004920423034,59.70314601595097,1,c,0.654530299999351,correct,c
179,4F4K,180,2,46.79376897254507,56.6950329883763,1.3230000069325571,57.65772771395949,2,v,0.6668050999996922,incorrect,b
180,4F4K,181,2,59.4083113554674,49.27574085158656,1.7198101812142923,51.438475802751,1,v,0.7029989000002388,correct,v
181,4F4K,182,1,56.3035479484095,67.49139550747674,1.6122846089469776,65.81589995529986,1,n,0.6960927999998603,incorrect,c
182,4F4K,183,1,43.716529234332334,52.86898498712905,1.240993773542474,54.49355649616629,1,c,0.9288335000001098,correct,c
183,4F4K,184,1,36.18017290085504,44.91349101195765,1.060985681859362,47.6626204085665,1,c,0.6669542999998157,correct,c
184,4F4K,185,1,49.35151425810695,36.74294525281712,1.3952710652036957,40.56506110773821,2,n,0.7698266999996122,correct,n
185,4F4K,186,1,57.55846838729711,65.94810604713425,1.6549114814007553,64.736267084538,1,n,0.6230846000007659,incorrect,c
186,4F4K,187,2,57.49590851317786,74.64085691645498,1.652760013377778,70.35198810622954,2,v,0.49802530000033585,incorrect,b
187,4F4K,188,1,40.31712114447327,54.4647899319416,1.1562983034487893,55.82628633717717,1,c,1.1464396999999735,correct,c
188,4F4K,189,1,73.0662098319336,53.158284941840165,2.28467079010974,54.7364108432675,2,n,0.6970000000001164,correct,n
189,4F4K,190,2,51.10294680918835,70.65994994179438,1.4470235526684945,67.92494919003217,2,v,0.46161840000058874,incorrect,b
190,4F4K,191,2,56.06434216290413,71.21429162587488,1.6042847850034323,68.27825981837434,2,v,0.7203309999995327,incorrect,b
191,4F4K,192,2,42.97726229481604,60.23936772800708,1.2220623288755872,60.47894837768308,2,v,0.7273121999996874,incorrect,b
192,4F4K,193,2,60.69585932037296,42.24238604051087,1.766477997337964,45.335098160989446,1,v,0.5925749999996697,correct,v
193,4F4K,194,1,42.34308127162268,56.21105372479969,1.2060522729408998,57.26365302174688,1,c,0.8144582999993872,correct,c
194,4F4K,195,1,33.63899357902863,56.11765833892382,1.0063762685237876,57.18738370677081,1,c,0.6180677000002106,correct,c
195,4F4K,196,1,46.15704691900691,61.13387286194621,1.305598592901889,61.17112558782104,1,n,0.8379251000005752,incorrect,c
196,4F4K,197,2,46.59813532009981,65.7287687374934,1.3176288597788233,64.5801878826685,2,v,0.569524100000308,incorrect,b
197,4F4K,198,2,36.97286231321643,50.14176556293702,1.0786193865080007,52.18062423441378,2,b,0.9171105999994325,correct,b
198,4F4K,199,2,55.11230855437368,45.35303387131266,1.5728370991527636,48.04505992252162,1,v,0.6486681000005774,correct,v
199,4F4K,200,1,32.86976832142132,54.18280324243611,0.9904067482336382,55.5920461849021,1,n,0.8984755000001314,incorrect,c
200,4F4K,201,1,42.67280369320272,30.64528554429168,1.2143498448302523,35.41568841064221,2,c,2.2941971000000194,incorrect,n
201,4F4K,202,2,55.613297070852646,39.42727488683792,1.589308190810094,42.885316432211525,1,v,1.3463560999998663,correct,v
202,4F4K,203,2,42.5680355557632,49.00347227303916,1.2117071514845583,51.20451047278312,2,v,0.7406618000004528,incorrect,b
203,4F4K,204,1,33.9888651549918,45.13163755032624,1.0137247321612697,47.85246097630964,1,c,0.847916300000179,correct,c
204,4F4K,205,2,59.63659796968915,70.67851724364226,1.7279936777511826,67.93686087265878,2,v,2.3915769999994154,incorrect,b
205,4F4K,206,2,39.78800475510496,29.18787111847742,1.1436456733881288,34.22128715350748,1,b,0.7394733999999517,incorrect,v
206,4F4K,207,1,68.24687515255428,51.99338431709795,2.0668106953658,53.75541747560767,2,n,1.1583692000003794,correct,n
207,4F4K,208,2,70.09658555653539,55.48125085020962,2.1478564371071,56.665807930726274,1,v,1.2674895999998625,correct,v
208,4F4K,209,1,66.4628513352191,53.10483439012719,1.9915414958240831,54.69158136574188,2,n,1.1703677000004973,correct,n
209,4F4K,210,1,18.07891784448954,34.11998224487385,0.728180259220956,38.324423732216616,1,c,0.6848195999991731,correct,c
210,4F4K,211,1,30.45295377743812,40.93920518119624,0.9418626620439132,44.19980380430295,1,c,0.5828427999995256,correct,c
211,4F4K,212,2,51.07833897203136,60.6902548903828,1.4462832920440196,60.828922181041314,2,v,1.2128608000002714,incorrect,b
212,4F4K,213,1,34.92237105095157,47.09813010654692,1.0335950969924717,49.55992512955773,1,c,0.6059531999999308,correct,c
213,4F4K,214,2,79.69868938759748,67.89072774504906,2.6225325544794558,66.08983328510799,1,b,1.5783432000007451,incorrect,v
214,4F4K,215,1,61.06605797411902,46.22492441890216,1.7801289345482776,48.80272836680191,2,n,1.4118354000002,correct,n
215,4F4K,216,2,53.0319893994866,41.33065863480687,1.5062483719485729,44.54067488192747,1,v,0.6422996999999668,correct,v
216,4F4K,217,1,67.44908441721269,52.14203192491832,2.0328059912202177,53.88104727734589,2,n,1.2857049000003826,correct,n
217,4F4K,218,2,63.63314286137705,51.67598694674406,1.8777360573674835,53.48675026285014,1,v,0.9096122000000832,correct,v
218,4F4K,219,2,58.96421994545587,51.13780251615637,1.7040014915224309,53.02993853805724,1,v,0.6144324999995661,correct,v
219,4F4K,220,2,53.50315294908236,74.6084144610396,1.5210784775550086,70.33327069467829,2,v,0.7700660999998945,incorrect,b
220,4F4K,221,1,41.13406258062726,56.17060807403615,1.1761090849928313,57.23063271304326,1,c,0.5452788000002329,correct,c
221,4F4K,222,2,49.9440365891587,35.2955218585192,1.4125687619311744,39.32464246974306,1,b,1.061140499999965,incorrect,v
222,4F4K,223,1,47.58206242585045,59.48764385455018,1.344865478290848,59.89075568619118,1,c,1.4179690000000846,correct,c
223,4F4K,224,2,46.8018485289184,38.2366291406106,1.3232223023761696,41.85352030651086,1,v,1.1642148000000816,correct,v
224,4F4K,225,1,59.29348661329743,44.81612894693863,1.7157086659884275,47.57787144124181,2,n,0.9714491999993697,correct,n
225,4F4K,226,2,41.16415162017399,55.47816427096565,1.1768451878751287,56.66327049058656,2,v,1.394756700000471,incorrect,b
226,4F4K,227,2,50.00669935982092,40.186590190691376,1.4144105891572196,43.54499201042879,1,v,1.2066522000004625,correct,v
227,4F4K,228,2,58.98547774212884,40.56516960751815,1.7047549007363731,43.87427233797984,1,v,0.6437103999996907,correct,v
228,4F4K,229,2,72.35492073218347,63.60256492340251,2.251127267641777,63.03473521812583,1,v,0.5769164999992427,correct,v
229,4F4K,230,2,64.54218108183062,45.42708708021912,1.9135683492941944,48.10946405836516,1,v,0.5891658999998981,correct,v
230,4F4K,231,1,34.15330077311537,49.778004962627776,1.01719693722075,51.86928909033427,1,c,1.28782609999962,correct,c
231,4F4K,232,2,39.70771762580837,57.60382778170482,1.1417379225422588,58.39228390064976,2,b,1.60132109999995,correct,b
232,4F4K,233,2,64.79886717532024,50.48846247253351,1.9238095907156216,52.47679426070544,1,v,0.6059530000002269,correct,v
233,4F4K,234,1,62.9544600683515,47.38715607058039,1.8514220406605597,49.81012555704896,2,n,0.8561361000001853,correct,n
234,4F4K,235,2,49.43275232570885,63.98010272682064,1.3976300859822193,63.313341297326254,2,v,1.1147626000001765,incorrect,b
235,4F4K,236,2,53.55809052616596,63.60847264558025,1.5228171426298407,63.039108392294445,2,v,0.6255827999993926,incorrect,b
236,4F4K,237,1,45.32213870118704,55.24662377245269,1.2831271689696842,56.47271387701023,1,c,0.7880042999995567,correct,c
237,4F4K,238,1,42.24053067589438,23.735856248416624,1.203483131260022,29.925339037935583,2,c,1.2977811000000656,incorrect,n
238,4F4K,239,2,76.96112375228496,60.86573813318508,2.477411828500224,60.964543587308654,1,v,0.5283949999993638,correct,v
239,4F4K,240,1,41.787329813731,27.65191162391287,1.1921947244573472,32.981821959857456,2,c,0.7030489999997371,incorrect,n
240,4F4K,241,2,35.68821792663128,57.11726083039867,1.050187215226609,57.99990154009207,2,v,2.5430646000004344,incorrect,b
241,4F4K,242,1,34.30904926400913,52.35018511923612,1.0204966722809556,54.05675327665634,1,c,1.7833285999995496,correct,c
242,4F4K,243,1,54.38065334545682,66.80298033762043,1.549088534552603,65.33837434662549,1,n,0.7941105999998399,incorrect,c
243,4F4K,244,2,41.47734092747479,59.72248557138184,1.184534507893741,60.07513157466786,2,v,0.8365507999997135,incorrect,b
244,4F4K,245,2,56.25192839358188,74.67662226370796,1.6105549136120616,70.37260182674608,2,v,0.6133982999999716,incorrect,b
245,4F4K,246,2,40.160245699777526,60.40954094282999,1.1525324501007512,60.61128805916582,2,b,1.9774682999996003,correct,b
246,4F4K,247,1,41.32773404806115,32.06156547238329,1.1808551618955765,36.59172066054629,2,c,1.4508263999996416,incorrect,n
247,4F4K,248,1,40.94473616821799,59.06612624669216,1.1714879259827975,59.55843151627623,1,n,1.0856754999995246,incorrect,c
248,4F4K,249,2,39.26866641441123,55.46144251676006,1.1313615079355452,56.64952244816854,2,b,1.2809348999999202,correct,b
249,4F4K,250,1,44.90605241992488,61.22014548004613,1.2720730953802888,61.23742638317848,1,n,0.9933354000004329,incorrect,c
250,4F4K,251,1,51.87655510226747,38.36227819258586,1.470489673622236,41.96223005498203,2,n,0.599865399999544,correct,n
251,4F4K,252,2,33.600678778795974,50.58919602566,1.0055747737934222,52.562740774519845,2,b,0.7394505000002027,correct,b
252,4F4K,253,1,50.15404915410728,65.35641951371663,1.4187510642579917,64.31376056338783,1,n,1.1220424000002822,incorrect,c
253,4F4K,254,2,41.99406520528078,27.67381229504981,1.1973309321878345,32.99934632018136,1,b,0.8851687999995193,incorrect,v
254,4F4K,255,2,31.138377367338016,49.73082487581611,0.9553831391041598,51.828866011043765,2,b,0.7152181000001292,correct,b
255,4F4K,256,2,61.17127378441232,43.3082751403671,1.7840279446700058,46.26422261395907,1,v,0.7711750999997093,correct,v
256,4F4K,257,2,48.900205235542366,39.74441772835809,1.3822381055669912,43.16070728657344,1,v,0.6128515000000334,correct,v
257,4F4K,258,1,61.8965245377559,50.471699395052674,1.8111370700572151,52.46248718175224,2,n,0.6907877999992706,correct,n
258,4F4K,259,1,52.92752502821557,42.54839742203213,1.502979936720565,45.60183356622027,2,n,0.6532360000001063,correct,n
259,4F4K,260,1,43.03260229393216,29.280800529160828,1.2234694423745125,34.29693351441487,2,n,0.7152235000003202,correct,n
260,4F4K,261,2,80.92713756133134,64.80710482943822,2.6903877719952485,63.91738805119464,1,v,0.8804190999999264,correct,v
261,4F4K,262,1,47.756216821924646,51.69499680857308,1.3497446558827633,53.502857313185565,1,c,1.4070529999999053,correct,c
262,4F4K,263,1,41.338054825658176,59.21887585723898,1.1811086177758323,59.67906320140204,1,c,0.7394420000000537,correct,c
263,4F4K,264,1,78.78345592602784,58.63073472045341,2.5730931356333486,59.213335646407145,2,n,0.6800704999996015,correct,n
264,4F4K,265,2,37.58472938250093,58.20862127410896,1.0924307896517744,58.87702856809761,2,b,0.9754113999997571,correct,b
265,4F4K,266,2,44.109217938827584,53.4932178999713,1.2511688832446546,55.01690273957916,2,b,0.7456459999993967,correct,b
266,4F4K,267,1,58.8540046621163,54.33743356861022,1.7001006264270235,55.72056404758255,2,n,0.89861159999964,correct,n
267,4F4K,268,1,55.4914403916902,43.00219032714696,1.5852860797864583,45.997411209005534,2,n,0.7347054000001663,correct,n
268,4F4K,269,1,52.62186152857598,57.10306503186728,1.4934571511983188,57.988422280880464,1,n,0.6491380000006757,incorrect,c
269,4F4K,270,2,37.46607844047874,50.12091215646841,1.0897387826434848,52.162792243669095,2,b,1.0676195999994889,correct,b
270,4F4K,271,2,30.348163704048456,50.43912954468689,0.9398125322718824,52.4346853973231,2,b,0.6377085000003717,correct,b
271,4F4K,272,2,56.926158722313794,67.13705372892683,1.6332942898584186,65.5709364490635,2,v,0.5101767000005566,incorrect,b
272,4F4K,273,1,45.29901842149864,60.23524840484747,1.2825104247244885,60.47574110409206,1,c,1.3040326000000277,correct,c
273,4F4K,274,1,43.167278932394254,59.04882012084329,1.22690059769438,59.54474976197837,1,c,0.7212392000001273,correct,c
274,4F4K,275,2,50.89842184168781,34.492746766678806,1.4408824627958263,38.64082618725022,1,v,2.14743449999969,correct,v
275,4F4K,276,2,54.00283337030093,68.24055355362196,1.5369657339964136,66.32792671416814,2,v,0.6497687999999471,incorrect,b
276,4F4K,277,1,40.692548959700034,51.966883227443184,1.1653606231390277,53.733006769796816,1,c,0.6781204999997499,correct,c
277,4F4K,278,2,55.2540459939944,67.76138337967237,1.577479634393225,66.00135499766714,2,v,0.6727163000005021,incorrect,b
278,4F4K,279,2,42.18647902364206,57.99329734728558,1.2021312092070924,58.70483098552872,2,v,0.6713976000000912,incorrect,b
279,4F4K,280,1,33.66371139391842,53.73344209456086,1.006893671348268,55.21762586516105,1,c,0.4494883999996091,correct,c
280,4F4K,281,2,41.22391331227115,59.13788857588891,1.1783085736063397,59.61513341699077,2,b,3.0406755000003614,correct,b
281,4F4K,282,1,53.99852648230375,36.91215541911008,1.5368280907106318,40.71063177090706,2,n,0.7628071999997701,correct,n
282,4F4K,283,2,44.68375479084224,28.852981813505146,1.2662064447405252,33.9492846895655,1,b,0.9217791000000943,incorrect,v
283,4F4K,284,2,50.19493311892811,30.54931603402689,1.419957739895663,35.33652613942054,1,v,0.502621900000122,correct,v
284,4F4K,285,1,38.27031051723226,59.295973421177735,1.1081163085874195,59.73986209032794,1,c,0.7347335999993447,correct,c
285,4F4K,286,2,30.76954470960215,40.371110760974425,0.948083703605164,43.70545609059413,2,b,0.7150505999998131,correct,b
286,4F4K,287,1,38.42700726985355,55.99326483344291,1.1117329030007643,57.08569017416046,1,c,0.8672894999999698,correct,c
287,4F4K,288,2,35.06691159005976,41.41745586070497,1.0367063809920785,44.61627773116626,2,b,1.6683081999999558,correct,b
288,4F4K,289,2,49.8628425819236,33.35349620093322,1.410185818603989,37.67624323505441,1,v,0.7893942999999126,correct,v
289,4F4K,290,1,57.46328813047849,44.174897753656055,1.6516392903972523,47.01944554670091,2,n,0.8172083999997994,correct,n
290,4F4K,291,1,52.562949473751466,62.83243011809972,1.4916287240280557,62.46101855809231,1,n,0.6968526000000566,incorrect,c
291,4F4K,292,2,39.52691093771796,56.85159113008747,1.1374533108815796,57.78478129221977,2,b,0.8257413999999699,correct,b
292,4F4K,293,1,48.807817656696194,55.40066502225852,1.3795851739326113,56.599535051758245,1,n,0.8062055999998847,incorrect,c
293,4F4K,294,2,33.968404286350136,53.79637697521458,1.0132935126148013,55.27014815452729,2,b,1.0934955000002446,correct,b
294,4F4K,295,1,45.62733777860119,31.298989866601644,1.2912963491131833,35.95672750676081,2,c,0.5755861999996341,incorrect,n
295,4F4K,296,2,57.53586837626408,41.87412779384766,1.6541339318214785,45.01415487472454,1,v,1.485917199999676,correct,v
296,4F4K,297,1,60.763245899308,71.42475973498954,1.7689550353611672,68.41113547555977,1,n,0.9032848999995622,incorrect,c
297,4F4K,298,2,27.4145861489302,51.10359151483378,0.8841956761757608,53.00084859108296,2,b,0.7030597000002672,correct,b
298,4F4K,299,1,65.18760516827527,76.0844821690538,1.9394238827857444,71.16652970812987,1,n,0.7994192999994993,incorrect,c
299,4F4K,300,1,64.7580290261668,72.13591082920203,1.9221765746300443,68.85488705824648,1,n,0.6969993000002432,incorrect,c
300,4F4K,301,1,44.4356461786316,59.74172956622919,1.259690562383447,60.09021533951771,1,c,0.9946782999995776,correct,c
301,4F4K,302,2,46.73605232841044,40.69423131108132,1.321413116129004,43.98657645611158,1,v,0.6801566000003731,correct,v
302,4F4K,303,1,33.11252456880032,43.38390170968309,0.9954189360528776,46.33014221608976,1,c,1.9957411000004868,correct,c
303,4F4K,304,1,53.91032926466649,60.50652121664327,1.5340121163174691,60.686570512346,1,n,1.0604064999997718,incorrect,c
304,4F4K,305,1,43.22146822706666,51.18926578086705,1.2282838910920422,53.07368685286944,1,c,0.5465782000001127,correct,c
305,4F4K,306,1,53.54021841297352,43.6700368236403,1.522251307794454,46.57953129610267,2,c,0.5929359000001568,incorrect,n
306,4F4K,307,2,53.22748720441746,34.66845049415345,1.5123841303587329,38.790216862161785,1,v,0.691350500000226,correct,v
307,4F4K,308,2,66.38847627217041,46.88651440250944,1.9884637862971344,49.37659419617248,1,v,0.6194432000002053,correct,v
308,4F4K,309,1,29.58122608954024,54.07089094813825,0.9249432666372528,55.4989279181948,1,c,1.2862670000004073,correct,c
309,4F4K,310,2,48.27839131702327,63.69608268860226,1.364480464558866,63.10391114822206,2,v,0.7590375999998287,incorrect,b
310,4F4K,311,2,49.50004852512894,43.813015189012056,1.3995872778503902,46.70413330754437,1,v,0.9457910999999513,correct,v
311,4F4K,312,2,30.249693248205595,50.911168513912685,0.9378901075905676,52.83711792988212,2,b,0.927571899999748,correct,b
312,4F4K,313,1,57.17860830327591,39.80021343409764,1.6418908802837562,43.20917841362104,2,n,0.7883426999997027,correct,n
313,4F4K,314,1,61.2935063809923,51.45018724836228,1.788568275075869,53.29527950461464,2,n,1.1778296000002229,correct,n
314,4F4K,315,2,71.09567069263794,54.382867816928695,2.192945747436436,55.75829363777075,1,v,0.7570259999993141,correct,v
315,4F4K,316,2,60.15072581894792,43.72744131283613,1.7465667428583778,46.62955921088274,1,v,0.692300100000466,correct,v
316,4F4K,317,1,64.35584588200894,45.80446869677768,1.906168131821224,48.43752992077029,2,n,0.6726982000000135,correct,n
317,4F4K,318,1,51.69829551289363,36.49272185941653,1.4650489467702328,40.34999716398001,2,c,1.1582255000002988,incorrect,n
318,4F4K,319,1,50.7103055112936,36.06542409251832,1.4352570730572287,39.98332246300248,2,n,0.7033455000000686,correct,n
319,4F4K,320,2,45.560781002919455,33.94942922560761,1.2895104191882627,38.17990878836458,1,v,1.1213933999997607,correct,v
320,4F4K,321,1,32.00338031459724,40.74416569322557,0.972723319351918,44.03003343682121,1,c,2.2508782999993855,correct,c
321,4F4K,322,1,53.26461650140581,44.33411665389367,1.5135522658519318,47.15814204070743,2,n,0.9278003999997964,correct,n
322,4F4K,323,1,55.0607657994236,44.11784757691934,1.5711522331386636,46.96974355768283,2,n,0.7885009999999966,correct,n
323,4F4K,324,2,45.75080716350652,57.810822311413176,1.2946159782104825,58.5585680225792,2,v,1.4313201999993908,incorrect,b
324,4F4K,325,2,46.69294250055189,25.46090032034821,1.320229074499471,31.25208081765564,1,v,0.8720952000003308,correct,v
325,4F4K,326,2,41.87199473907561,60.74118190858357,1.19429550070076,60.86831504337466,2,b,1.0428802999995241,correct,b
326,4F4K,327,2,45.02623278271946,60.75711231819951,1.275256083921725,60.8806317456937,2,b,0.522302999999738,correct,b
327,4F4K,328,2,47.57827936905704,58.03663424283138,1.3447596866530624,58.7395226800946,2,b,0.5526763999996547,correct,b
328,4F4K,329,2,71.68888407141371,53.41762119511896,2.220164418630186,54.95365760084081,1,b,0.9032891999995627,incorrect,v
329,4F4K,330,1,57.808826906508045,41.53049265374882,1.6635495138418546,44.7147461704034,2,n,0.6315621000003375,correct,n
330,4F4K,331,2,64.57077458952057,50.78727131795617,1.9147064671820029,52.731596326057605,1,v,0.7697832000003473,correct,v
331,4F4K,332,2,65.97586166547703,60.66983726608193,1.9714755930947576,60.813121005119385,1,v,0.6490366999996695,correct,v
332,4F4K,333,2,69.17444757738765,51.106153379944736,2.107062966043674,53.00302717883245,1,v,0.6315793000003396,correct,v
333,4F4K,334,2,21.9979023038934,43.99390814950422,0.7900068507251833,46.86175904878478,2,b,0.6012202000001707,correct,b
334,4F4K,335,2,55.153184971315575,41.42069908675703,1.574174580916038,44.619102808173245,1,v,0.9264782999998715,correct,v
335,4F4K,336,2,55.65734967327622,66.75024930910462,1.5907647406154162,65.30152447060715,2,v,0.5648541999998997,incorrect,b
336,4F4K,337,1,49.86841030729496,32.47802651900884,1.4103490959773293,36.94016527887948,2,n,1.2966957999997248,correct,n
337,4F4K,338,1,54.87073924466426,43.25642803569853,1.5649560891078402,46.21902933284661,2,n,0.5094356999998126,correct,n
338,4F4K,339,2,48.10211967671904,32.967399593608306,1.359488163341702,37.35103814599803,1,v,0.734687600000143,correct,v
339,4F4K,340,2,55.36119433410276,37.08647462075107,1.5809983149175908,40.860709290240834,1,v,0.545268799999576,correct,v
340,4F4K,341,1,36.70365865798803,46.89464547922389,1.0725982166151382,49.38364059859318,1,c,0.8851173000002746,correct,c
341,4F4K,342,2,28.927328409669474,38.35332886955618,0.9124515446296868,41.95448574017258,2,v,1.4616470999999365,incorrect,b
342,4F4K,343,2,42.37398632387121,63.63039239038798,1.206827594547624,63.055330676516974,2,v,0.6599809999997888,incorrect,b
343,4F4K,344,2,42.75773163593362,34.33552931793501,1.2164963141519405,38.50728979539389,1,b,0.6740602999998373,incorrect,v
344,4F4K,345,2,42.51013531955402,32.18206529552147,1.2102491320834496,36.6924230651073,1,b,0.6558693999995739,incorrect,v
345,4F4K,346,2,39.63448384227422,27.25793430105528,1.1400005459236535,32.667336194776034,1,v,0.39966439999989234,correct,v
346,4F4K,347,2,62.74023257086896,53.62371758543743,1.8431927882099088,55.12599156058405,1,v,0.6082427000001189,correct,v
347,4F4K,348,2,49.6386255501659,35.92203477217137,1.4036261845737328,39.86044814184563,1,v,0.5998483000003034,correct,v
348,4F4K,349,1,31.393256933719805,44.65634287583311,0.9604601805889584,47.43876031714664,1,c,0.4980208000006314,correct,c
349,4F4K,350,2,39.44073409660992,49.68126990922726,1.1354168231579065,51.78639786463962,2,v,0.8244137000001501,incorrect,b
350,4F4K,351,1,61.53468894304302,49.890655791299984,1.7975609241530943,51.96576724740175,2,n,0.6548931999996057,correct,n
351,4F4K,352,1,35.03185655846771,55.04661351251558,1.0359509503956452,56.30777663459533,1,c,0.8608044000002337,correct,c
352,4F4K,353,1,52.53347622170924,59.49656404540118,1.4907148161238268,59.897769179587065,1,n,0.4918591000005108,incorrect,c
353,4F4K,354,1,75.15003203157151,58.86592365853806,2.3858460612351577,59.39997752003612,2,n,0.7030396999998629,correct,n
354,4F4K,355,2,62.40228688398576,50.92577852963496,1.8302853723376464,52.84955602178616,1,v,0.8613679999998567,correct,v
355,4F4K,356,1,73.96495475975776,59.43471422308579,2.327770203124925,59.84912333927469,2,n,0.5951366999997845,correct,n
356,4F4K,357,1,54.10489827575609,65.38604573462734,1.5402312234768782,64.33502612178975,1,n,0.5588121000000683,incorrect,c
357,4F4K,358,1,70.21022640135698,52.280204853854,2.1529380275514827,53.99770990733344,2,n,0.5951327999991918,correct,n
358,4F4K,359,2,36.85638243780773,56.8683583867162,1.0760099905693272,57.79837621488847,2,b,1.2249667999994927,correct,b
359,4F4K,360,2,47.035652309627736,34.933916697892485,1.3296712257177208,39.01622557853217,1,b,0.6437457000001814,incorrect,v
360,4F4K,361,1,65.73087661305298,49.013885614125016,1.961457802262528,51.21346417781753,2,n,2.079776800000218,correct,n
361,4F4K,362,1,57.71505017995064,65.46820045636045,1.660308699582552,64.39393590481724,1,n,0.721261400000003,incorrect,c
362,4F4K,363,1,74.69390553095099,56.56580556493956,2.3633235687167438,57.55269744614464,2,n,0.4312779000001683,correct,n
363,4F4K,364,1,67.13613270581344,58.8898998938717,2.0196201565152503,59.41897457156836,2,n,0.5419508000004498,correct,n
364,4F4K,365,2,67.00054777556065,55.02245806231081,2.013934040046001,56.28783653918005,1,v,1.3341935999997077,correct,v
365,4F4K,366,1,63.27718220757336,50.15525568594754,1.8638883803217507,52.19215874068331,2,n,0.6666081000003032,correct,n
366,4F4K,367,1,60.38820035286881,45.2832768825069,1.7552128714757669,47.9843843259671,2,n,0.5648791000003257,correct,n
367,4F4K,368,1,53.81414598278256,40.55682577699845,1.5309470430605363,43.86701269708569,2,c,0.6679770999999164,incorrect,n
368,4F4K,369,1,52.60545630578915,43.113822967436604,1.4929477645700515,46.094722331496186,2,c,0.8792894999996861,incorrect,n
369,4F4K,370,2,33.622691478116295,52.840102580505416,1.0060351721748768,54.469282192834896,2,b,0.8966839000004256,correct,b
370,4F4K,371,2,57.802992930569175,40.74367073737484,1.66334771403866,44.02960266937402,1,v,0.5405846000003294,correct,v
371,4F4K,372,2,62.539485571057824,50.55550054671389,1.835514570996076,52.53399700107241,1,v,0.5526737000000139,correct,v
372,4F4K,373,1,35.619346858352856,45.85401502341719,1.0486842832817609,48.48058270198685,1,c,0.7871838999999454,correct,c
373,4F4K,374,1,43.79635708359992,28.256784373852557,1.2430555010029651,33.46743845891617,2,c,0.9276060000001962,incorrect,n
374,4F4K,375,2,50.28604602267024,65.81494437594728,1.4226505982101676,64.64158675485899,2,v,0.7880279000000883,incorrect,b
375,4F4K,376,2,25.447179486927265,39.20460291840136,0.848752241540066,42.69208782044387,2,b,0.6787144999998418,correct,b
376,4F4K,377,1,54.98788885420304,40.1070202775397,1.5687730596479306,43.475813294539705,2,n,0.9822147999993831,correct,n
377,4F4K,378,1,50.87605637772788,35.094987983428915,1.4402124976696316,39.15352680167411,2,n,0.6072801999998774,correct,n
378,4F4K,379,2,39.67767382649304,56.1778205379758,1.1410248522552326,57.236522035297234,2,v,2.9013225999997303,incorrect,b
379,4F4K,380,2,60.56924025784574,47.36985448139552,1.7618330325586251,49.7951546717976,1,v,0.8113192999999228,correct,v
380,4F4K,381,1,54.40246901151139,44.19891039081537,1.5497914287264931,47.04036450232566,2,n,1.129197799999929,correct,n
381,4F4K,382,2,43.65781923070027,60.38258532685217,1.239479642893864,60.59034565639518,2,v,1.152131400000144,incorrect,b
382,4F4K,383,2,61.952225777958574,69.5213856781544,1.813236079734678,67.18436859260463,2,v,0.7638137999992978,incorrect,b
383,4F4K,384,2,50.386825751326114,39.586871259120976,1.4256351099844795,43.023876000693065,1,v,0.874313099999199,correct,v
384,4F4K,385,1,73.00471021392508,57.91880681248078,2.281750909497849,58.64515997054163,2,n,0.9337902000006579,correct,n
385,4F4K,386,2,62.34532935794773,50.41494467492835,1.82811886842099,52.41403782005856,1,v,1.389089999999669,correct,v
386,4F4K,387,2,61.51908424416484,48.20949576818197,1.796977727172672,50.52064704923203,1,v,0.95187900000019,correct,v
387,4F4K,388,1,36.55445484193525,46.36602711114532,1.0692755239789402,48.92520537948442,1,c,0.9873604000003979,correct,c
388,4F4K,389,1,62.215252096555766,41.89094887280816,1.82318070672134,45.02881313757434,2,n,1.243097999999918,correct,n
389,4F4K,390,1,43.0322495466503,57.95708935320391,1.223460468046775,58.67583277122485,1,c,1.0007015000001047,correct,c
390,4F4K,391,2,39.0427599796919,51.05466383940879,1.1260592964494598,52.95923445188102,2,b,0.8473098999993454,correct,b
391,4F4K,392,1,43.70934080941552,39.97329386892323,1.240808284781345,43.35957534205801,2,c,1.4252305999998498,incorrect,n
392,4F4K,393,2,54.504850554124616,43.7129830230208,1.553094394094434,46.616959001448606,1,v,0.8357565000005707,correct,v
393,4F4K,394,1,62.87383898685057,47.00961770259276,1.8483207906733117,49.48325756602418,2,n,0.4373740999999427,correct,n
394,4F4K,395,2,69.606029000906,50.35485533012197,2.126057874927373,52.362725233607065,1,v,0.9897763999997551,correct,v
395,4F4K,396,2,56.82344394734598,39.116110324431055,1.6298094698016892,42.6153276247972,1,v,0.7576497000000018,correct,v
396,4F4K,397,1,48.23574617646614,43.710780422563,1.3632710058658508,46.61503945417364,2,c,0.7286732000002303,incorrect,n
397,4F4K,398,1,52.14592266975977,61.39601265711697,1.4787494993202115,61.37232663767485,1,c,1.6012121999992814,correct,c
398,4F4K,399,1,47.96068787748369,64.87381973371453,1.3554957937318024,63.96573689159592,1,c,0.6363204999997834,correct,c
399,4F4K,400,2,49.36827252600408,34.658708626136224,1.3957573717389216,38.78192975523123,1,b,1.5587699999996403,incorrect,v
