,condition,trial,sub_task,x,y,xt,yt,cat,resp,rt,acc,correct_resp
0,2F4K,1,1,65.74478587028048,55.60338753779186,1.9620252063132817,57.519814772624,2,c,5.0,NA,n
1,2F4K,2,1,35.92853713700805,47.88964212836903,1.0554484481887585,50.80077010264552,1,c,0.9639080999995713,correct,c
2,2F4K,3,1,65.64924258076533,75.27376579688016,1.9581309894011676,71.88942870127097,1,c,1.2020458999995753,correct,c
3,2F4K,4,1,55.03397699025714,77.29572183905887,1.570277254534449,73.03126967424072,1,c,1.407054899999821,correct,c
4,2F4K,5,2,29.423126540753174,43.39499202553894,0.9219074275635012,46.77783638727937,2,b,1.9775227999998606,correct,b
5,2F4K,6,2,40.75651625364612,30.132363785262594,1.166911773531884,35.08795674527243,1,b,0.8115569000001415,incorrect,v
6,2F4K,7,2,44.82085955529058,56.8441141899329,1.269821567249226,58.5630303874856,2,v,2.5129306999997425,incorrect,b
7,2F4K,8,2,40.12887492135192,49.75563900999035,1.1517808557146094,52.454966325125234,2,b,1.6134241999998267,correct,b
8,2F4K,9,1,43.0512250444755,31.633938173741768,1.223943321699532,36.367274907964536,2,c,2.4572824999995646,incorrect,n
9,2F4K,10,1,44.54565732062008,60.87027677235199,1.262575551033132,61.8489080579796,1,n,1.790767099999357,incorrect,c
10,2F4K,11,2,48.06423906538816,38.56193715246616,1.3584177091457548,42.44580253170943,1,v,1.8368540999999823,correct,v
11,2F4K,12,1,66.9371338658428,57.44061665350692,2.011280105684852,59.05980888517421,2,n,1.6867413999998462,correct,n
12,2F4K,13,2,35.884089345063806,56.51962269042324,1.054473383910332,58.29146059963775,2,b,1.790683999999601,correct,b
13,2F4K,14,1,35.820959734232304,57.86338081464594,1.053090039171936,59.409924117151405,1,n,1.6861668999999893,incorrect,c
14,2F4K,15,2,72.6551307687892,58.44311897705951,2.2652243182996474,59.88728936615248,1,b,2.24946380000074,incorrect,v
15,2F4K,16,1,48.64256944696472,58.30257331793236,1.374852723858412,59.77185909614643,1,c,2.020015300000523,correct,c
16,2F4K,17,1,79.10358447204521,60.308517979949535,2.590279062145958,61.40044568265185,2,c,1.102478400000109,incorrect,n
17,2F4K,18,1,43.32820591817468,26.082297824399426,1.231013153754399,31.73378209995885,2,n,2.141494700000294,correct,n
18,2F4K,19,1,51.753072984830936,63.57120732015292,1.4667186842811528,63.95423798843653,1,n,1.9072203000005175,incorrect,c
19,2F4K,20,1,46.8050575462898,33.65634083164571,1.3233106034705622,38.11544470290808,2,c,1.6075482999995074,incorrect,n
20,2F4K,21,2,55.04851905909616,67.96522087427485,1.5707521684745278,67.17813153682897,2,v,1.2627493999998478,incorrect,b
21,2F4K,22,2,48.65800597882226,61.84654367443363,1.37529411369864,62.61984924409794,2,b,0.7819558000001052,correct,b
22,2F4K,23,1,63.39365298767732,44.87088918017107,1.868408080489416,48.10248885309652,2,n,0.8547483000002103,correct,n
23,2F4K,24,1,54.66186751779308,42.64657743191118,1.558173652850218,46.10569502804224,2,n,1.638989400000355,correct,n
24,2F4K,25,2,57.34847187043071,46.74917322964148,1.647700644170282,49.783903984233696,1,b,1.0065283000003546,incorrect,v
25,2F4K,26,2,44.659348657838734,26.062758797856837,1.2655639937410583,31.71798495042568,1,v,0.8547939999998562,correct,v
26,2F4K,27,1,52.85207868810773,40.1277144881964,1.5006238165002992,43.84567568275694,2,n,1.3282864000002519,correct,n
27,2F4K,28,2,33.07940885244636,52.10821245829417,0.9947337046712026,54.51793079023491,2,v,1.7711863000004087,incorrect,b
28,2F4K,29,2,65.42852233424938,47.81993427156608,1.9491642539070515,50.73872892772405,1,b,1.267414199999621,incorrect,v
29,2F4K,30,2,53.79482814067948,49.66025740077788,1.5303321801872658,52.37075147738598,1,v,1.5966178999997283,correct,v
30,2F4K,31,2,54.15901253031191,32.217722815002894,1.5419653815908667,36.86912008908728,1,v,1.588089800000489,correct,v
31,2F4K,32,2,53.56453548941951,38.39289354012104,1.5230212431072796,42.29503397749064,1,v,0.6376531000005343,correct,v
32,2F4K,33,1,46.075745502201066,66.16584311486862,1.3033931925360045,65.89017433740034,1,c,1.218280699999923,correct,c
33,2F4K,34,1,29.641440743374112,39.5526358789012,0.9261021398640444,43.3308946610553,1,n,0.9470590999999331,incorrect,c
34,2F4K,35,2,58.689521112335605,50.31801591917398,1.694295638675784,52.95066211872405,1,v,0.6362848999997368,correct,v
35,2F4K,36,1,58.71280341799023,43.36338218693967,1.6951161168437625,46.74945004821423,2,n,1.0736593999999968,correct,n
36,2F4K,37,1,43.17865851794807,54.70660976889271,1.227190955779781,56.75798126489255,1,n,1.1157248999998046,incorrect,c
37,2F4K,38,1,47.75784861762702,34.56737264295985,1.3497904565163297,38.91113675186293,2,c,1.863530799999353,incorrect,n
38,2F4K,39,2,55.102485402774526,64.21837264969353,1.5725158537276474,64.44541608078904,2,v,1.0788685000006808,incorrect,b
39,2F4K,40,1,40.59578443905649,57.5362273897957,1.1630180867678168,59.139134799292925,1,n,2.359807200000432,incorrect,c
40,2F4K,41,1,63.3326330923278,73.56363014037903,1.8660388112936488,70.86681163329989,1,c,1.3584186000007321,correct,c
41,2F4K,42,2,45.03035452944122,64.45526129192815,1.275365389929515,64.62385734309848,2,b,1.3344811999995727,correct,b
42,2F4K,43,1,39.25139347705607,49.805514209416174,1.1309552177610505,52.49898632740847,1,n,1.4374164000000746,incorrect,c
43,2F4K,44,2,50.24001462429794,63.11409524391266,1.4212894942453254,63.6041102332366,2,b,1.5419433000006393,correct,b
44,2F4K,45,1,50.10778691361676,56.101769804139984,1.4173868873306772,57.94041959455912,1,c,0.9998017999996591,correct,c
45,2F4K,46,1,68.09646086345464,44.77197275005954,2.0603562712333083,48.0137748327735,2,c,0.8855523000001995,incorrect,n
46,2F4K,47,2,50.04618452356375,68.63044063361681,1.415572397427541,67.64228092687351,2,b,0.9531951999997545,correct,b
47,2F4K,48,2,53.09311576210487,41.407236949485394,1.5081641619485096,44.99295878216958,1,b,0.9205420999996932,incorrect,v
48,2F4K,49,1,64.44343376038938,46.83927840777069,1.9096430732248464,49.86437549028901,2,c,2.0746079000000464,incorrect,n
49,2F4K,50,2,43.60054818941791,59.98322999789291,1.238004403113965,61.13919236115226,2,b,0.9773616000002221,correct,b
50,2F4K,51,2,44.88453494986313,32.48379631260159,1.271504042228612,37.09862355580277,1,v,1.0246873999994932,correct,v
51,2F4K,52,1,45.502303766045465,69.05286381761746,1.2879433275600631,67.93355485052408,1,n,1.7057942000001276,incorrect,c
52,2F4K,53,1,31.405404804449123,50.279897486399264,0.9607028310361732,52.9171101432316,1,c,0.9930896999994729,correct,c
53,2F4K,54,2,56.27982917709481,47.83581147640815,1.6114895972558378,50.75286128929103,1,v,1.5830032000003484,correct,v
54,2F4K,55,1,30.972141364912016,47.00967677269652,0.952086290830156,50.01649793208801,1,n,1.5236998000000312,incorrect,c
55,2F4K,56,2,25.01909202507304,46.69021484376606,0.8412303237154239,49.73123807501514,2,v,1.479005799999868,incorrect,b
56,2F4K,57,1,53.447128192177445,65.34967637283405,1.5193074498077954,65.29091688525202,1,n,1.0064614999992045,incorrect,c
57,2F4K,58,1,42.77530425479157,65.14074617176082,1.2169409181393738,65.13605201593336,1,c,0.8743264999993698,correct,c
58,2F4K,59,2,35.784218356460194,50.64867127434124,1.0522857693646115,53.24140933835781,2,b,1.5587430999994467,correct,b
59,2F4K,60,1,27.17012301172628,41.46424893061557,0.8797123009266257,45.04412446405541,1,c,1.9350588999996035,correct,c
60,2F4K,61,2,56.41243061931011,48.28531802190931,1.6159392012613514,51.1526221909174,1,b,1.8527047999996284,incorrect,v
61,2F4K,62,1,57.18294158468455,74.77804548436453,1.642038834541249,71.59827936029049,1,n,2.1912968000006003,incorrect,c
62,2F4K,63,1,62.64653920356783,77.73179430304376,1.8396051938974685,73.26774722914267,1,c,1.540359200000239,correct,c
63,2F4K,64,1,77.19955954879933,60.43848140681409,2.4897256674486634,61.504505605092405,2,c,1.3538203999996767,incorrect,n
64,2F4K,65,2,38.58591693971356,50.3984796372367,1.1154126270120712,53.02146359043768,2,v,0.9504745000003822,incorrect,b
65,2F4K,66,1,52.6706125000553,42.53928180111883,1.494971907989184,46.00933413157404,2,n,2.367292799999632,correct,n
66,2F4K,67,2,63.72010099357101,47.42441372425784,1.881134533144228,50.38641994524088,1,v,1.7349940000003699,correct,v
67,2F4K,68,1,53.61758010056245,63.13626158072656,1.5247021106419738,63.62114875920496,1,n,1.3355431999998473,incorrect,c
68,2F4K,69,1,35.64978137617841,48.45067052801525,1.0493481720685802,51.299500278827686,1,c,1.9167052000002514,correct,c
69,2F4K,70,1,58.5894550752101,38.9939288780724,1.6907737887576266,42.83144601059896,2,c,0.8969907000000603,incorrect,n
70,2F4K,71,2,56.91322006170245,72.09972932420497,1.6328549080640138,69.95144563585164,2,v,1.9593545999996422,incorrect,b
71,2F4K,72,1,64.49494428806074,80.63871053452193,1.9116896475921783,74.752984545936,1,n,1.0998835000000327,incorrect,c
72,2F4K,73,1,61.38500969009637,48.06561333568898,1.7919747271495068,50.95731659623284,2,c,2.7448515999994925,incorrect,n
73,2F4K,74,2,42.38699444788016,62.09996171352248,1.2071540811429675,62.81816786032275,2,b,1.1399979999996503,correct,b
74,2F4K,75,2,65.22656148252229,53.16771345634415,1.9409955957402996,55.4367699675888,1,v,1.121820000000298,correct,v
75,2F4K,76,1,61.16056916600846,53.35708774413924,1.7836308708778097,55.600244171533085,2,n,1.8500856999999087,correct,n
76,2F4K,77,2,51.17781510521997,33.28154865395856,1.4492780948884671,37.78949755265788,1,v,2.6828488000001016,correct,v
77,2F4K,78,2,66.64074244221112,45.15665846306933,1.9989221323686812,48.35870936178512,1,v,0.7819249000003765,correct,v
78,2F4K,79,2,76.33319463774083,64.62103161093442,2.4452735029758985,64.74829097210356,1,v,0.6243101000000024,correct,v
79,2F4K,80,1,46.046145197550246,39.34490924846132,1.3025911734689737,43.14511611264447,2,n,2.4204831999995804,correct,n
80,2F4K,81,1,46.00839151087274,28.99735373763668,1.3015689549365417,34.13291013007277,2,c,5.0,correct,n
81,2F4K,82,2,58.57560192762431,40.22825082283244,1.690286800901285,43.935734274433685,1,b,3.502164300000004,incorrect,v
82,2F4K,83,2,58.801306277350136,47.397665714256064,1.6982386219879508,50.362577075886485,1,v,1.4317528000001403,correct,v
83,2F4K,84,1,44.91016620430833,65.45289058290393,1.2721819179266856,65.36720425255504,1,c,0.8001555999999255,correct,c
84,2F4K,85,2,48.07822104603415,31.615755172940524,1.3588127225958904,36.351682584361775,1,v,0.8014962999995987,correct,v
85,2F4K,86,2,29.702553348537567,45.302345359928935,0.9272797794101358,48.48928617978768,2,b,0.6848787999997512,correct,b
86,2F4K,87,1,68.03535279229432,58.781188495834215,2.057739825605469,60.16415274937169,2,c,1.4737974999998187,incorrect,n
87,2F4K,88,2,62.63975369157329,53.68297864462737,1.839345642527162,55.88099832817659,1,v,0.8790532000002713,correct,v
88,2F4K,89,2,46.31038986417511,55.401066574938135,1.30976836948181,57.34849074491011,2,v,1.1144076000000496,incorrect,b
89,2F4K,90,1,60.35676074567289,50.996703275015726,1.7540657440424954,53.546843236027335,2,n,1.4072368000006463,correct,n
90,2F4K,91,1,37.938248326564754,56.03426733243119,1.100491078661143,57.8835718245064,1,n,1.0550492000002123,incorrect,c
91,2F4K,92,2,65.43148269108387,48.92837419442121,1.9492842459878084,51.72326576465562,1,b,2.529970499999763,incorrect,v
92,2F4K,93,2,65.51060552989877,47.02154823184456,1.95249406890576,50.02709325570363,1,v,0.6120365999995556,correct,v
93,2F4K,94,1,56.97181390955815,46.88352635551063,1.634845631527475,49.90388499254459,2,c,0.7225805000007313,incorrect,n
94,2F4K,95,2,41.33938576369928,60.197008883906165,1.181141306683028,61.31101593460601,2,v,1.2189236000003802,incorrect,b
95,2F4K,96,2,49.80353626488364,64.61661684170367,1.408447792694349,64.74498175565152,2,b,0.6608315999992556,correct,b
96,2F4K,97,2,58.48744805144526,49.303162943495735,1.687191160289346,52.05511370104188,1,b,0.5816611000000194,incorrect,v
97,2F4K,98,1,44.29938212260956,65.88803978818885,1.2561262418285284,65.68723138958279,1,c,2.2809833999999682,correct,c
98,2F4K,99,1,40.3980853672472,23.16439608412224,1.1582466912264555,29.421222260834817,2,c,1.3050938000005772,incorrect,n
99,2F4K,100,1,60.01559825467716,38.4495253529772,1.741665955810308,42.34553436219026,2,n,2.0456411000004664,correct,n
100,2F4K,101,1,44.14871039490064,59.36436302287012,1.2521967933433853,60.6390564870777,1,n,1.6924435999999332,incorrect,c
101,2F4K,102,1,44.55276039659108,25.76500577757512,1.262762052660057,31.47775080065586,2,n,0.7698246999998446,correct,n
102,2F4K,103,1,38.05509312972904,55.08654295241424,1.1031682141853838,57.08150898849488,1,c,0.8452895999998873,correct,c
103,2F4K,104,1,70.50798632987899,57.3849746133758,2.166309822551558,59.0136053633385,2,n,0.7930133999998361,correct,n
104,2F4K,105,2,25.171524129662625,41.06572121396949,0.8439010326679302,44.68653203967577,2,v,0.8985109000004741,incorrect,b
105,2F4K,106,1,39.29807806886305,25.7894996928405,1.132053658190297,31.49747768495469,2,n,1.6911683999996967,correct,n
106,2F4K,107,1,48.80069264480841,45.28954083309352,1.379380789103959,48.477811009083446,2,n,1.3827425999998013,correct,n
107,2F4K,108,1,39.05886845822983,51.86691120715764,1.1264365516523092,54.30770738443224,1,n,1.2081466999998156,incorrect,c
108,2F4K,109,2,56.921847556712216,34.125630753155,1.6331478745798222,38.52473908805924,1,v,1.2735259000000951,correct,v
109,2F4K,110,1,51.209784531267815,62.99968469789959,1.4502418743067265,63.5160700618297,1,c,0.8668533000000025,correct,c
110,2F4K,111,1,39.749081017697776,57.69781215286777,1.142720385249932,59.27300554568902,1,n,1.129246200000125,incorrect,c
111,2F4K,112,1,45.78778723595903,64.22807008148342,1.295611893566104,64.45273519755546,1,c,0.7078173999998398,correct,c
112,2F4K,113,1,61.71816607656975,74.03996090125241,1.804432257632112,71.15677312672474,1,c,0.8305368000001181,correct,c
113,2F4K,114,1,64.7388529166793,52.45486893400328,1.921410248012117,54.81933355684745,2,c,0.6666209999993953,incorrect,n
114,2F4K,115,1,34.570750001375124,47.9433769148619,1.0260652654128306,50.8485841878914,1,n,0.5904019999998127,incorrect,c
115,2F4K,116,2,51.97121107360727,68.29244661713965,1.4733869117754723,67.40727763706694,2,v,1.7664615000003323,incorrect,b
116,2F4K,117,1,29.898363037176257,52.92004562296099,0.9310631261953004,55.2226186736882,1,n,1.6428384999999253,incorrect,c
117,2F4K,118,2,49.70426623493006,34.43582508800796,1.4055433858570914,38.79595911731344,1,b,0.8854670000000624,incorrect,v
118,2F4K,119,1,55.25084018255725,38.16585709895397,1.5773744784131984,42.09267262500685,2,c,2.1841730000005555,incorrect,n
119,2F4K,120,1,58.49440017508725,42.51332920627614,1.687435087296228,45.98602674928978,2,n,0.5951978000002782,correct,n
120,2F4K,121,1,60.805101628473366,48.56567053862532,1.770495342871153,51.4015935195915,2,n,1.3393587999999,correct,n
121,2F4K,122,2,51.1916156802381,61.11622335061641,1.4496940609932665,62.044149822301925,2,b,1.4616910999993706,correct,b
122,2F4K,123,1,40.91295943729141,54.94771353458019,1.1707140875934263,56.96341869049477,1,c,1.4681467000000339,correct,c
123,2F4K,124,1,54.18919903229276,61.4592599085455,1.5429335935482815,62.31532297125124,1,n,0.8912221999999019,incorrect,c
124,2F4K,125,2,60.337941344295935,36.18363530523236,1.753379444969166,40.33335589464387,1,b,2.1220236999997724,incorrect,v
125,2F4K,126,1,45.736491995369946,60.73293469028638,1.294230660036,61.73958659655472,1,n,1.5636706999994203,incorrect,c
126,2F4K,127,2,25.840892272998094,41.81224711653553,0.8557295218714209,45.356496419883705,2,v,3.641264500000034,incorrect,b
127,2F4K,128,1,48.059498776483714,60.30764446666373,1.3582838144239309,61.39974565193331,1,n,0.9410939999997936,incorrect,c
128,2F4K,129,2,33.610487674430686,53.09274606586449,1.005779902051358,55.37199005529088,2,v,2.1791864999995596,incorrect,b
129,2F4K,130,1,62.29931050037706,48.65650948289547,1.8263703138106524,51.48220291573961,2,n,1.0057667999999467,correct,n
130,2F4K,131,2,40.43219332692512,62.18804521193692,1.1590684749717683,62.88692230063419,2,v,1.4241124999998647,incorrect,b
131,2F4K,132,2,22.18058290254262,40.95560146855585,0.7930135856730668,44.58775419990197,2,b,1.0680025000001478,correct,b
132,2F4K,133,2,49.55903467305143,40.02340040871504,1.4013050403351763,43.75225197949739,1,b,1.4556999999995242,incorrect,v
133,2F4K,134,2,39.82526238238589,56.00625448969553,1.1445320568546136,57.859969402263495,2,v,0.860876400000052,incorrect,b
134,2F4K,135,2,30.85814729427124,42.7723251905734,0.9498321001133484,46.218629499957096,2,b,0.4737685000000056,correct,b
135,2F4K,136,1,31.389443726219376,48.82317030308492,0.9603840254350058,51.63001498661719,1,c,2.9445346000002246,correct,c
136,2F4K,137,1,43.90125589339569,26.717603771447447,1.245769949135707,32.249571946602735,2,c,1.3527742000005674,incorrect,n
137,2F4K,138,1,53.38235228176725,39.68221426570129,1.5172623549854476,43.44682917285501,2,n,0.5694172000003164,correct,n
138,2F4K,139,2,52.59333458339997,44.03802603613923,1.4925714934134784,47.35519081170876,1,b,1.1908862999998746,incorrect,v
139,2F4K,140,2,42.47332909912073,59.13720829579362,1.2093232055437957,60.45448499482504,2,v,0.5331226999996943,incorrect,b
140,2F4K,141,2,46.04609685059288,37.65331978791041,1.3025898639138738,41.6364266672767,1,b,0.6475065000004179,incorrect,v
141,2F4K,142,1,39.54843185971534,47.32403814753576,1.137962452206779,50.29693548308629,1,c,0.7880483999997523,correct,c
142,2F4K,143,1,40.25546779295807,50.00217630835471,1.154816826387419,52.672451525950194,1,c,0.649780799999462,correct,c
143,2F4K,144,1,41.20056617130035,53.66814654107494,1.1777366552439823,55.868236291567904,1,c,0.7510823000002347,correct,c
144,2F4K,145,1,41.03420495612677,48.88206787982795,1.1736694507141,51.68222600932421,1,c,0.7347798999999213,correct,c
145,2F4K,146,2,36.76457609637414,52.58455987244638,1.0739577833115943,54.93190563962559,2,v,2.694981999999982,incorrect,b
146,2F4K,147,1,47.91310300668533,59.50608621873436,1.354155194596017,60.75394292849747,1,c,0.6241731000000073,correct,c
147,2F4K,148,1,35.734108777731656,44.32548969599742,1.0511898592960225,47.61320066025864,1,c,1.1326755000000048,correct,c
148,2F4K,149,2,54.02498541325814,38.17860821894425,1.537673883110482,42.10403383219731,1,b,0.8305076999995435,incorrect,v
149,2F4K,150,1,63.56517336062205,45.69377438615601,1.8750839661036385,48.839945387995854,2,c,1.1649284999994052,incorrect,n
150,2F4K,151,2,40.717501778135386,29.424841523358992,1.1659654615166828,34.49134043821702,1,b,1.5527099999999336,incorrect,v
151,2F4K,152,1,42.68746028801328,31.5943560743693,1.2147200050991145,36.33333542174662,2,n,1.6086342999997214,correct,n
152,2F4K,153,2,50.33316074886659,32.89159545669157,1.424045084984732,37.45128061200504,1,v,1.8060863999999128,correct,v
153,2F4K,154,2,41.82350077328461,52.3097147386702,1.1930917757572777,54.69321671993211,2,v,0.8851040999998077,incorrect,b
154,2F4K,155,1,39.15419048891556,22.72779472546957,1.1286715501156257,29.083707730795517,2,n,1.4982240999997885,correct,n
155,2F4K,156,1,44.26799203829744,66.07323063248954,1.2553065874675329,65.82263749830646,1,n,0.9095242000003054,incorrect,c
156,2F4K,156,1,44.26799203829744,66.07323063248954,1.2553065874675329,65.82263749830646,1,many,0.9095242000003054,incorrect,c
157,2F4K,157,2,55.49457504940687,45.457489183026354,1.5853894174509953,48.62830202480442,1,v,0.6741616999997859,correct,v
158,2F4K,158,1,42.491740077200966,55.39662268985612,1.20978627816003,57.34472401689679,1,c,0.6726568000003681,correct,c
159,2F4K,159,2,46.31337819166748,62.99341380564451,1.3098497617025138,63.51123987298416,2,v,1.3152233999999225,incorrect,b
160,2F4K,160,1,49.385685130929545,40.10515036361533,1.3962628459703337,43.82546559188653,2,n,0.8244067999994513,correct,n
161,2F4K,161,1,30.98295836666272,45.169778231092685,0.9523004707600454,48.37046972562222,1,n,1.5107913000001645,incorrect,c
162,2F4K,162,1,56.51131714012384,43.63188159242858,1.6192654553637849,46.99055597659166,2,c,0.4967186000003494,incorrect,n
163,2F4K,163,1,49.74051783021075,58.071836360883786,1.4066033271141656,59.58194046333112,1,n,0.709132399999362,incorrect,c
164,2F4K,164,2,54.18282427168668,38.75565240187632,1.5427290767212898,42.61867304820383,1,v,1.8142473999996582,correct,v
165,2F4K,165,2,46.37988128931817,34.48434076082922,1.3116623968715828,38.83842662182466,1,b,1.4072443999993993,incorrect,v
166,2F4K,166,1,34.74267553965797,53.164499993293056,1.0297401072070274,55.43399394709018,1,n,2.890087499999936,incorrect,c
167,2F4K,167,1,37.62223293384447,47.9902997922348,1.093283069851065,50.89032915941431,1,c,0.6558439999998882,correct,c
168,2F4K,168,1,44.71942271414096,34.444881624176176,1.2671459303369226,38.80388566256531,2,c,0.8790490000001228,incorrect,n
169,2F4K,169,2,44.43333856754126,34.834466800048205,1.2596301170484236,39.145275636382976,1,b,1.073119499999848,incorrect,v
170,2F4K,170,2,36.844737098682494,51.71290213984511,1.075749457667453,54.17335700006466,2,v,0.6194328000001406,incorrect,b
171,2F4K,171,2,66.2485146183015,45.46923731595975,1.9826849335129564,48.63882725726809,1,v,1.493251699999746,correct,v
172,2F4K,172,1,57.45817334848552,45.91493728535254,1.651463633198124,49.037950639033824,2,c,1.4130973999999696,incorrect,n
173,2F4K,173,2,58.50609532784621,76.91376458295294,1.68784551106101,72.82126085870955,2,v,0.5708512999999584,incorrect,b
174,2F4K,174,1,76.55461476896217,64.95516109843939,2.4565582403559643,64.99799915851683,2,n,2.6464458999998897,correct,n
175,2F4K,175,1,61.49894647927589,49.230576454808,1.7962253948027629,51.9908882783114,2,n,1.182469599999422,correct,n
176,2F4K,176,2,33.14840269710297,46.13836010313171,0.996161860087301,49.23788068279247,2,v,1.3524451000002955,incorrect,b
177,2F4K,177,1,74.94076499011466,59.07972367174692,2.3754864042264896,60.40769317336175,2,n,0.83658639999976,correct,n
178,2F4K,178,2,40.01532497806309,45.597110110153686,1.1490644735839108,48.75337401792646,2,v,1.1400462999999945,incorrect,b
179,2F4K,179,2,47.97573267296106,66.78921430104408,1.355919923850465,66.34162918402066,2,b,0.6983307999998942,correct,b
180,2F4K,180,1,69.93539504762093,55.84460832676604,2.140669169961535,57.72364603648614,2,n,0.6315291000000798,correct,n
181,2F4K,181,1,34.52422818959721,46.54738512413784,1.0250731361218122,49.60361667525753,1,c,1.1328036000004431,correct,c
182,2F4K,182,2,62.39590002715954,46.82300746518905,1.830042306532417,49.84984570519706,1,b,2.287031300000308,incorrect,v
183,2F4K,183,1,47.83104120247671,32.14521430809993,1.3518463977330637,36.80666032896672,2,n,1.7469192999997176,correct,n
184,2F4K,184,1,38.714105844366784,52.43791650348122,1.11838985208741,54.80461112859774,1,c,1.1703848999995898,correct,c
185,2F4K,185,1,61.59588581738368,43.22075690713553,1.7998498722035248,46.62136558519322,2,n,1.3523580000000948,correct,n
186,2F4K,186,1,40.97523478003033,55.77625480774316,1.1722311202092133,57.66593565126598,1,c,0.9032902999997532,correct,c
187,2F4K,187,2,43.7729892552062,36.31403176168119,1.2424516217929324,40.44862348036877,1,v,1.5531632000001991,correct,v
188,2F4K,188,1,47.66004290950778,66.30064963820148,1.347048025520626,65.98826683601519,1,n,2.550626499999453,incorrect,c
189,2F4K,189,1,52.82927336562175,71.5003355434484,1.4999123543570314,69.56630036085883,1,c,0.8851087000002735,correct,c
190,2F4K,190,1,69.51949115376512,50.841724219625696,2.122235465650748,53.41090989279899,2,c,0.6133771999993769,incorrect,n
191,2F4K,191,1,53.80767773811633,30.17785262439456,1.5307411393768275,35.12645560382424,2,c,1.237102699999923,incorrect,n
192,2F4K,192,2,53.47862831401916,41.90861706563998,1.5203029626383613,45.443016207869,1,v,1.8039394999996148,correct,v
193,2F4K,193,1,48.36715425480666,60.56016553599793,1.367001312048676,61.60176937973661,1,n,0.7212823999998363,incorrect,c
194,2F4K,194,1,53.35730476380116,60.74560059854862,1.5164722969413669,61.749677165473166,1,c,0.6669062000000849,correct,c
195,2F4K,195,1,38.12564915351658,53.64510426245851,1.104787938810051,55.84840693538258,1,c,0.740801900000406,correct,c
196,2F4K,196,2,50.57290806656157,34.73905945334538,1.4311622531692827,39.06159718108939,1,b,1.0371169999998529,incorrect,v
197,2F4K,197,2,79.36275459212962,60.41282723883348,2.6042765144412128,61.483979226106015,1,v,0.7576732999996239,correct,v
198,2F4K,198,2,47.37606031529677,61.54991493262267,1.3391168083926046,62.38676173429268,2,v,0.7833023000002868,incorrect,b
199,2F4K,199,1,32.41720397145756,51.224780918477286,0.9811299370420438,53.74666257710068,1,c,1.5163935999999012,correct,c
200,2F4K,200,2,64.84049019793386,52.78986326751647,1.9254754195549024,55.109894745202354,1,b,1.018645099999958,incorrect,v
201,2F4K,201,1,50.423474548777946,41.124371164290906,1.426721986796399,44.739147081915625,2,c,5.0,incorrect,n
202,2F4K,202,2,50.85368617778024,43.192470521885866,1.4395427022870062,46.59596240007747,1,v,1.5769505000007484,correct,v
203,2F4K,203,1,52.68777581980868,69.05671848340884,1.4955055604833751,67.93620022625898,1,c,1.2566121999998359,correct,c
204,2F4K,204,2,61.31850150123925,49.99816638523871,1.7894981410119142,52.668916348026414,1,v,1.0550359999997454,correct,v
205,2F4K,205,2,61.34294260210501,38.27891106338016,1.79040786385068,42.19342040868329,1,v,0.648436500000571,correct,v
206,2F4K,206,1,45.96524645352636,61.000151263823824,1.3004017418643214,61.95209196759368,1,c,2.2033415000005334,correct,c
207,2F4K,207,1,30.56833302693749,40.8092721330479,0.9441251334518472,44.45651951655963,1,c,0.7580004999999801,correct,c
208,2F4K,208,1,34.257066844848964,49.23149327700627,1.019394168487061,51.991699629607325,1,c,0.8875872999997227,correct,c
209,2F4K,209,2,35.706147861658074,47.25052071580774,1.0505788426747609,50.23137643735989,2,b,1.9340290000000095,correct,b
210,2F4K,210,1,61.18282434272995,45.982269422445945,1.7844564966468126,49.09821359076397,2,c,1.006492999999864,incorrect,n
211,2F4K,211,2,57.06267941319174,41.023087903830096,1.637937584417335,44.648288074787175,1,v,2.470451099999991,correct,v
212,2F4K,212,2,44.02195738615524,55.35253842183721,1.2489006555496045,57.3073487836204,2,v,1.2371022999996057,incorrect,b
213,2F4K,213,2,41.22712834766083,60.61869545568775,1.178387351801856,61.648495297249205,2,b,0.9592760999994425,correct,b
214,2F4K,214,2,51.543028595329694,42.63088828398568,1.4603263934480368,46.09160467840842,1,b,0.7813988999996582,incorrect,v
215,2F4K,215,2,42.17225871452379,57.28711218072991,1.2017757879360718,58.93227461077564,2,v,1.2492449000001216,incorrect,b
216,2F4K,216,1,65.29641714710348,47.20012029502497,1.9438171497142576,50.18642304865788,2,c,2.7548234999994747,incorrect,n
217,2F4K,217,1,52.59863413564823,66.029110953729,1.492735985483845,65.7904216412264,1,n,0.6255025999998907,incorrect,c
218,2F4K,218,1,55.76125488938872,40.727344992022125,1.5942055394724888,44.38305589198738,2,n,0.6740694999998595,correct,n
219,2F4K,219,2,62.2974802211676,50.94508140931217,1.826300804235004,53.50157914257999,1,v,1.15130070000032,correct,v
220,2F4K,220,1,45.15268847313515,58.183949474474026,1.2786138746564222,59.67428426397963,1,n,1.8804360000003726,incorrect,c
221,2F4K,221,1,46.59714082802025,62.90654392819655,1.3176016116519778,63.4442781160569,1,n,0.546639199999845,incorrect,c
222,2F4K,222,2,56.39595293164962,42.1073888814617,1.615385604428538,45.62148857951952,1,v,2.1973517000005813,correct,v
223,2F4K,223,2,58.4070150843698,45.97986350454122,1.6843715962932646,49.09606042669774,1,v,0.42278149999947345,correct,v
224,2F4K,224,1,40.80141323111926,56.16381026125676,1.168001718543164,57.992633796612246,1,n,2.5236752000000706,incorrect,c
225,2F4K,225,1,43.42548152190652,53.50946146161965,1.2335057541599304,55.731603738234114,1,c,0.5998399999998583,correct,c
226,2F4K,226,2,54.64373095759401,67.88283223179226,1.557586115335392,67.12018657653785,2,v,1.4920116000002963,incorrect,b
227,2F4K,227,1,42.33798754444478,57.91050811878417,1.2059245333481483,59.44884934163004,1,n,0.877864000000045,incorrect,c
228,2F4K,228,2,27.202799731896054,40.79665243549324,0.8803102626679525,44.445202911923225,2,v,2.089364499999647,incorrect,b
229,2F4K,229,1,32.863520272548854,20.61629182504461,0.9902780784673672,27.48532981222263,2,n,0.7089968000000226,correct,n
230,2F4K,230,1,54.29192649549096,34.84058816518778,1.5462330656261514,39.15064608181475,2,n,0.7819449000007808,correct,n
231,2F4K,231,2,56.80555799268464,70.0987347648769,1.6292034107840296,68.64287894635726,2,b,1.460823999999775,correct,b
232,2F4K,232,1,56.15716036503292,48.73697946673219,1.6073842056074032,51.55358520685651,2,n,0.9397595999998885,correct,n
233,2F4K,233,1,30.889902018805024,48.10209772771299,0.950459501252526,50.989760691459246,1,n,1.6936637999997401,incorrect,c
234,2F4K,234,1,56.98349198431447,43.85085370210651,1.6352426835849123,47.187161327531406,2,n,1.8440143999996508,correct,n
235,2F4K,235,1,46.842708494796405,63.27984181001766,1.324347068018525,63.73136640649584,1,n,0.8532550999998421,incorrect,c
236,2F4K,236,1,45.021033124675306,53.48973093686301,1.2751182057790589,55.714603145308885,1,c,0.9228898999999728,correct,c
237,2F4K,237,2,62.508169943701,50.91718198872525,1.83431969105028,53.47711005081975,1,v,3.1070120000003953,correct,v
238,2F4K,238,1,49.64103480056389,65.61745533718593,1.4036965065383655,65.48853706668432,1,n,2.452241199999662,incorrect,c
239,2F4K,239,1,47.43303529746213,34.25799073322425,1.340704282564312,38.64040382138488,2,c,0.5998791000001802,incorrect,n
240,2F4K,240,2,68.67585303515675,51.684819993679305,2.0853298341077244,54.14884483138148,1,b,0.8183373000001666,incorrect,v
241,2F4K,241,1,75.96135308385676,55.6532738680944,2.426439001528537,57.56200751935212,2,c,2.464191199999732,incorrect,n
242,2F4K,242,1,34.33779295531733,43.19969136677702,1.021106813894083,46.6024472493342,1,n,2.573664600000484,incorrect,c
243,2F4K,243,1,49.02875744932223,64.02100417958887,1.385938003448605,64.29618843927972,1,c,0.35244929999953456,correct,c
244,2F4K,244,2,53.745699258891136,36.24465830931383,1.5287695813896105,40.38728985456922,1,b,1.1398813999994672,incorrect,v
245,2F4K,245,2,71.4246492774965,62.02761389453168,2.2079989381743688,62.761627377452136,1,b,1.2249472000003152,incorrect,v
246,2F4K,246,2,49.65621712988342,34.00344655860589,1.4041397342433266,38.41805378240018,1,v,0.5222960000000967,correct,v
247,2F4K,247,1,24.45876351352469,41.355403476834304,0.8314854396234489,44.94644322965509,1,n,1.1520688000000519,incorrect,c
248,2F4K,248,2,57.64073788306995,45.70171270395558,1.6577450377724423,48.84705409469689,1,v,1.2488320000002204,correct,v
249,2F4K,249,1,65.57003692026178,45.56251223526087,1.9549085328068965,48.722384509219424,2,c,0.6009554000002026,incorrect,n
250,2F4K,250,1,48.01527327203864,25.223623266250645,1.357035251731577,31.043376597973968,2,n,0.36543319999964297,correct,n
251,2F4K,251,2,62.578089838765806,48.12227124610677,1.8369886277268157,51.00769824949365,1,b,0.6614934999997786,incorrect,v
252,2F4K,252,1,62.10136082114491,48.934612431039405,1.8188679722536687,51.72879386623677,2,c,0.5938083000000915,incorrect,n
253,2F4K,253,1,48.51400984397628,53.35594915108311,1.3711822085334755,55.59926201487215,1,n,0.5638629999994009,incorrect,c
254,2F4K,254,2,60.03798896975871,48.28098970487957,1.7424770674810095,51.14877616444098,1,b,3.035936600000241,incorrect,v
255,2F4K,255,1,40.6404567015075,33.264005995943585,1.164098955276072,37.77426201187486,2,c,1.0116236000003482,incorrect,n
256,2F4K,256,2,40.56021321425102,54.796309456892544,1.1621581403463097,56.83446338302447,2,b,1.2202042999997502,correct,b
257,2F4K,257,2,59.55516170301786,44.34097026270935,1.7250699357188466,47.62709297591461,1,b,2.493970100000297,incorrect,v
258,2F4K,258,2,67.55781231946558,45.91735833205772,2.0374072292933523,49.0401176575818,1,v,0.691153800000393,correct,v
259,2F4K,259,2,48.13094645520737,65.63057341616296,1.3603033337947703,65.49819305293396,2,v,1.7968008999996528,incorrect,b
260,2F4K,260,1,27.01119914112111,44.69989548284163,0.8768098886717297,47.9491240452523,1,n,1.5284467000001314,incorrect,c
261,2F4K,261,1,40.45888135959356,55.63819095774739,1.1597118924944156,57.549252856079775,1,c,0.5526710000003732,correct,c
262,2F4K,262,1,33.29803818339323,55.41743767407244,0.9992663272595044,57.36236586691759,1,c,1.448386600000049,correct,c
263,2F4K,263,2,51.999762742405686,59.92056717331433,1.4742619438058164,61.08873494833436,2,v,1.091451799999959,incorrect,b
264,2F4K,264,2,46.279943025763096,33.73295603240507,1.3089393858752347,38.18217810857016,1,b,0.6134282000002713,incorrect,v
265,2F4K,265,2,44.58853117392006,36.05648397560912,1.2637016854141336,40.22102741300671,1,b,1.0003888000001098,incorrect,v
266,2F4K,266,2,29.000178813816845,43.36739807557806,0.9138348481615082,46.75305642428964,2,v,0.3706043000001955,incorrect,b
267,2F4K,267,2,34.27714038974225,49.49638448213213,1.0198197704070258,52.22597101110045,2,b,0.6610300000002098,correct,b
268,2F4K,268,1,51.27368426728013,42.32280244894945,1.4521701751383054,45.81492472790776,2,n,1.7228379999996832,correct,n
269,2F4K,269,1,38.64627595596591,47.70485969425323,1.1168134943252956,50.636276568115626,1,n,1.4861710000004678,incorrect,c
270,2F4K,270,2,49.21624434430718,37.87740329655559,1.391351879378374,41.83579567844247,1,v,1.4508445000001302,correct,v
271,2F4K,271,1,57.19469795892921,71.58608990223674,1.6424403078052745,69.62176533604793,1,c,1.2360036999998556,correct,c
272,2F4K,272,1,43.88607371082759,30.842225355466866,1.2453767158942424,35.690605634666134,2,n,1.5162855000007767,correct,n
273,2F4K,273,1,47.678798690741445,57.48110704255315,1.3475734976029667,59.093413056490846,1,n,0.8113835999993171,incorrect,c
274,2F4K,274,1,32.31816065734798,48.281973844033104,0.9791113324410636,51.14965064988183,1,c,0.6011970999998084,correct,c
275,2F4K,275,1,50.12465506633784,62.57167936122001,1.417884141943207,63.18529191529447,1,c,0.8790519999993194,correct,c
276,2F4K,276,2,22.8295668642856,39.683454616285246,0.80378803437552,43.44793909074399,2,v,2.9556212999996205,incorrect,b
277,2F4K,277,2,61.05133231170511,48.511030376399496,1.7795839219719505,51.35309179795398,1,b,1.3526911999997537,incorrect,v
278,2F4K,278,1,56.23987196973246,44.25358785109668,1.6101511879817174,47.54867273313593,2,c,1.0975418999996691,incorrect,n
279,2F4K,279,2,56.32253220878879,42.26804483076382,1.612921210701262,45.76575193449816,1,b,0.9045636000000741,incorrect,v
280,2F4K,280,1,49.04392528492821,30.45627112550403,1.3863752059356294,35.3624518722707,2,n,0.6606098000002021,correct,n
281,2F4K,281,2,47.61430283743827,38.21509959016118,1.345767405994694,42.13655024349073,1,v,3.587895600000593,correct,v
282,2F4K,282,2,62.79819575179792,56.74020572541829,1.845415747171805,58.47616867399146,1,v,0.933661299999585,correct,v
283,2F4K,283,1,48.13457955016574,28.41409743910226,1.360406105989836,33.64646344144444,2,c,1.830462400000215,incorrect,n
284,2F4K,284,1,47.42867326867915,61.74625885710866,1.3405826783732715,62.541160974753126,1,n,0.5891594000004261,incorrect,c
285,2F4K,285,1,56.37448263439323,43.41046862677291,1.6146645566603597,46.79173459391531,2,n,2.57363179999993,correct,n
286,2F4K,286,1,71.13277145453881,57.08789097850752,2.194638232984908,58.7664389752172,2,n,0.5648409000004904,correct,n
287,2F4K,287,1,47.41456104859086,64.72915105066154,1.3401893349086351,64.8292547549122,1,n,0.7893984000002092,incorrect,c
288,2F4K,288,2,37.29541513855514,58.13612512063756,1.0858783242758543,59.63490768931855,2,v,1.7347668000002159,incorrect,b
289,2F4K,289,2,61.73759141386432,47.7481287044173,1.8051612845828515,50.67480444391602,1,b,0.6855166000004829,incorrect,v
290,2F4K,290,1,52.23992619859003,35.09307039518231,1.4816429096043853,39.37232249762167,2,c,0.7455399000000398,incorrect,n
291,2F4K,291,1,32.75817300106112,38.096543248882526,0.9881111151012858,42.030922876085135,1,n,0.21283200000016222,incorrect,c
292,2F4K,292,2,62.41388172397464,43.53365787263906,1.830726721840008,46.90235701038208,1,b,3.4415047000002232,incorrect,v
293,2F4K,293,2,37.79392346223416,52.084198087908895,1.0971932896145784,54.49702463109978,2,v,0.4784780999998475,incorrect,b
294,2F4K,294,2,50.23421450428502,35.05935756312777,1.421118082707356,39.34270437717671,1,b,0.6364505000001373,incorrect,v
295,2F4K,295,2,37.41067774712469,44.24728697992627,1.0884840991397229,47.54301782311054,2,v,0.4615786999993361,incorrect,b
296,2F4K,296,2,63.09168850407401,49.37725578228947,1.856712776200379,52.12064935198695,1,b,0.30375569999978325,incorrect,v
297,2F4K,297,2,52.53844813606442,29.245056969276902,1.490868946192993,34.34040685444072,1,b,0.5756099999998696,incorrect,v
298,2F4K,298,1,50.13539398156429,62.53455936759203,1.418200804246976,63.1564992696508,1,n,0.7336285000001226,incorrect,c
299,2F4K,299,2,62.31868148905582,52.56307254094131,1.827106139276688,54.91326178463542,1,v,0.6315696000001481,correct,v
300,2F4K,300,1,44.063838812425786,65.35253635582394,1.2499887966130436,65.29303269311374,1,c,1.5284618999994564,correct,c
301,2F4K,301,2,63.30945367068317,53.22793557784998,1.8651395926092105,55.48878155177073,1,v,0.6596296000006987,correct,v
302,2F4K,302,2,57.02452147335304,44.112190861834975,1.636638442205114,47.42176331762513,1,v,3.150155299999824,correct,v
303,2F4K,303,2,42.74710049407284,57.06444723495091,1.2162274150058865,58.74690043377256,2,v,2.214419099999759,incorrect,b
304,2F4K,304,1,46.21575094346022,39.019894778602215,1.3071933309885695,42.854641438683885,2,n,2.1791746999997486,correct,n
305,2F4K,305,2,30.18800697420538,52.13030900335334,0.9366878190768528,54.53716432826911,2,b,1.067804199999955,correct,b
306,2F4K,306,2,66.80578134007862,46.50262292111224,2.0057939930340902,49.56361056408772,1,v,0.4845476000000417,correct,v
307,2F4K,307,1,58.8288768462384,42.19897242140888,1.699212524881516,45.703725989256704,2,n,0.8915102000000843,correct,n
308,2F4K,308,1,55.51228566459827,44.48093732450589,1.5859733951889814,47.75268914525905,2,n,1.3220502000003762,correct,n
309,2F4K,309,1,55.41347812479995,69.75254895207564,1.5827181281908949,68.40997813936048,1,n,4.291200000000572,incorrect,c
310,2F4K,310,2,48.0499329709542,42.11445705258387,1.358013657815386,45.62783530245885,1,v,0.7720297999994727,correct,v
311,2F4K,311,1,46.56839489126544,57.61607787909199,1.3168142441157913,59.20532012710581,1,c,2.325776699999551,correct,c
312,2F4K,312,1,31.87240723659816,46.65312210146114,0.970077703347984,49.69809971315631,1,n,0.7940962000002401,incorrect,c
313,2F4K,313,1,65.72032791320896,53.582852188571,1.961027595741737,55.79481677419917,2,c,0.18724079999992682,incorrect,n
314,2F4K,314,2,41.88989793725991,57.043172217591824,1.1947402036141703,58.72916509554223,2,b,4.00593630000003,correct,b
315,2F4K,315,2,47.99674956396521,65.5321856904923,1.3565126364156868,65.42571426047395,2,b,0.8001382000002195,correct,b
316,2F4K,316,1,47.9333821254859,30.18831718541337,1.3547263519958384,35.13531449922773,2,c,2.5624001999995016,incorrect,n
317,2F4K,317,1,65.1495254251893,48.810626623574606,1.9378887656166712,51.61889364110848,2,n,0.4542461999999432,correct,n
318,2F4K,318,1,44.17058809016202,52.87304182678823,1.2527665896936526,55.181930953857965,1,n,0.6805101999998442,incorrect,c
319,2F4K,319,1,40.72876547746365,55.41201738046169,1.1662385883140118,57.35777220075037,1,c,1.3817466000000422,correct,c
320,2F4K,320,2,43.138389441315226,61.06989738712377,1.226163770675712,62.007426459078175,2,v,2.7847326999999495,incorrect,b
321,2F4K,321,2,56.837485964914485,69.18289052380786,1.6302854363953745,68.02266357982236,2,b,3.9510260999995808,correct,b
322,2F4K,322,1,48.0644135752228,61.91723196669965,1.3584226386216285,62.67524403475719,1,c,2.2020763999998962,correct,c
323,2F4K,323,1,27.700659292516608,42.06898165923441,0.8894711877507026,45.58700201322005,1,n,1.8318638000000647,incorrect,c
324,2F4K,324,2,73.16355315834551,53.95250732806196,2.2893000989026624,56.11264293391897,1,v,0.9143475999999282,correct,v
325,2F4K,325,2,57.80093439198652,50.259313837514505,1.6632765141232742,52.898989453784,1,v,1.0975225000001956,correct,v
326,2F4K,326,1,57.97696752228446,42.2251459831541,1.669376104830429,45.7272292107648,2,n,3.2038596000002144,correct,n
327,2F4K,327,2,51.29840092533367,31.935576617823497,1.452916736638121,36.62627888333424,1,v,4.441775999999663,correct,v
328,2F4K,328,2,45.93115344915764,61.73057573353477,1.299480156442325,62.528844647530086,2,v,1.3765341000007538,incorrect,b
329,2F4K,329,1,49.46773072476646,34.64482563649051,1.3986470295122495,38.97899463934519,2,n,0.5100456000000122,correct,n
330,2F4K,330,2,43.54351440735479,53.53617314883218,1.236537019824225,55.75461535272802,2,v,1.130281400000058,incorrect,b
331,2F4K,331,2,52.76787879694013,36.84670752831398,1.4979986918149466,40.92022763428216,1,b,1.1633877999993274,incorrect,v
332,2F4K,332,2,33.05387882490028,52.13121362448794,0.9942057586051262,54.53795167755168,2,v,0.43021309999949153,incorrect,b
333,2F4K,333,1,49.82588505185662,37.72085340533617,1.4091024926988127,41.6964944420454,2,c,1.3948688000000402,incorrect,n
334,2F4K,334,1,56.303844617769705,39.89697627995818,1.6122945552676875,43.6390533868106,2,n,2.980137200000172,correct,n
335,2F4K,335,2,39.24966163542793,32.59588782983044,1.1309144898178027,37.19545007113042,1,b,1.1393495000002076,incorrect,v
336,2F4K,336,1,58.05629775624376,73.26319779130183,1.672132223446971,70.68191841723242,1,n,2.6283113999998022,incorrect,c
337,2F4K,337,1,58.17908846490441,45.91902560574516,1.6764072361646325,49.04160998593149,2,c,2.8636696000003212,incorrect,n
338,2F4K,338,2,64.78446818765956,51.35590756839662,1.9232336527016105,53.86141674336144,1,v,0.8183514000002106,correct,v
339,2F4K,339,1,45.12818117747874,37.95466533258873,1.277962439996155,41.90457424261093,2,c,0.5904006999999183,incorrect,n
340,2F4K,340,1,30.10216775598127,42.98368915621169,0.9350173447825684,46.40845746819215,1,n,0.6725703000001886,incorrect,c
341,2F4K,341,1,41.07393488254044,57.172291532216704,1.174639490814321,58.83673939907014,1,c,1.133953499999734,correct,c
342,2F4K,342,1,37.711651719926486,43.79472914502112,1.095317823973163,47.13677225153047,1,c,3.295789699999659,correct,c
343,2F4K,343,2,53.64311210802675,68.79914262009446,1.5255118252484114,67.75893192722637,2,b,4.443605700000262,correct,b
344,2F4K,344,2,60.6305299997187,42.14046711878877,1.7640798926816414,45.65119072701967,1,b,0.6605546000000686,incorrect,v
345,2F4K,345,2,51.22865480473867,34.19579689739275,1.4508110555254048,38.58604267207097,1,v,0.31599480000022595,correct,v
346,2F4K,346,1,42.27266356056497,53.63217228027676,1.2042875488171438,55.83727653394978,1,c,1.7954313000000184,correct,c
347,2F4K,347,1,51.531097802581634,70.47587899292036,1.45996414037351,68.89445347381941,1,c,0.493148999999903,correct,c
348,2F4K,348,2,44.03422080134947,65.84056475326753,1.249219179004338,65.65244261861878,2,v,1.8318465000002107,incorrect,b
349,2F4K,349,1,41.695540858232754,53.89726237981961,1.1899213554402894,56.06520453337915,1,c,2.6635081000003993,correct,c
350,2F4K,350,2,25.698266619232825,37.92343973190661,0.8531953444389931,41.87677495676087,2,b,2.5674576000001252,correct,b
351,2F4K,351,2,51.19090865809293,40.23336667357107,1.4496727475852091,43.94031742541847,1,v,0.5500736000003599,correct,v
352,2F4K,352,2,54.3957652689277,72.66070110268345,1.5495754022262498,70.30649393359812,2,v,0.4920231000005515,incorrect,b
353,2F4K,353,2,46.10097995989787,36.06056858819906,1.3040773090751268,40.22463476059126,1,b,1.0732713000006697,incorrect,v
354,2F4K,354,2,72.59389649095617,50.9442996395752,2.26234177353456,53.50089354917528,1,v,0.7202814000002036,correct,v
355,2F4K,355,1,46.34954422189154,65.80384376699048,1.3108352066297408,65.62551288221587,1,c,2.186558100000184,correct,c
356,2F4K,356,1,56.438992864104605,71.59673823199054,1.6168320059312908,69.62864413842723,1,c,1.2735271999999895,correct,c
357,2F4K,357,1,68.22266113639111,48.15290046484933,2.0657702844228427,51.03492998471873,2,c,1.2070364999999583,incorrect,n
358,2F4K,358,1,52.695494257841496,34.47934290533907,1.4957456089976655,38.83405123358367,2,n,2.099706099999821,correct,n
359,2F4K,359,1,34.49850732184057,48.78401160782831,1.0245250219283069,51.595294512588765,1,n,1.765288800000235,incorrect,c
360,2F4K,360,1,48.73377719575404,34.42533109221297,1.377462760112295,38.78677502061092,2,c,2.6841021000000183,incorrect,n
361,2F4K,361,1,62.219667432840346,53.21286115208319,1.8233481085338128,55.47576458735899,2,n,1.7284869999994044,correct,n
362,2F4K,362,2,41.90362507278888,34.030663624187405,1.1950812882060875,38.4418110968539,1,b,0.842604599999504,incorrect,v
363,2F4K,363,1,70.49551105023443,52.77550106910895,2.1657479196898715,55.097452000209785,2,c,0.48480970000036905,incorrect,n
364,2F4K,364,2,48.71171115716547,37.645424663019725,1.3768308557968572,41.62940534692992,1,b,1.5760032999996838,incorrect,v
365,2F4K,365,1,47.52908022034894,34.22335163298345,1.3433846101913842,38.61012452048129,2,c,1.3827362000001813,incorrect,n
366,2F4K,366,1,53.25916945252769,35.33719805615113,1.5133808382242926,39.58696675235705,2,n,0.6315866999993887,correct,n
367,2F4K,367,1,70.98626150255258,49.81602094112301,2.187962247370039,52.50825818214481,2,n,0.6241999000003489,correct,n
368,2F4K,368,2,48.19454178743228,31.897368626763505,1.362103426665174,36.59343589215256,1,v,2.3065576999997575,correct,v
369,2F4K,369,1,29.169524192581243,37.51518541647718,0.9170585337365488,41.51361107577449,1,n,0.7392469999995228,incorrect,c
370,2F4K,370,1,38.146251693570846,49.32097272160895,1.1052613510041918,52.070868673339525,1,c,1.6073804999996355,correct,c
371,2F4K,371,1,30.59217390405975,42.76086089803458,0.944593306233072,46.20833332593362,1,n,2.961992999999893,incorrect,c
372,2F4K,372,1,49.29836602189703,62.03197406843238,1.393729882259382,62.765036643195664,1,c,0.5162826000005225,correct,c
373,2F4K,373,2,51.33287769836446,39.93050863973958,1.4539587414862187,43.66907490894032,1,b,1.6679948999999397,incorrect,v
374,2F4K,374,1,28.780495979217378,47.82420033811178,0.909669810184733,50.74252624972035,1,c,2.124580600000627,correct,c
375,2F4K,375,2,45.6949473407415,61.207597045227736,1.2931130611162491,62.11651219420017,2,v,0.9033256000002439,incorrect,b
376,2F4K,376,2,52.65243451750089,60.35580483569564,1.4944069146201897,61.43832886532951,2,b,0.4798771999994642,correct,b
377,2F4K,377,2,35.94777428472796,50.904051379031614,1.0558707386665307,53.4655924968805,2,b,1.0732750999995915,correct,b
378,2F4K,378,2,54.12837559563575,40.19683211309047,1.5409833435353864,43.90758809218864,1,b,2.2445135000007213,incorrect,v
379,2F4K,379,1,32.415647878457264,46.85194486509008,0.9810981901097384,49.87568603434194,1,c,2.8891777000008005,correct,c
380,2F4K,380,1,58.98259313460333,73.4449963796398,1.7046526462502982,70.79398637399889,1,n,0.958008399999926,incorrect,c
381,2F4K,381,1,65.58556439823246,50.674649930691466,1.9555398450259776,53.26422959147639,2,c,3.173399100000097,incorrect,n
382,2F4K,382,1,39.306047755615104,57.750879220276346,1.13224128330349,59.31691784583292,1,n,0.3220398000003115,incorrect,c
383,2F4K,383,2,63.99123066076088,71.6353247892619,1.8917702914725636,69.65355538594471,2,b,1.3947788000004948,correct,b
384,2F4K,384,1,51.649646816628746,57.69732454332884,1.463567621593508,59.27260193321954,1,n,1.593835300000137,incorrect,c
385,2F4K,385,2,55.93545639444496,43.2065240237506,1.5999908912077163,46.608583466645605,1,b,1.0688255999993999,incorrect,v
386,2F4K,386,2,41.88106022073684,28.126551951466816,1.1945206602295002,33.40777686335871,1,v,0.8668193000003157,correct,v
387,2F4K,387,1,51.76444666701183,44.79196025657134,1.4670656175810055,48.031701794077854,2,c,2.431415900000502,incorrect,n
388,2F4K,388,1,49.82364146935292,67.25393377524165,1.4090367539834932,66.67458778165556,1,n,0.5163430000002336,incorrect,c
389,2F4K,389,2,49.26462613167158,69.13826636069783,1.392752382518886,67.99211140949262,2,v,1.3755946000001131,incorrect,b
390,2F4K,390,1,47.95232402390872,56.127902990278685,1.355260064443468,57.96241762758748,1,n,1.1282074000000648,incorrect,c
391,2F4K,391,1,52.69804532561364,41.05811400084793,1.4958249573600206,44.67970787670493,2,c,1.3833266000001458,incorrect,n
392,2F4K,392,1,37.9316184466254,50.846096206657705,1.1003393704912792,53.41474629914124,1,n,0.522395900000447,incorrect,c
393,2F4K,393,1,41.35384700867657,53.9584881245416,1.1814965447985382,56.11777730265136,1,c,0.30383399999936955,correct,c
394,2F4K,394,2,48.19780831792637,37.08913501146607,1.3621959514892514,41.13523121104864,1,b,2.767507200000182,incorrect,v
395,2F4K,395,1,38.0508355754199,25.413960641076645,1.1030705513277728,31.195731470430808,2,c,1.698284799999783,incorrect,n
396,2F4K,396,1,53.51194805805412,31.18664109847343,1.5213566917446386,35.984403727086004,2,n,1.0088654000001043,correct,n
397,2F4K,397,1,53.097215853242574,63.64660718504222,1.5082927519959777,64.0117389270904,1,c,1.3646146000000954,correct,c
398,2F4K,398,1,44.8371719125038,51.46326577902444,1.2702523713193403,53.95530035175125,1,c,1.4313222000000678,correct,c
399,2F4K,399,2,40.43679987597309,33.21391203222916,1.1591795080320642,37.73076656498449,1,v,2.1655794000007518,correct,v
400,2F4K,400,2,67.75665515702006,50.73780116381858,2.045848983149434,53.31968891440625,1,v,2.268992700000126,correct,v
