,condition,trial,sub_task,x,y,xt,yt,cat,resp,rt,acc,correct_resp
0,4F4K,1,2,56.67411453591812,41.37681533708287,1.6247564058930477,45.127355401358166,1,v,2.6464428999997835,correct,v
1,4F4K,2,1,34.37988651637293,47.393483568704845,1.0220009911998384,50.56170710469479,1,n,1.5129484999997658,incorrect,c
2,4F4K,3,2,56.36337534254046,43.179635712240405,1.6142916612328848,46.75848765305923,1,v,1.2917271999995137,correct,v
3,4F4K,4,1,61.89895939398441,44.67028263341096,1.811228772805709,48.10682496765395,2,n,1.091750300000058,correct,n
4,4F4K,5,2,46.91888448156586,61.30569529770677,1.3264465426587309,62.48727917270031,2,v,1.6619301000000632,incorrect,b
5,4F4K,6,1,34.84342811883313,50.8057496483607,1.031899767976168,53.60524904421855,1,n,2.073903900000005,incorrect,c
6,4F4K,7,1,45.05425681079243,37.70442738026313,1.2759994474106997,41.81851860297648,2,c,1.030747899999369,incorrect,n
7,4F4K,8,2,47.07792249812543,61.551179124797216,1.330840499074313,62.68241989455914,2,v,1.3087464000000182,incorrect,b
8,4F4K,9,1,29.418827034344872,45.05722218345888,0.9218250074484778,48.45648070468904,1,n,1.114687899999808,incorrect,c
9,4F4K,10,1,52.66608119899962,64.07349183509048,1.4948310497665025,64.6454536478571,1,c,1.6315976000005321,correct,c
10,4F4K,11,2,57.71970316526141,71.77885089683616,1.6604693523648038,70.09682147354526,2,b,1.964216899999883,correct,b
11,4F4K,12,1,52.632490033291305,43.43103797184696,1.493787261931721,46.985980980308014,2,c,1.6255361000003177,incorrect,n
12,4F4K,13,1,45.38369894082511,30.21652235055756,1.284770763624438,35.24605094641945,2,n,1.9727744000001621,correct,n
13,4F4K,14,2,46.67377688579592,56.92182214071429,1.3197030182017058,58.89389532244219,2,v,1.4859362000006513,incorrect,b
14,4F4K,15,2,30.88562623349168,52.78109099965161,0.950374997320686,55.34135504604323,2,v,1.0148785000001226,incorrect,b
15,4F4K,16,1,45.21287177938212,58.61551133364554,1.280215031788521,60.30526931154687,1,n,1.7772302000003037,incorrect,c
16,4F4K,17,1,48.026238977809285,33.32931577321371,1.3573447255761004,37.93823789829722,2,n,1.4009655999998358,correct,n
17,4F4K,18,1,50.22379988992432,71.52542101086179,1.4208103504314695,69.93211181101333,1,c,3.2523705000003247,correct,c
18,4F4K,19,2,67.47211446171379,58.19138246325133,2.033779727654069,59.95440240326674,1,v,1.4629929000002448,correct,v
19,4F4K,20,1,66.83602918492724,48.145469294334674,2.0070560067315637,51.23629094870014,2,c,1.92289399999936,incorrect,n
20,4F4K,21,2,36.18315585536904,48.24915419093827,1.0610514955642252,51.32915690066797,2,v,1.1634410999995453,incorrect,b
21,4F4K,22,1,26.233513197128964,46.950449831516586,0.8627445713415013,50.16347386227168,1,n,2.2132931000005556,incorrect,c
22,4F4K,23,2,52.12468352325424,34.638786106779406,1.4780965454712809,39.08966904768885,1,b,3.6235115999998015,incorrect,v
23,4F4K,24,1,61.4123574548253,44.53958158684873,1.792994078551272,47.98867571108489,2,n,1.4555568999994648,correct,n
24,4F4K,25,1,45.82871050721055,58.08822606538056,1.2967148967962312,59.86879935213387,1,c,1.7361323000004631,correct,c
25,4F4K,26,1,43.59439142554896,61.8249294420298,1.2378459161294924,62.89920417741981,1,c,1.213035700000546,correct,c
26,4F4K,27,2,52.45041425062519,66.15420341564186,1.488142238378717,66.2030208152903,2,v,1.3667076000001543,incorrect,b
27,4F4K,28,1,41.90729851597949,49.45338571625271,1.1951725804911304,52.40478066578508,1,c,1.36503090000042,correct,c
28,4F4K,29,2,74.38697143794298,53.744104204568806,2.348287655020577,56.17898109135393,1,b,0.8670465999994121,incorrect,v
29,4F4K,30,2,54.45461860678776,42.58485946740112,1.5514729656686042,46.2202417474516,1,b,0.8853671000006216,incorrect,v
30,4F4K,31,1,52.12232297369721,41.05076469308697,1.4780239930382106,44.832579854280525,2,n,0.8075498999996853,correct,n
31,4F4K,32,2,62.64421293212394,53.48975825442837,1.8395162079911105,55.95836002190688,1,v,2.027475500000037,correct,v
32,4F4K,33,1,73.56047126172307,55.92137975309666,2.308273441416136,58.0479782700532,2,c,1.9167620000007446,incorrect,n
33,4F4K,34,1,39.66088469701744,54.98640640252894,1.1406265670360227,57.24986181043493,1,c,1.049415499999668,correct,c
34,4F4K,35,2,53.75227782655036,34.97582381807597,1.5289787275036553,39.3875643443565,1,b,1.0430080000005546,incorrect,v
35,4F4K,36,1,46.25119085082405,60.73932877853486,1.308157024986794,62.03443546249452,1,n,2.4583346999997957,incorrect,c
36,4F4K,37,1,67.31949135995242,56.6302349557822,2.0273353360140867,58.6482431763688,2,n,1.4547055000002729,correct,n
37,4F4K,38,1,45.85426526139999,26.504589329963736,1.297404149248631,32.13949468206876,2,c,1.5709313999996084,incorrect,n
38,4F4K,39,2,36.63707863416349,47.91705519293156,1.0711142397568183,51.03158091618578,2,v,1.2424230000005991,incorrect,b
39,4F4K,40,2,48.13364731138755,62.68324245474045,1.3603797342827657,63.57313606074695,2,b,1.5769716999993761,correct,b
40,4F4K,41,1,44.58304201317765,54.17912313641756,1.2635574498214812,56.55526337289883,1,n,5.0,correct,c
41,4F4K,42,1,49.18201048005988,63.67430516325656,1.3903617657308498,64.34006153599182,1,n,0.6361896999997043,incorrect,c
42,4F4K,43,2,50.01629728846925,35.28665057723205,1.4146929100843535,39.66280785453953,1,b,0.8305007999997542,incorrect,v
43,4F4K,44,1,59.53537780020193,72.42207637952288,1.7243603970612225,70.51005967597537,1,c,0.6970471999993606,correct,c
44,4F4K,45,2,53.27282752571154,35.28904891295867,1.5138107170519772,39.66493350006589,1,b,0.7151929000001473,incorrect,v
45,4F4K,46,1,38.15120899029482,51.624490146909096,1.1053752917345605,54.32755069355482,1,n,0.5938713000005009,incorrect,c
46,4F4K,47,1,63.15974787088853,50.48759674514291,1.859342358095088,53.32361997460272,2,n,0.7524561999998696,correct,n
47,4F4K,48,1,50.42046205190198,67.03413326102239,1.426632615291212,66.84367421956352,1,n,0.6692700999992667,incorrect,c
48,4F4K,49,2,65.37193762568668,51.54137771892904,1.9468721264845792,54.25439561552122,1,b,0.7018618000001879,incorrect,v
49,4F4K,50,1,77.33884557117591,59.457360413841904,2.496947290896576,60.99635937330567,2,c,1.3829741999998078,incorrect,n
50,4F4K,51,2,49.5853552535717,60.77071975239281,1.4020722140567845,62.05962909673936,2,b,1.358481700000084,correct,b
51,4F4K,52,2,43.52167134489822,28.83762137283394,1.2359754952868172,34.077392302821764,1,v,1.1217845000001034,correct,v
52,4F4K,53,2,53.00533924546077,68.86931509839863,1.505413878949034,68.14335070920865,2,b,0.7394161000001986,correct,b
53,4F4K,54,2,52.50261953906504,68.72816380264402,1.4897586107210934,68.04518638491332,2,b,0.7763148000003639,correct,b
54,4F4K,55,1,58.13940089781294,52.743139466134615,1.6750243019404696,55.30821966477947,2,n,0.6848356999998941,correct,n
55,4F4K,56,1,59.8993119385532,49.71766230912672,1.7374595108384363,52.64004034705504,2,n,0.5466174000002866,correct,n
56,4F4K,57,1,60.02722373080891,36.05312317836563,1.7420870457082729,40.343523172314,2,n,0.5331464999999298,correct,n
57,4F4K,58,2,45.21546852813873,29.72144691775518,1.2802841625428638,34.824609178892096,1,b,0.8487230999999156,incorrect,v
58,4F4K,59,2,46.01497073745778,39.510666593578335,1.3017470362905346,43.44228654248379,1,b,0.8803040000002511,incorrect,v
59,4F4K,60,1,60.36100647099236,42.476780786629526,1.754220612740811,46.1224381087338,2,n,1.006609600000047,correct,n
60,4F4K,61,2,59.50472393620839,44.66747719798296,1.7232615896669845,48.1042891578794,1,v,0.7836858000000575,correct,v
61,4F4K,62,1,45.86315454458001,58.6696564109735,1.297643993260204,60.34993381179973,1,n,0.7699140999993688,incorrect,c
62,4F4K,63,1,50.50502601356453,69.56122910517355,1.4291434960302585,68.62009553058141,1,c,1.146425600000839,correct,c
63,4F4K,64,2,63.23054472925868,50.19043550698094,1.8620816592714424,53.060119730658336,1,v,0.6194187000000966,correct,v
64,4F4K,65,2,48.8274653036172,39.30224451996866,1.3801489342464237,43.254483182007625,1,b,0.6316139000000476,incorrect,v
65,4F4K,66,2,40.25336270893415,46.63450553504842,1.1547662765516604,49.87915490858979,2,b,0.7880030000005718,correct,b
66,4F4K,67,2,66.37007662346205,56.26878197901702,1.987703125817033,58.342698497871325,1,v,0.7502754999995886,correct,v
67,4F4K,68,1,44.57523216575503,52.619084077513534,1.2633522632223706,55.19984333431466,1,n,0.7393899999997302,incorrect,c
68,4F4K,69,2,46.904757889264985,63.09669750767574,1.326056950602602,63.89457659097345,2,b,0.6964223999993919,correct,b
69,4F4K,70,1,41.78096846104872,30.3590790550937,1.192037030641761,35.367775419127035,2,n,1.1351371999999174,correct,n
70,4F4K,71,1,62.45888042659682,44.00217109464381,1.8324405743082928,47.50269347318764,2,n,0.8842130000002726,correct,n
71,4F4K,72,1,45.64059068337776,38.42114196421437,1.2916522618750352,42.46173033118495,2,c,0.8065526999998838,incorrect,n
72,4F4K,73,1,61.403240413174345,53.129539006087455,1.7926541885859009,55.6451487576731,2,n,0.8291507000003548,correct,n
73,4F4K,74,2,37.69600468234215,48.18175732928747,1.0949614972902568,51.26879677893396,2,b,0.6619414000006145,correct,b
74,4F4K,75,1,45.12854597184986,26.536095276333647,1.2779721342543235,32.16530826760607,2,n,0.47375370000008843,correct,n
75,4F4K,76,2,35.56621000883856,49.74962671035982,1.0475261798145878,52.66847426420679,2,b,0.6667187000002741,correct,b
76,4F4K,77,1,42.20415118749798,30.87515331492205,1.2025730523484277,35.80977993633948,2,n,0.8090666000007332,correct,n
77,4F4K,78,2,54.73396973850178,31.69547344796429,1.5605116115118371,36.51653783804294,1,b,0.5441749999999956,incorrect,v
78,4F4K,79,2,70.34618674828971,59.73406026065301,2.1590334607413824,61.221909977633295,1,b,2.28122970000004,incorrect,v
79,4F4K,80,2,37.035078921155815,26.24916735737149,1.0800157620501196,31.930599908924474,1,v,1.1037366999998994,correct,v
80,4F4K,81,1,37.9898748862033,55.88369758372316,1.101673138779509,58.01594947791986,1,n,1.3038985000002867,incorrect,c
81,4F4K,82,2,39.29009080530945,60.91705857520764,1.1318656504725015,62.17693139182484,2,b,0.8365779000005205,correct,b
82,4F4K,83,1,48.01175897625167,36.784799221766846,1.3569360863040476,40.99576272768919,2,n,0.8754701999996541,correct,n
83,4F4K,84,1,48.61874857398979,57.59272031304133,1.374171871400058,59.45619254131083,1,c,0.8430172999997012,correct,c
84,4F4K,85,1,66.07660808483759,52.12702760715331,1.975610090609836,54.76903344789483,2,c,0.7758573000000979,incorrect,n
85,4F4K,86,2,57.008450562283215,43.33822449832876,1.6360915932379905,46.90199649196455,1,b,0.6984228000001167,incorrect,v
86,4F4K,87,2,47.13217547480146,54.156029588106485,1.332342745901129,56.53532207401318,2,b,0.7758758999998463,correct,b
87,4F4K,88,2,38.67246090523204,51.04933518908907,1.117421765655975,53.82051957389822,2,b,0.8743624999997337,correct,b
88,4F4K,89,1,46.24688677207693,57.370525792785386,1.3080399491238994,59.27042238107751,1,n,0.8183348000002297,incorrect,c
89,4F4K,90,2,40.90525495481463,51.20734680856085,1.1705265422682862,53.95999566878335,2,b,0.6971051999998963,correct,b
90,4F4K,91,2,63.130100331826384,38.6612828240808,1.8581964207741684,42.67758779873354,1,b,0.6869962999999188,incorrect,v
91,4F4K,92,2,41.07077731869767,50.95416728192413,1.174562366876493,53.73645121083083,2,b,0.6671790000000328,correct,b
92,4F4K,93,2,59.133163969076,46.678516715359216,1.7099983334486724,49.91877588916214,1,b,0.788063200000579,incorrect,v
93,4F4K,94,2,46.89338432761527,29.61127388669376,1.3257433665110852,34.73109929984052,1,b,0.9687833999996656,incorrect,v
94,4F4K,95,1,47.9162160701045,32.401310645161495,1.3542428577679917,37.12853715973465,2,n,1.042765099999997,correct,n
95,4F4K,96,1,76.04582786559658,64.40322018598201,2.430705039037208,64.8961487484319,2,c,0.9572610000004715,incorrect,n
96,4F4K,97,1,31.73567218869251,44.70506935245365,0.9673233743679138,48.13826761419358,1,n,0.7299690999998347,incorrect,c
97,4F4K,98,1,54.27136187398131,34.46739480294696,1.5455719924468243,38.9384130213557,2,c,0.988427700000102,incorrect,n
98,4F4K,99,1,55.67692252152148,38.65960433285184,1.5914123230857125,42.67607848052686,2,n,0.7212666000004901,correct,n
99,4F4K,100,2,60.51694992514396,66.66742986254125,1.7599183500222118,66.5780312899689,2,b,0.6417486000000281,correct,b
100,4F4K,101,2,47.84507236414229,39.49413098608827,1.3522408832388635,43.42738321914442,1,v,0.9276009000004706,correct,v
101,4F4K,102,2,32.64302293069876,50.487512923993975,0.98574793480217,53.32354570916041,2,v,0.9506402000006346,incorrect,b
102,4F4K,103,1,36.40928582298648,30.05168838590326,1.0660525637609126,35.105509503975576,2,n,1.048939600000267,correct,n
103,4F4K,104,1,56.27669185553084,77.60848960185538,1.611384469089287,73.57841511917547,1,c,0.8305955999994694,correct,c
104,4F4K,105,1,47.64947928772268,57.68152464097217,1.346752159602334,59.53031053755959,1,c,0.7277430999993157,correct,c
105,4F4K,106,2,69.08669309542088,49.64329046414754,2.103221496928748,52.57386531679853,1,b,0.7151692999996158,incorrect,v
106,4F4K,107,2,36.89534196386306,41.472059646847626,1.0768820631185698,45.2134842163876,2,b,0.6861888999992516,correct,b
107,4F4K,108,1,68.78302219404003,53.27503403091304,2.089982215406814,55.77176197696943,2,n,0.9518554999995104,correct,n
108,4F4K,109,2,39.66954770446634,30.672513006210487,1.140832060495878,35.6359751405562,1,v,0.8248255999997127,correct,v
109,4F4K,110,2,49.17440490032446,53.7059045711025,1.3901418924211766,56.145875177263,2,v,0.7165577999994639,incorrect,b
110,4F4K,111,2,51.61874976903656,38.43328148066001,1.4626276018310873,42.47263835263615,1,b,1.012571499999467,incorrect,v
111,4F4K,112,1,42.88885293693868,58.541858311603015,1.219817727824389,60.24446584434119,1,n,0.812315099999978,incorrect,c
112,4F4K,113,2,58.591682654426144,35.083045420652894,1.6908521092552231,39.48245647263496,1,v,0.6726974000002883,correct,v
113,4F4K,114,2,43.13809479756235,53.43836450341635,1.2261562580612366,55.91372670011638,2,v,0.9652278999992632,incorrect,b
114,4F4K,115,1,53.14678339553319,44.06480117561547,1.509848193147288,47.55934315967176,2,c,0.9518939999998111,incorrect,n
115,4F4K,116,1,57.76803845963936,70.18694631770705,1.6621391360819422,69.04477451037094,1,n,0.6010980999999447,incorrect,c
116,4F4K,117,2,43.53809039594612,53.37626330389516,1.236397559734136,55.85977040929384,2,b,0.9640616999995473,correct,b
117,4F4K,118,1,30.84884292415559,49.43521485682871,0.9496483453848402,52.38859378107082,1,n,0.862222799999472,incorrect,c
118,4F4K,119,2,49.48550906930812,60.22107600789544,1.3991641913157162,61.61692135366487,2,b,0.7394115999995847,correct,b
119,4F4K,120,2,53.30465570458366,40.324796542022135,1.5148129618431911,44.17673158490223,1,v,0.9462381000003006,correct,v
120,4F4K,121,1,64.52254780172298,43.70613506762145,1.9127872703915143,47.23488814784809,2,n,1.47353159999966,correct,n
121,4F4K,122,1,44.299704895910345,54.66781428316709,1.2561346728280625,56.97632726655211,1,c,0.8110977999995157,correct,c
122,4F4K,123,2,59.57296245375651,45.144438318314485,1.7257085992559735,48.53526468047804,1,v,0.7698277999998027,correct,v
123,4F4K,124,2,40.21885678757137,50.08397546659545,1.1539379937650105,52.96561581366253,2,b,0.6194464000000153,correct,b
124,4F4K,125,1,64.2289415402514,47.129841292935936,1.9011445729409948,50.3247912455364,2,c,0.5877293000003192,incorrect,n
125,4F4K,126,1,63.497833828101534,45.91637308074394,1.872460149353245,49.232022657082034,2,c,0.6254902999999103,incorrect,n
126,4F4K,127,2,40.22610688197052,53.80571202070013,1.1541119762733176,56.23235228788696,2,v,0.7468863000003694,incorrect,b
127,4F4K,128,1,70.32223190776959,55.47121353716096,2.157958255902213,57.664584515706025,2,n,0.6012177000002339,correct,n
128,4F4K,129,1,48.83858340606147,58.636659399180175,1.3804680538955203,60.32271791375285,1,c,0.69080539999959,correct,c
129,4F4K,130,1,46.81631482018953,60.98891721778956,1.3236204114318555,62.234443653913445,1,c,0.7093557999996847,correct,c
130,4F4K,131,1,29.97893510749286,46.35906264904569,0.9326243826108112,49.63108168541759,1,c,1.123175099999571,correct,c
131,4F4K,132,1,35.91951220573387,43.92072073437917,1.05525039269487,47.429016239657386,1,c,0.46636430000035034,correct,c
132,4F4K,133,2,60.716225067342336,67.65777393479145,1.7672262482511685,67.29095804382834,2,v,0.9822315000001254,incorrect,b
133,4F4K,134,2,43.71202666382025,56.283249820436765,1.2408775868175212,58.35495015206656,2,v,0.7091655999993236,incorrect,b
134,4F4K,135,2,55.29418006013841,43.32800977198688,1.5787966923152634,46.89275327777403,1,b,0.7334248999995907,incorrect,v
135,4F4K,136,2,35.50329656835149,56.09555537917927,1.0461566515945628,58.19586832761153,2,v,1.0296551000001273,incorrect,b
136,4F4K,137,2,58.23675377467613,42.85557772935629,1.6784186493037792,46.46523013440734,1,b,1.0247210999996241,incorrect,v
137,4F4K,138,1,43.72224613896666,57.67092599511907,1.241141311266842,59.52146856567045,1,n,0.830620299999282,incorrect,c
138,4F4K,139,1,37.62895464240982,59.2566230864563,1.0934358930792174,60.832228630862375,1,c,0.6194875999999567,correct,c
139,4F4K,140,2,61.62293730294578,41.50928385899283,1.80086260826017,45.2471480960114,1,v,0.6666483999997581,correct,v
140,4F4K,141,1,65.21853378279332,45.6669714825755,1.9406716098200063,49.00702542867501,2,c,0.7273150000000896,incorrect,n
141,4F4K,142,1,63.15617906207726,48.67816368142222,1.859204379014496,51.71299221916768,2,n,0.7576746000004277,correct,n
142,4F4K,143,1,22.780965167471827,36.28073393061104,0.8029761012796939,40.546180826614105,1,c,0.8561055999998644,correct,c
143,4F4K,144,2,64.056710968696,47.85265080460805,1.8943479271631125,50.97382877125288,1,v,0.6787285000000338,correct,v
144,4F4K,145,2,59.39555783393016,44.96328503105366,1.7193541445454348,48.371613281677455,1,b,0.7276621999999406,incorrect,v
145,4F4K,146,1,46.6512018007618,61.19042351077807,1.3190836478851302,62.3954077430555,1,c,0.5513094000007186,correct,c
146,4F4K,147,1,45.91330568307133,63.2005636784864,1.2989979648372847,63.97499394899707,1,c,0.9033128999999462,correct,c
147,4F4K,148,1,73.01944123195855,57.61518927342361,2.282449969136444,59.47495259561002,2,n,0.6133602999998402,correct,n
148,4F4K,149,2,38.20002965430408,49.07974877065193,1.1064980354073457,52.07165982697036,2,v,0.6059731000004831,incorrect,b
149,4F4K,150,2,53.94904115347821,57.57828980995826,1.5352474795760946,59.44414156480904,2,b,1.09406780000063,correct,b
150,4F4K,151,2,53.13895084078951,35.93508076430999,1.5096022990682876,40.238511549378,1,v,0.8307343999995283,correct,v
151,4F4K,152,2,55.13586960050952,44.06783717426136,1.5736078809024223,47.56208918072882,1,v,0.7590733999995791,correct,v
152,4F4K,153,1,63.69873747804258,48.79883827212381,1.8802990401160504,51.82083642796252,2,c,0.5998981000002459,incorrect,n
153,4F4K,154,1,53.352380895030905,42.07958669344017,1.5163170348495043,45.76303656008423,2,c,0.6363013000000137,incorrect,n
154,4F4K,155,1,67.42286511727079,46.89549400658275,2.031697976951821,50.11403757936753,2,n,0.5284515000003012,correct,n
155,4F4K,156,1,34.56707268855147,54.49520349462816,1.025986807694612,56.82780601193885,1,c,0.8304699999998775,correct,c
156,4F4K,157,1,48.73086742001868,35.12699217216824,1.3773794163768875,39.52136655478096,2,c,0.8840991000006397,incorrect,n
157,4F4K,158,2,38.039943266287565,50.34716648554217,1.1028207350219748,53.19915043440298,2,v,0.8233597000007649,incorrect,b
158,4F4K,159,2,45.58065764026297,64.67438500613082,1.2900435137354431,65.10124640934221,2,b,0.4543165000004592,correct,b
159,4F4K,160,2,43.31236788210253,54.47656105437647,1.230607795311382,56.81175193998517,2,b,0.5452826999999161,correct,b
160,4F4K,161,2,35.61228282958845,53.24489272084535,1.0485302508977703,55.74554389627329,2,v,1.1216185000002952,incorrect,b
161,4F4K,162,1,33.190043084343024,38.89208677326745,0.9970247977498292,42.88520143764739,1,n,0.6557970000003479,incorrect,c
162,4F4K,163,2,36.39089215589513,55.51525926992891,1.0656448920241437,57.70217004420542,2,v,0.7152556000000914,incorrect,b
163,4F4K,164,1,44.05558105004506,67.97524302958568,1.2497741727877687,67.51644968306184,1,c,0.5951641999999993,correct,c
164,4F4K,165,2,46.93008325367817,32.52026397998698,1.326755470780129,37.23201249517885,1,b,0.5030370000004041,incorrect,v
165,4F4K,166,2,33.54347220053924,46.83918070488579,1.00437927602544,50.06337190221981,2,b,1.5651459000000614,correct,b
166,4F4K,167,1,38.643093310053175,21.47683955112397,1.116739584645423,28.16301114651013,2,c,0.6180643000006967,incorrect,n
167,4F4K,168,2,53.74914465207368,36.91121127297736,1.5288791139138065,41.10867186326063,1,v,1.2680405999999493,correct,v
168,4F4K,169,1,54.38370843576999,40.84515553614246,1.549186949440856,44.64675605635914,2,n,0.7298694000000978,correct,n
169,4F4K,170,1,49.35480107730652,61.32924885095301,1.395366431729265,62.506032572760645,1,n,0.8790600000002087,incorrect,c
170,4F4K,171,1,33.608955363906084,52.84981876389476,1.0057478548924137,55.401337580861735,1,n,0.9276007000007667,incorrect,c
171,4F4K,172,1,34.83554830950541,50.82633952342285,1.0317306988301873,53.62345745836724,1,c,0.7346933999997418,correct,c
172,4F4K,173,2,26.39140734422305,40.93739288682958,0.8655818901752281,44.7301110516114,2,b,0.7215857999999571,correct,b
173,4F4K,174,2,54.76953290462028,41.19612820413597,1.5616660604597357,44.96398579102886,1,v,1.0089236000003439,correct,v
174,4F4K,175,1,52.63721084663672,64.73622133146519,1.493933909077154,65.14788025877773,1,n,0.8304704000001948,incorrect,c
175,4F4K,176,2,46.75870751796543,39.537167984088654,1.3220357823862847,43.466173138929086,1,b,1.0139233999998396,incorrect,v
176,4F4K,177,2,44.38996289864697,62.4969918202862,1.2584944785919825,63.42764963281523,2,b,1.0922776000006706,correct,b
177,4F4K,178,1,29.32739631112846,39.5618540098811,0.920074054116809,43.48842485633418,1,c,1.6098905999997442,correct,c
178,4F4K,179,1,66.59475047555566,49.957617007417085,1.9970113249654144,52.8533792294564,2,n,0.7151864999996178,correct,n
179,4F4K,180,1,34.82019280731505,47.75262164419785,1.0314013108418063,50.8841047707886,1,c,0.5780619999995906,correct,c
180,4F4K,181,1,52.14692177046872,68.8117137387363,1.478780221717778,68.10332845196808,1,n,0.7880657000005158,incorrect,c
181,4F4K,182,2,55.49251742214287,32.721638740246924,1.5853215845977084,37.40739896231868,1,v,0.7448099000002912,correct,v
182,4F4K,183,1,48.436268505347066,41.77574929290392,1.3689673657200192,45.48816092846569,2,c,0.4913188000000446,incorrect,n
183,4F4K,184,2,43.29239699648933,63.23532930470496,1.230096851048167,64.00188075061311,2,v,0.4784730999999738,incorrect,b
184,4F4K,185,1,29.089622272072425,48.84985205357102,0.9155360935215768,51.86640944288736,1,c,0.5938831999992544,correct,c
185,4F4K,186,2,46.998450791186976,57.6352738326696,1.3286430113164536,59.49171783957963,2,b,0.5634556000004523,correct,b
186,4F4K,187,2,56.09862685041595,40.23061452012221,1.605428935611847,44.09170504267041,1,b,0.5756246999999348,incorrect,v
187,4F4K,188,1,50.29868650416415,67.04678068398115,1.423024593095089,66.85280150276147,1,c,0.6545384000000922,correct,c
188,4F4K,189,2,57.59064182792979,68.25481182859141,1.656019033787541,67.71377533537512,2,v,0.4569024999991598,incorrect,b
189,4F4K,190,2,53.20171537096506,67.98241840594075,1.5115738453999128,67.5215288608338,2,b,1.0004051000005347,correct,b
190,4F4K,191,2,37.17414276951331,56.03552529696945,1.0831434192008391,58.14492640404154,2,v,1.2931904999995822,incorrect,b
191,4F4K,192,2,26.340690205983616,35.753383788462315,0.8646694999438812,40.076995084038806,2,v,0.87903869999991,incorrect,b
192,4F4K,193,2,54.65857244912668,60.26258068338735,1.558066891965751,61.650466893241926,2,b,0.6544901999996,correct,b
193,4F4K,194,1,59.30862665783762,46.06467867612224,1.716248904797531,49.36575800137469,2,n,0.7529961999998704,correct,n
194,4F4K,195,1,65.0741231460982,47.83642773993908,1.9348526409304143,50.95927922869749,2,n,0.6185853999995743,correct,n
195,4F4K,196,1,65.43603606352113,47.64503415536205,1.9494688221550895,50.78756548378287,2,n,0.9154647999994268,correct,n
196,4F4K,197,1,77.84671512900223,56.64187183266718,2.5234569137944893,58.65806122270626,2,n,0.703076300000248,correct,n
197,4F4K,198,1,39.80562673294731,49.30699943260112,1.1440648262458764,52.27433756743104,1,n,0.6070841999999175,incorrect,c
198,4F4K,199,1,43.50840976289811,22.447328055253923,1.2356347012157571,28.906969648265232,2,n,1.0746267000004082,correct,n
199,4F4K,200,2,49.55033490854005,40.878066706455385,1.4010515580496752,44.67649665949886,1,b,0.612007600000652,incorrect,v
200,4F4K,201,2,37.95709870990179,44.68221134359733,1.1009225366840638,48.1176071253154,2,b,1.3820632999995723,correct,b
201,4F4K,202,1,52.60199390938075,35.35625560503438,1.4928402784260766,39.72451026112682,2,n,0.7105024000002231,correct,n
202,4F4K,203,1,66.51009571861071,52.908832899428376,1.9934989860754488,55.452818209688274,2,c,1.4240000999998301,incorrect,n
203,4F4K,204,1,58.04027815790416,71.5244943453728,1.6715752985655417,69.9315076001213,1,n,1.0368210999995426,incorrect,c
204,4F4K,205,2,41.2103792657072,56.36923428906008,1.1779770058359258,58.42772647976229,2,b,0.7030156000000716,correct,b
205,4F4K,206,2,66.32959740851744,54.95129074569111,1.9860306973601725,57.21975076760632,1,v,0.8851398999995581,correct,v
206,4F4K,207,2,47.282683034225386,65.10404290502707,1.336519133307507,65.42421522208174,2,v,0.8972762000003058,incorrect,b
207,4F4K,208,1,56.13649835176184,68.22412397452872,1.6066937341133491,67.69217255300644,1,c,0.8355119999996532,correct,c
208,4F4K,209,2,24.964060343366736,44.7366548325705,0.8402682110086673,48.16681549336312,2,b,0.886528900000485,correct,b
209,4F4K,210,2,65.36571606723955,48.94634935665983,1.946620268783052,51.952587201074834,1,v,0.7576918000004298,correct,v
210,4F4K,211,2,54.084900915793085,38.75736838311492,1.539590877022506,42.764001779505904,1,b,0.9215284000001702,incorrect,v
211,4F4K,212,2,53.92550883697342,63.02641035351787,1.5344964041806817,63.84008113135696,2,v,0.9824673000002804,incorrect,b
212,4F4K,213,2,64.38261036757805,81.88263827803097,1.907229308458342,75.73257764394938,2,b,0.8062192999996114,correct,b
213,4F4K,214,2,57.41023646698039,47.00357223534956,1.6498182423792536,50.21125319758458,1,v,0.8316846999996415,correct,v
214,4F4K,215,2,53.99123191232057,40.90233211903804,1.536594992594703,44.6984253112319,1,v,0.7870846000005258,correct,v
215,4F4K,216,2,49.779142013459314,36.83442346466563,1.4077335187326254,41.04007881655331,1,v,0.6862086000001,correct,v
216,4F4K,217,1,45.90533342328739,33.436542088658854,1.2987826367757402,38.032145751552726,2,c,0.5755782999995063,incorrect,n
217,4F4K,218,2,54.63060655620109,36.593791384955,1.557161085882591,40.82527793090545,1,v,0.9700424000002386,correct,v
218,4F4K,219,2,55.00288517185241,64.34436818046197,1.569262341588571,64.85150743220346,2,b,0.6848221000000194,correct,b
219,4F4K,220,2,39.69445774315507,25.756372491582383,1.1414231528207854,31.529504241844126,1,b,0.9349882000005891,incorrect,v
220,4F4K,221,2,64.45131018531089,47.77917886598736,1.9099558709755249,50.907929166769726,1,v,0.7698118000007526,correct,v
221,4F4K,222,2,57.0607111485539,44.3710813301178,1.6378705467851118,47.836329740158654,1,b,0.7276643999994121,incorrect,v
222,4F4K,223,2,70.76049215262036,56.9139242932255,2.1777144041872645,58.88725160844212,1,v,0.9715292000000773,correct,v
223,4F4K,224,2,65.61795153181473,53.58697836967115,1.9568572889787048,56.042742112542655,1,v,0.6666392999995878,correct,v
224,4F4K,225,1,38.6105350328988,24.335523110883443,1.115983773946546,30.38785989336183,2,c,0.7394721999999092,incorrect,n
225,4F4K,226,2,67.25766788607243,50.53718081602467,2.0247307027689483,53.36754529589015,1,v,0.7347701999997298,correct,v
226,4F4K,227,1,69.80387478005301,49.53602779604153,2.134822679896237,52.47838159560626,2,n,0.7809052000002339,correct,n
227,4F4K,228,2,35.38148517442229,51.51269218938018,1.043510093495786,54.22913774787841,2,b,0.9761445999993157,correct,b
228,4F4K,229,2,56.55857974306605,44.62312384975193,1.6208576488117088,48.06419730634341,1,v,0.6558767000005901,correct,v
229,4F4K,230,2,53.39739828685344,32.473853678651906,1.5177371394980836,37.19162975238049,1,v,0.830496900000071,correct,v
230,4F4K,231,2,50.04370526737931,34.615954643806546,1.4154994199224762,39.06951075496975,1,v,0.7822012999995422,correct,v
231,4F4K,232,2,41.82498984649435,53.09020650229135,1.193128719708473,55.61089653983073,2,v,0.7759238999997251,incorrect,b
232,4F4K,233,1,59.69907493027707,51.37461363673245,1.73024009745976,54.10749410290759,2,c,0.5769239999999627,incorrect,n
233,4F4K,234,2,41.21142631917232,59.01489424930034,1.1780026540491306,60.63403031299345,2,v,0.7515557999995508,incorrect,b
234,4F4K,235,1,52.138365302006136,71.16219181010283,1.478517130550776,69.69419323298048,1,n,0.6605520000002798,incorrect,c
235,4F4K,236,1,53.75141164261831,63.94921589235202,1.5289511881101958,64.55059832889889,1,c,0.6981981000008091,correct,c
236,4F4K,237,2,43.56306164487874,31.39073110288733,1.237039741367399,36.25340127546603,1,b,0.8304672000003848,incorrect,v
237,4F4K,238,2,58.13006823254646,36.51876758001385,1.6746992660062203,40.75835555289601,1,b,1.102589099999932,incorrect,v
238,4F4K,239,2,37.450016916912816,58.81556631077631,1.08937488156786,60.47014964159937,2,v,0.661687300000267,incorrect,b
239,4F4K,240,2,35.12459363082721,50.68759386966344,1.0379506193647114,53.50071729844253,2,v,0.9096337999999378,incorrect,b
240,4F4K,241,2,44.58003907932368,25.984066106461803,1.2634785503825383,31.714509268955737,1,b,1.2308192999998937,incorrect,v
241,4F4K,242,2,58.23410989548297,40.9657301318188,1.678326375870292,44.7557216193078,1,v,0.7692277999994985,correct,v
242,4F4K,243,2,50.17188230900928,66.23336909929624,1.4192772773212232,66.26110969097131,2,b,0.9518865000000005,correct,b
243,4F4K,244,1,46.05194417794274,61.67165121168576,1.302748257729654,62.77793030757968,1,n,0.716568499999994,incorrect,c
244,4F4K,245,1,42.92701564617939,54.109634125053006,1.2207861242732392,56.49524786051049,1,c,1.047731499999827,correct,c
245,4F4K,246,2,35.73434327188963,57.23441567133354,1.0511949850878548,59.15639981202228,2,b,0.8075855000006413,correct,b
246,4F4K,247,1,47.34128074786745,56.0865788723811,1.3381486814260766,58.1882527365168,1,c,0.8911685000002763,correct,c
247,4F4K,248,1,59.40291755495635,40.46995681284157,1.7196172965247851,44.307809316330456,2,n,0.7212281000001894,correct,n
248,4F4K,249,1,51.728634950870855,32.945562737928874,1.4659735244079624,37.60273548451138,2,n,0.8851793999992879,correct,n
249,4F4K,250,2,54.16185232357712,67.94710440935441,1.5420564401737458,67.49652399669206,2,v,0.7516242000001512,incorrect,b
250,4F4K,251,1,46.15663069727657,55.94392422388157,1.3055872928806422,58.06713478184959,1,n,0.7165519999998651,incorrect,c
251,4F4K,252,1,50.012652520931375,37.72090447454856,1.4145856934254706,41.8332874236372,2,c,0.9204626000000644,incorrect,n
252,4F4K,253,2,26.229357018433152,48.2941573975828,0.8626700115995944,51.36945256099068,2,b,0.7273129000004701,correct,b
253,4F4K,254,1,40.81368937889489,53.96163462112034,1.168299918611552,56.3673091821453,1,n,0.8777554000007513,incorrect,c
254,4F4K,255,1,56.278700100999885,40.44540085564646,1.6114517623779754,44.285633258783086,2,n,0.915460900000653,correct,n
255,4F4K,256,2,63.32696395543583,44.375634524572526,1.865818843684938,47.840446798993526,1,v,0.7168646000000081,correct,v
256,4F4K,257,1,64.390095947006,71.85211437572148,1.907526207538323,70.14423842717977,1,c,1.165623500000038,correct,c
257,4F4K,258,2,71.59079521772226,61.97261273424792,2.2156405636636376,63.01578976945047,1,b,0.9810527999998158,incorrect,v
258,4F4K,259,1,36.508489740911735,49.11649646478809,1.068253980104478,52.10444831211464,1,c,0.5587728000000425,correct,c
259,4F4K,260,2,31.953624028666887,43.8888068897873,0.9717174088426924,47.400146780183896,2,b,0.9650062999999136,correct,b
260,4F4K,261,1,79.03595925174746,63.95595756338258,2.586639101894208,64.55574912941549,2,c,1.0368238999999448,incorrect,n
261,4F4K,262,2,66.77419536073864,55.66204266441936,2.0044769960756272,57.8273110396065,1,v,0.9996804000002157,correct,v
262,4F4K,263,1,55.8173003554096,36.00379726193394,1.5960645618152631,40.29963482627523,2,c,0.7036071000002266,incorrect,n
263,4F4K,264,2,36.76692321580704,46.58168665809578,1.074010201223078,49.83159851431781,2,b,0.7347687999999835,correct,b
264,4F4K,265,2,57.72078008423604,45.78427009685448,1.6605065371666663,49.112861017913815,1,v,1.9036833999998635,correct,v
265,4F4K,266,2,58.67505391276264,45.322085055928326,1.6937860085917915,48.69570068092422,1,b,0.9690189000002647,incorrect,v
266,4F4K,267,2,63.21219259249318,44.77428881108244,1.8613711836021607,48.20082857951846,1,v,0.8062522000000172,correct,v
267,4F4K,268,1,71.80034980538436,59.36909737870443,2.225316428059106,60.924243549290445,2,c,0.8621930000008433,incorrect,n
268,4F4K,269,1,54.83678007742288,61.94589447468864,1.5638513682040918,62.99471667988953,1,n,0.7202695000005406,incorrect,c
269,4F4K,270,1,50.2831396386545,61.98263155268749,1.4225646207049083,63.02368958031558,1,c,0.8018971999999849,correct,c
270,4F4K,271,2,48.58809670398653,33.29274354404971,1.3732962702049685,37.90622440481973,1,b,0.7644172000000253,incorrect,v
271,4F4K,272,1,48.761224239313336,37.24524941207759,1.3782491648032706,41.407323368933774,2,n,0.7635976000001392,correct,n
272,4F4K,273,2,39.61536928567617,29.25521729188321,1.139547513072811,34.429599980918674,1,v,0.8015524999991612,correct,v
273,4F4K,274,2,56.63928925928423,71.17781900360286,1.6235802299120676,69.70447378528608,2,b,0.6728735000006054,correct,b
274,4F4K,275,1,52.28679387952397,33.93085677818159,1.4830876019551733,38.46595478677822,2,c,0.7115825999999288,incorrect,n
275,4F4K,276,1,31.56945825678899,48.71378174378657,0.9639857649933764,51.74482908417448,1,c,1.2117794000005233,correct,c
276,4F4K,277,1,28.13278913396973,43.30888745344358,0.8974998942248883,46.87544957748671,1,c,1.2371102999995855,correct,c
277,4F4K,278,1,58.9981017383241,45.73951034257235,1.7052024723378187,49.07247846529091,2,n,0.6537855999995372,correct,n
278,4F4K,279,2,60.18258398267084,43.94520088564862,1.7477241775727033,47.45116065548064,1,v,0.6968334000002869,correct,v
279,4F4K,280,1,52.66569185273848,41.74339985128896,1.494818947322651,45.458898558887526,2,n,0.8731519000002663,correct,n
280,4F4K,281,1,38.35873668299466,48.35113867812669,1.11015575454447,51.420463033401646,1,c,1.7700276000005033,correct,c
281,4F4K,282,2,51.47188153451233,37.43272077017974,1.4581674941135858,41.57511498657491,1,v,0.8368451000005734,correct,v
282,4F4K,283,1,47.6201295562015,33.254883447235464,1.345930473372847,37.87309227855658,2,c,0.818341700000019,incorrect,n
283,4F4K,284,2,57.94343733986193,38.02276623112783,1.6682125538144108,42.10401134697508,1,v,1.1096774999996342,correct,v
284,4F4K,285,1,49.52978271043854,62.72603156402433,1.4004529172512,63.60650017112141,1,n,0.830468799999835,incorrect,c
285,4F4K,286,2,59.40085395358454,76.99959549751934,1.719543506949549,73.243326146006,2,b,1.0550579000000653,correct,b
286,4F4K,287,2,52.58103791652998,59.95412645660711,1.492189888689383,61.4007175490619,2,v,0.8547785000000658,incorrect,b
287,4F4K,288,1,43.31840472956616,54.43004484315519,1.2307622865444046,56.77168287937357,1,c,0.6444769999998243,correct,c
288,4F4K,289,2,60.70812984596247,46.63069165803206,1.7669287865577494,49.87572124741936,1,v,0.6601782999996431,correct,v
289,4F4K,290,1,49.37647865841886,46.10443240116419,1.3959955665088732,49.40159838597946,2,c,0.522360099999787,incorrect,n
290,4F4K,291,1,45.596905606207685,31.371586563731327,1.2904794504475108,36.23689313571472,2,c,0.9471542999999656,incorrect,n
291,4F4K,292,1,54.734239861308566,70.61047624523441,1.5605203770017384,69.3286909376017,1,c,1.2856489999994665,correct,c
292,4F4K,293,1,36.14803471690452,44.86071750084348,1.0602768675754874,48.278934895034,1,n,0.751629899999898,incorrect,c
293,4F4K,294,1,53.368830864628094,66.00321051426064,1.5168358063513194,66.09198379057392,1,c,0.9532451000004585,correct,c
294,4F4K,295,2,39.42627847312881,27.04421527343981,1.1350755724222013,32.58301880034918,1,v,1.2188938999997845,correct,v
295,4F4K,296,2,65.69466939361864,48.54747393624028,1.9599815608727524,51.59613547482572,1,v,0.9943448000003627,correct,v
296,4F4K,297,1,27.59133902731499,42.41984092869944,0.887451492982836,46.0709126407272,1,n,2.3890344999999797,incorrect,c
297,4F4K,298,2,41.54495637461507,56.7739979237965,1.1862011628847131,58.76945259870647,2,v,1.5366825999999492,incorrect,b
298,4F4K,299,2,27.920528036398608,43.00783331896828,0.8935471981216603,46.60301576125054,2,b,1.170359599999756,correct,b
299,4F4K,300,1,56.473173855251886,66.72657194108257,1.617981616153731,66.6210050532137,1,c,1.1039633999998841,correct,c
300,4F4K,301,2,45.75695012200316,33.58013836581834,1.294781362022583,38.15801554201328,1,v,1.09890919999998,correct,v
301,4F4K,302,2,44.12236052044835,52.31310371399133,1.251510864797121,54.93212312307186,2,b,1.06851800000004,correct,b
302,4F4K,303,2,42.21607767402541,58.82365852104124,1.2028713326407616,60.47681059823514,2,b,0.8729552000004333,correct,b
303,4F4K,304,1,47.642781586723984,59.183974626526265,1.3465646040569414,60.772725692903606,1,c,0.8743653000001359,correct,c
304,4F4K,305,1,52.9218791564616,32.740989162444016,1.502803493321935,37.42426616228721,2,n,1.631595899999411,correct,n
305,4F4K,306,1,69.8141025302107,59.11720368550314,2.135276762451896,60.71798892423445,2,c,1.1898121000003812,incorrect,n
306,4F4K,307,1,46.55397557852607,25.47984519056476,1.3164194681681445,31.3055690120652,2,n,0.9204384000004211,correct,n
307,4F4K,308,2,64.60512109443881,55.12027031128072,1.9160744686680944,57.364559605542254,1,v,1.0249807999998666,correct,v
308,4F4K,309,2,40.986387018630346,56.81052185077566,1.1725029971493015,58.80021757186872,2,b,1.3463573999997607,correct,b
309,4F4K,310,2,63.055708837120434,75.92405088330501,1.8553241475343765,72.6347453018744,2,v,0.8560787999995227,incorrect,b
310,4F4K,311,2,48.86522154134069,40.61738607615101,1.381232940729496,44.44096956238294,1,b,1.048960199999783,incorrect,v
311,4F4K,312,1,44.23383635884483,56.3769672595649,1.254415325789028,58.43426846859481,1,c,1.2518695999997362,correct,c
312,4F4K,313,1,57.98574070608286,42.718150729701925,1.669680682284379,46.34086378412859,2,c,1.0490508999992016,incorrect,n
313,4F4K,314,2,41.04042326710684,48.59223001443317,1.173821223194761,51.636161494737465,2,v,1.0548980999992636,incorrect,b
314,4F4K,315,2,32.036598518133616,51.99889493389321,0.9733954631392752,54.65660848333832,2,b,1.2628004000007422,correct,b
315,4F4K,316,2,46.57412349501397,60.19258662771112,1.316971116277713,61.59388439305132,2,v,0.8849399000000631,incorrect,b
316,4F4K,317,1,48.61678902116221,34.21962048018847,1.374115878121397,38.72003055931165,2,c,0.7287361999997302,incorrect,n
317,4F4K,318,1,37.19592248901705,55.19611629249864,1.0836340822037276,57.4294839126778,1,c,0.9338533999998617,correct,c
318,4F4K,319,1,44.80080884751397,60.879027445044585,1.269292234715243,62.14646952088618,1,c,0.7333465000001524,correct,c
319,4F4K,320,1,57.034160422841765,44.90607745912116,1.6369665168693357,48.31992317234226,2,c,0.7639568000004147,incorrect,n
320,4F4K,321,2,56.937419335828615,49.24878697548298,1.633676783359216,52.22244003878736,1,v,1.054840100000547,correct,v
321,4F4K,322,2,20.950685705915387,38.16004708598783,0.7729894189936017,42.22722740817594,2,b,1.1343143000003693,correct,b
322,4F4K,323,2,58.82646728650439,43.060242714582905,1.6991273873148671,46.65044389656284,1,b,1.5284967000006873,incorrect,v
323,4F4K,324,1,47.63327231714481,60.28742696251991,1.346298361097762,61.67053955330682,1,c,1.0004024999998364,correct,c
324,4F4K,325,2,55.03584027036384,36.70443725666246,1.570338097393904,40.92401751148242,1,v,0.994365900000048,correct,v
325,4F4K,326,1,49.47277641033871,28.6183997872515,1.3987937861692343,33.893116483549974,2,n,0.7820559000001595,correct,n
326,4F4K,327,2,50.4449064535915,60.12085053118476,1.4273579670329146,61.535838467646,2,v,1.0307536000000255,incorrect,b
327,4F4K,328,1,54.62702196510032,61.428544903157466,1.5570450202362929,62.585022148166914,1,n,0.8961124999996173,incorrect,c
328,4F4K,329,1,42.97733944337175,61.09298135106027,1.2220642893817917,62.31762813469466,1,c,1.8379585000002407,correct,c
329,4F4K,330,2,43.41391121890887,32.72404040832265,1.2332090112278025,37.40949229360936,1,b,1.0018084000003,incorrect,v
330,4F4K,331,2,39.196709903445296,33.14588244546727,1.1296699248415347,37.77775306633293,1,v,0.7141553999999815,correct,v
331,4F4K,332,1,41.44074245001037,60.595331980110345,1.183633368027042,61.91872641510589,1,c,0.8001871999995274,correct,c
332,4F4K,333,1,54.01608984344208,38.32134888851655,1.5373894733087996,42.37207704720894,2,n,0.9835480000001553,correct,n
333,4F4K,334,1,54.75477612978376,59.15835353338552,1.5611869234626896,60.75172771385184,1,n,0.9507279999997991,incorrect,c
334,4F4K,335,2,60.96608388357956,48.53469211666777,1.7764320636250504,51.58470314020059,1,v,0.8622377000001507,correct,v
335,4F4K,336,1,47.13018633090442,34.4966121083405,1.3322876372352623,38.96418664158055,2,n,1.0550894999996672,correct,n
336,4F4K,337,1,62.42571141124287,77.45793142429878,1.831177120321456,73.49620000892686,1,c,0.8561415000003763,correct,c
337,4F4K,338,1,44.646438084699646,59.40725844209654,1.26522427613683,60.95543321516671,1,n,0.8547786999997697,incorrect,c
338,4F4K,339,1,51.78143638855861,62.42871708892856,1.4675840107073104,63.37421235471303,1,c,0.7685289999999441,correct,c
339,4F4K,340,1,40.6935871821004,46.85167638854461,1.1653857826466787,50.074615117516856,1,c,0.9460748999999851,correct,c
340,4F4K,341,1,50.29949703318241,60.81117190253508,1.4230485776326478,62.092078760328896,1,n,1.3038692000000083,incorrect,c
341,4F4K,342,2,50.85135340194227,69.84819780810464,1.4394728736214084,68.81563153248457,2,v,1.0723822999998447,incorrect,b
342,4F4K,343,1,42.13697862961631,52.1097135215888,1.2008944540026765,54.75384760334926,1,n,1.334194099999877,incorrect,c
343,4F4K,344,2,70.90380536222105,54.08250391331103,2.184213922118577,56.47180684897374,1,b,0.8353108999999677,incorrect,v
344,4F4K,345,1,36.30475806189335,51.748420347778136,1.0637379151027226,54.43656044803448,1,n,0.9543868000000657,incorrect,c
345,4F4K,346,1,42.913909732698365,48.86676151798248,1.2204534689948436,51.88151322855575,1,c,1.0720080000000962,correct,c
346,4F4K,347,2,61.10764054352238,44.19138758841098,1.781668851407448,47.673832516131576,1,b,1.2991675999992367,incorrect,v
347,4F4K,348,2,59.93643081467918,51.489653580538594,1.7388011132986811,54.20884870625033,1,v,0.962956800000029,correct,v
348,4F4K,349,2,45.47454926236729,62.71240217578868,1.2872002201078014,63.59587531286297,2,v,0.9632283999999345,incorrect,b
349,4F4K,350,1,52.01341167923331,34.97954852822409,1.4746804306665162,39.390859767434,2,c,0.8136727999999493,incorrect,n
350,4F4K,351,2,52.7707457017223,64.75089419786028,1.4980879985812536,65.15893831926041,2,b,0.9033289999997578,correct,b
351,4F4K,352,1,64.11756360182092,51.57616485496057,1.8967465427082748,54.28501979637627,2,n,0.759021699999721,correct,n
352,4F4K,353,2,51.684475306239655,65.30595651206045,1.4646279769281452,65.57513172408733,2,b,0.8269579999996495,correct,b
353,4F4K,354,1,63.17443317652733,54.74513479692992,1.8599102365357247,57.04278395642976,2,n,0.5503547999996954,correct,n
354,4F4K,355,1,44.02059510805961,60.73586440731806,1.2488652774718898,62.03165436781505,1,n,0.9396340000002965,incorrect,c
355,4F4K,356,2,58.40148337767573,45.17609792291515,1.6841778565179613,48.56386060605246,1,v,0.7929278999999951,correct,v
356,4F4K,357,2,61.39804348460831,74.55442124601316,1.7924604721290625,71.829445756113,2,v,0.7226566999997885,incorrect,b
357,4F4K,358,1,48.5879841913964,59.65119320874878,1.3732930571987143,61.15444579484495,1,c,0.45519079999940004,correct,c
358,4F4K,359,1,60.20217231736864,45.94609627830878,1.7484362195198324,49.2588292960824,2,n,0.8001438000001144,correct,n
359,4F4K,360,2,60.93096352130487,39.52388076454625,1.7751351957522854,43.45419672899934,1,v,0.8258081000003585,correct,v
360,4F4K,361,1,51.26705525792727,35.93394257677305,1.4519700125409785,40.23749931057815,2,n,3.0103924000004554,correct,n
361,4F4K,362,1,65.38749139071626,55.06473524375303,1.9475019080020683,57.31699282421207,2,c,1.322052800000165,incorrect,n
362,4F4K,363,1,36.571481891260994,50.47789612734507,1.0696541867622356,53.31502500748353,1,n,0.8066865000000689,incorrect,c
363,4F4K,364,1,57.13507846283101,74.7118751191084,1.64040534989735,71.92372799833902,1,n,1.299190599999747,incorrect,c
364,4F4K,365,2,48.99111319921081,65.41985144942248,1.3848535293097526,65.66001558842,2,v,1.0792524999997113,incorrect,b
365,4F4K,366,2,65.30414178815747,49.00616129213512,1.9441294089653864,52.00598428499693,1,b,1.0503372000002855,incorrect,v
366,4F4K,367,1,27.201770262160053,45.88673709507639,0.8802914178730115,49.20529291433804,1,c,0.4724507999999332,correct,c
367,4F4K,368,1,56.59835500192978,43.51249578170808,1.622198820017831,47.05968737796648,2,n,0.7117307000007713,correct,n
368,4F4K,369,2,59.05023219977473,42.41732307457947,1.7070519523937635,46.06863422894521,1,b,0.9039651000002777,incorrect,v
369,4F4K,370,1,35.53237877894056,42.36257149121873,1.046789503624176,46.01908986858709,1,c,0.48456679999981134,correct,c
370,4F4K,371,1,35.493694077583626,49.15951881107727,1.045947777790684,52.142828426423584,1,c,0.7334187000005841,correct,c
371,4F4K,372,2,30.67797825388006,50.60783778863619,0.9462802025386452,53.430117404751535,2,b,0.9654295000000275,correct,b
372,4F4K,373,2,59.67522889349811,39.61446956923814,1.729382345682788,43.53585631911419,1,v,0.7893983999992997,correct,v
373,4F4K,374,2,37.52518214700233,52.42844967547319,1.0910789244253123,55.0331142059416,2,b,0.9094127999996999,correct,b
374,4F4K,375,1,45.38741633110665,60.62839536926509,1.2848700814736278,61.945314984231935,1,c,0.8486602999992101,correct,c
375,4F4K,376,2,67.49133225005026,47.67251365685082,2.0345926345644827,50.81222657284709,1,v,0.6922305999996752,correct,v
376,4F4K,377,1,32.04760141249476,47.61894845175648,0.9736182002904866,50.76415305743874,1,n,0.6787706000004619,incorrect,c
377,4F4K,378,2,61.297161886323565,46.89569782219986,1.7887042366446104,50.114220939337365,1,v,0.6558643999997003,correct,v
378,4F4K,379,1,52.84386197781616,38.35941680727985,1.5003674392863608,42.40627351336944,2,n,0.823417800000243,correct,n
379,4F4K,380,2,63.90435255808987,44.98549501314414,1.8883557435692944,48.39167998393986,1,b,0.8363663999998607,incorrect,v
380,4F4K,381,1,33.43543639274577,45.22801827409428,1.0021254289614714,48.6107533603855,1,c,0.7590637000002971,correct,c
381,4F4K,382,1,50.46395671255108,58.98087548285088,1.427923511198277,60.606089724442526,1,n,0.693483400000332,incorrect,c
382,4F4K,383,2,62.69881234204881,41.40553149235917,1.8416059123466249,45.15332233637322,1,v,0.8719756000000416,correct,v
383,4F4K,384,2,41.83876768212549,58.16990844287054,1.1934706024905766,59.93659093663042,2,b,0.7576792999998361,correct,b
384,4F4K,385,2,60.15146610773128,43.680353085592905,1.7465936294910562,47.21156224875837,1,v,0.7568383999996513,correct,v
385,4F4K,386,2,34.4785287230229,48.06422237219314,1.0240994782901582,51.163495768809895,2,b,0.7590768000000025,correct,b
386,4F4K,387,1,53.56660950163401,40.62132806156372,1.5230869291882878,44.4445304668768,2,c,0.740833400000156,incorrect,n
387,4F4K,388,1,35.765987101136304,55.10657032194847,1.0518869147081993,57.35282756471964,1,c,0.9536828999998761,correct,c
388,4F4K,389,1,50.337623136726975,43.8692154554962,1.4241772321709607,47.38242390678807,2,n,0.6302522999994835,correct,n
389,4F4K,390,2,57.09450066715349,48.516505349230606,1.6390217735480093,51.56843546297111,1,v,0.6474582999999257,correct,v
390,4F4K,391,1,42.321760543737454,56.29581874212514,1.205517685679928,58.36559230947983,1,n,0.6862055000001419,incorrect,c
391,4F4K,392,1,31.96444493662422,53.743261570634346,0.971936083907704,56.17825092828458,1,n,1.0004192000005787,incorrect,c
392,4F4K,393,1,41.644511615126696,33.51308048882946,1.1886593718676832,38.09922024114869,2,n,0.830471000000216,correct,n
393,4F4K,394,2,61.01585191945944,51.59805662427892,1.778271439834496,54.30428829229096,1,v,0.595146399999976,correct,v
394,4F4K,395,1,44.22106830162963,55.91735831310347,1.2540823173533997,58.04456072213267,1,c,1.2553406999995786,correct,c
395,4F4K,396,1,41.59143927653501,32.23716229051868,1.187348281169866,36.9859041823662,2,n,0.6975371999997151,correct,n
396,4F4K,397,2,50.75765163396404,36.78854289186851,1.4366708296302817,40.99910561041246,1,v,0.6061921999998958,correct,v
397,4F4K,398,2,57.04617142530741,44.09345093653816,1.6373754195939567,47.58525620125873,1,v,0.8972705999995014,correct,v
398,4F4K,399,2,54.15995208683436,34.28931431925835,1.541995508077962,38.7814227928085,1,b,0.7697979000004125,incorrect,v
399,4F4K,400,1,42.26626181952812,56.38801818864153,1.2041272441718,58.44361651151305,1,c,0.6122990000003483,correct,c
