,condition,trial,sub_task,x,y,xt,yt,cat,resp,rt,acc,correct_resp
0,4F4K,1,2,47.02868555165039,38.13910979118905,1.329478610652395,41.843045158022925,1,v,5.0,NA,v
1,4F4K,2,2,62.34809873073023,47.94268697276793,1.8282241482259105,50.391269064490935,1,b,1.4858956999996735,incorrect,v
2,4F4K,3,1,37.35988001391297,46.0529971781688,1.0873349304536248,48.74916099248139,1,n,1.2431077000001096,incorrect,c
3,4F4K,4,1,48.46486452055157,37.4397140550492,1.369781647018723,41.237107287292176,2,c,0.8790535999996791,incorrect,n
4,4F4K,5,1,50.17644932182013,70.11932740876418,1.4194120701593362,67.73157672721209,1,n,1.6679789000008896,incorrect,c
5,4F4K,6,2,52.20379443152154,39.52383948675053,1.4805301116371945,43.04682158068155,1,b,0.9227016999993793,incorrect,v
6,4F4K,7,2,51.25084554136572,42.89245483924496,1.4514806771899362,45.98873870385064,1,b,2.2277094000000943,incorrect,v
7,4F4K,8,2,56.776591059327984,73.02822205570175,1.6282223548830133,69.56170323298551,2,b,2.256660799999736,correct,b
8,4F4K,9,2,48.022299754121306,58.0446041342291,1.3572335447923956,58.87366501149448,2,b,0.9542461000000912,correct,b
9,4F4K,10,2,59.10659906393352,71.63881074941543,1.7090539883612956,68.70443073474449,2,v,0.7576312000001053,incorrect,b
10,4F4K,11,2,51.42464140057811,32.61361206604624,1.4567357943422257,37.11274532201224,1,v,0.9882611000011821,correct,v
11,4F4K,12,1,38.80307261385192,50.10096637998235,1.120460801743189,52.25254421850612,1,c,1.0973312000005535,correct,c
12,4F4K,13,1,52.047041866283664,70.95908465993337,1.47571206498262,68.27371700546956,1,n,0.9886007999994035,incorrect,c
13,4F4K,14,2,57.15056406897335,44.49139159822977,1.640933668652682,47.38653170506902,1,v,1.0129732000004879,correct,v
14,4F4K,15,2,46.64383043024606,65.24609288567751,1.3188814698325853,64.37965666282706,2,b,0.7030196000014257,correct,b
15,4F4K,16,1,53.79374139921983,73.4780307015687,1.530297597896712,69.83244504469161,1,n,0.7650783999997657,incorrect,c
16,4F4K,17,2,37.62553092546614,41.94159939171114,1.0933580495649082,45.15730680564205,2,v,1.5466016999998828,incorrect,b
17,4F4K,18,1,66.7213230997961,53.59520262234983,2.0022743893835675,55.218360571066654,2,n,0.8915002000012464,correct,n
18,4F4K,19,2,47.99715786870615,67.69447849582333,1.3565241538786892,66.10614796268283,2,v,0.8248308000001998,incorrect,b
19,4F4K,20,1,36.59881744438245,53.751226705983406,1.0702623797595083,55.34908033775249,1,c,0.6787383000009868,correct,c
20,4F4K,21,2,40.05792553503289,34.85944266030825,1.1500828275645183,39.01770929822759,1,v,0.721194400000968,correct,v
21,4F4K,22,2,58.73941072615632,69.99024571671126,1.6960542559891938,67.64727469413467,2,b,0.4910256000002846,correct,b
22,4F4K,23,1,59.57959926918998,39.96874129729127,1.7259467784864737,43.43452107976123,2,n,0.76974269999846,correct,n
23,4F4K,24,2,54.23482965247212,41.65533881229519,1.5443983195159687,44.9070770623735,1,b,0.5101947000002838,incorrect,v
24,4F4K,25,2,32.775213980537735,48.92743981475937,0.988461321440998,51.24273669859239,2,v,0.9814017999997304,incorrect,b
25,4F4K,26,1,45.62507571982115,61.75023213609614,1.29123561029874,61.779949426259776,1,c,1.4251846999995905,correct,c
26,4F4K,27,1,37.75615109507508,59.36515805141103,1.0963318327956906,59.92546343904575,1,c,0.7517144000012195,correct,c
27,4F4K,28,2,51.35921156296447,35.693867355300895,1.4547551434303636,39.73229537614485,1,b,1.0792754000012792,incorrect,v
28,4F4K,29,2,44.43654030818268,59.33355123986936,1.2597139839035052,59.90048831620338,2,v,1.1278003999996145,incorrect,b
29,4F4K,30,1,46.48493989602018,57.91437220241247,1.3145310292373136,58.76903910371396,1,c,0.8790054000000964,correct,c
30,4F4K,31,1,55.2897071933282,40.02117132050604,1.5786498542366745,43.480234875771785,2,n,0.7870538999995915,correct,n
31,4F4K,32,2,49.16670772030633,62.53345932219476,1.389919406397177,62.37523456411302,2,b,0.7782079000007798,correct,b
32,4F4K,33,1,31.499171186846677,50.20192163465307,0.96257785323269,52.33913700963861,1,c,0.5818161999995937,correct,c
33,4F4K,34,1,56.8220876543843,66.29795481385221,1.6297635044130512,65.13144623863856,1,n,0.5405358999996679,incorrect,c
34,4F4K,35,2,54.445778400762826,47.62176560446515,1.5511877893897066,50.11308401104115,1,b,0.8243132000006881,incorrect,v
35,4F4K,36,2,53.11331203981162,39.96313311900228,1.508797678352201,43.429631598042086,1,v,1.1207215999984328,correct,v
36,4F4K,37,1,41.94769509991907,52.3928265763204,1.1961769751618896,54.20570739403608,1,c,0.910770099999354,correct,c
37,4F4K,38,1,46.4468363175545,64.14582423074238,1.313489884092253,63.57772861551712,1,n,0.5080097999998543,incorrect,c
38,4F4K,39,1,52.17612492224477,49.07461513502251,1.4796785021654797,51.36968851692307,2,n,1.079245400000218,correct,n
39,4F4K,40,1,27.962470694471985,49.22818294226682,0.8943268658650003,51.5020641277375,1,c,0.7759055999995326,correct,c
40,4F4K,41,1,57.03149173344962,42.72012044741584,1.6368756778387017,45.838034426125,2,n,2.3965614999997342,correct,n
41,4F4K,42,2,52.3927842994416,66.46567671780143,1.4863599449253615,65.24993957177064,2,v,1.2311197999988508,incorrect,b
42,4F4K,43,2,51.44045057719576,31.991657790137047,1.4572147641589297,36.59058554308198,1,b,0.7590409000004001,incorrect,v
43,4F4K,44,1,33.358603166761505,53.03944971670389,1.0005256094981074,54.75143611611977,1,c,0.842608900000414,correct,c
44,4F4K,45,2,58.03883591946568,70.06396883294977,1.6715251679295502,67.69545389653364,2,v,1.3279452000006131,incorrect,b
45,4F4K,46,2,40.46073495863202,24.71447218961364,1.1597565938807135,30.712646849320738,1,v,0.9967925999990257,correct,v
46,4F4K,47,1,55.17422509043792,41.63893216462262,1.574863459707752,44.89273721945439,2,n,0.9032687999988411,correct,n
47,4F4K,48,1,32.09805316085979,49.60609946596453,0.9746401733625808,51.82742175107232,1,c,0.6238260000009177,correct,c
48,4F4K,49,2,35.483027523020056,51.598219814936,1.0457158073149215,53.53169550964148,2,v,1.4994485000006534,incorrect,b
49,4F4K,50,1,40.84473765391508,57.86784141178467,1.1690544524883162,58.73161918802664,1,n,0.9520897000002151,incorrect,c
50,4F4K,51,1,51.548293305719255,45.94569601370135,1.4604862737312254,48.65566196390422,2,n,0.6862653000007413,correct,n
51,4F4K,52,1,45.19419614488108,33.69214215928336,1.2797179582118547,38.02398687670908,2,n,1.6861475000005157,correct,n
52,4F4K,53,2,66.50434029498,51.805618380944594,1.993260417057731,53.70796311958067,1,b,0.7468585999995412,incorrect,v
53,4F4K,54,1,71.35282021205458,59.722069070454765,2.204703436840824,60.20678837399353,2,n,2.057763299999351,correct,n
54,4F4K,55,1,41.121134767455736,27.10520009305816,1.1757929584119875,32.59039569704592,2,c,0.7279183999999077,incorrect,n
55,4F4K,56,1,43.50616990360336,30.6070715400152,1.2355771509364697,35.43775270682082,2,c,1.2515634999999747,incorrect,n
56,4F4K,57,1,32.485454960940416,47.944567086393015,0.9825233839160782,50.392897856156914,1,c,0.9396345000004658,correct,c
57,4F4K,58,1,36.35547921746305,46.98333647986652,1.0648604492043126,49.55877380096905,1,n,0.44941839999955846,incorrect,c
58,4F4K,59,1,32.49011977338744,49.76414566419046,0.982618695319019,51.96331000092341,1,c,0.6449366999986523,correct,c
59,4F4K,60,2,38.86563100705184,61.0859668203403,1.1219193186873742,61.26962125042666,2,b,0.890154499998971,correct,b
60,4F4K,61,1,58.83720475046487,40.79277500752769,1.699506809621923,44.15351827882964,2,n,0.7225912000012613,correct,n
61,4F4K,62,2,55.789253375991365,34.94300888444583,1.5951339755726004,39.08912262065418,1,b,1.463010100000247,incorrect,v
62,4F4K,63,1,63.61660017586728,49.32345402640772,1.8770902357474817,51.58414057901998,2,n,0.6908667000006972,correct,n
63,4F4K,64,2,41.36858563292499,49.11115001680408,1.181858706625082,51.40119006444056,2,v,0.9214848999999958,incorrect,b
64,4F4K,65,2,51.75802781746571,38.54310303227707,1.466869812270037,42.19373055565328,1,v,1.2319392999997945,correct,v
65,4F4K,66,2,73.64718469571676,53.66820791594939,2.312439371383085,55.27954608394958,1,b,0.8319178000001557,incorrect,v
66,4F4K,67,1,45.62734095551638,52.0937626447483,1.291296434418927,53.9524558849597,1,c,1.941421999999875,correct,c
67,4F4K,68,2,53.82543269308415,73.73536304161794,1.5313063993312943,69.98581682874898,2,v,1.9228412000011303,incorrect,b
68,4F4K,69,1,42.10456480849388,31.971373694123177,1.2000852920919154,36.57359929673557,2,c,1.0428781000009621,incorrect,n
69,4F4K,70,2,56.18400881941904,44.25159002644354,1.6082818554107658,47.17700199654711,1,b,0.5951600000007602,incorrect,v
70,4F4K,71,1,52.11146268311935,44.26858009226896,1.4776902435510189,47.19184905559917,2,n,0.7505793999989692,correct,n
71,4F4K,72,2,80.92029579007067,62.46846468441223,2.6900050360484986,62.32610670470999,1,b,1.9181859000000259,incorrect,v
72,4F4K,73,2,30.035899093117784,43.71551850645385,0.933729761313669,46.708432307687616,2,b,1.2237535000003845,correct,b
73,4F4K,74,2,65.5299356659377,45.102336659169374,1.953279048986959,47.92006412520011,1,v,0.6787339999991673,correct,v
74,4F4K,75,2,42.169961504929816,54.43977868329278,1.2017183815226482,55.92396190571508,2,b,1.6133732999987842,correct,b
75,4F4K,76,2,61.12845419627355,44.05234172456478,1.7824401383768371,47.0028673079387,1,v,0.8670897000010882,correct,v
76,4F4K,77,1,61.479009277605016,48.360714518917,1.7954808656160537,50.75313105390686,2,n,1.0182815000007395,correct,n
77,4F4K,78,2,57.68972405248243,71.38036736789661,1.6594345414670968,68.54153049995861,2,v,0.9579112999999779,incorrect,b
78,4F4K,79,1,53.89391331182873,65.75295881471492,1.5334885550889827,64.74377473563037,1,c,0.6558242999999493,correct,c
79,4F4K,80,2,62.97565278989665,55.915395777891625,1.8522381241197297,57.14425840795087,1,v,0.8484236000003875,correct,v
80,4F4K,81,1,73.61916459177644,53.74472449282461,2.3110923940250725,55.34363594277792,2,c,4.624676999999792,incorrect,n
81,4F4K,82,1,37.30906115975952,54.05024978328467,1.0861864979534075,55.599144635260295,1,c,1.7713913999996294,correct,c
82,4F4K,83,2,50.53434426418314,40.03386497833842,1.4300150474159938,43.49130323390195,1,b,0.9235647999994399,incorrect,v
83,4F4K,84,1,66.76394133857583,51.35625662429969,2.004049634232826,53.325754733585256,2,n,1.1581525999990845,correct,n
84,4F4K,85,1,72.72237034695256,56.39097946850493,2.26839378770273,57.533907558590286,2,n,0.7272751000000426,correct,n
85,4F4K,86,2,57.57980443588729,36.97206107904477,1.6556458799697067,40.8328626776909,1,v,1.4858757000001788,correct,v
86,4F4K,87,1,48.915045841213725,34.87715807767608,1.382664732448453,39.03284548077849,2,c,0.7098189000007551,incorrect,n
87,4F4K,88,2,48.485310561160034,33.39572602356081,1.370364151947141,37.77285134114552,1,v,1.1302520000008371,correct,v
88,4F4K,89,2,39.39834636082891,54.18823181191213,1.134416475698642,55.71432642860413,2,b,1.133884399998351,correct,b
89,4F4K,90,1,59.17860607003352,67.33630589405908,1.7116149462474677,65.85877150315142,1,n,0.5405656000002637,incorrect,c
90,4F4K,91,1,67.01441844675466,48.38779350440728,2.0145150078547984,50.77655136025545,2,n,0.9457352999997966,correct,n
91,4F4K,92,2,52.82770299198209,35.82641387117119,1.4998633755160724,39.8461031364582,1,v,1.1338797999997041,correct,v
92,4F4K,93,1,58.646687815335206,50.81631462629854,1.6927872126533123,52.86508726013733,2,n,0.6679749000013544,correct,n
93,4F4K,94,2,28.61499647893182,44.23691444246752,0.9065445937902412,47.16417728208014,2,b,0.6666224999989936,correct,b
94,4F4K,95,1,52.81706613409786,59.863765445098245,1.499531661560104,60.31811657868565,1,c,1.7907482999999047,correct,c
95,4F4K,96,2,46.43297027707742,30.38958832480128,1.313111211997691,35.25795208389015,1,b,0.9760950999989291,incorrect,v
96,4F4K,97,1,43.36489402106879,37.85753737682552,1.2319526614428795,41.59891137484549,2,n,0.8111095999993267,correct,n
97,4F4K,98,2,49.84036335095479,63.3099757855317,1.4095267919065226,62.9583045694596,2,v,0.9412400000001071,incorrect,b
98,4F4K,99,1,60.87483248843487,49.54615622859621,1.773064445360535,51.775854679545546,2,c,1.8985795000007784,incorrect,n
99,4F4K,100,2,40.2187178841406,57.23786723655518,1.1539346607172731,58.22306253816642,2,v,0.5661209999998391,incorrect,b
100,4F4K,101,1,44.82420900567832,53.77479069972576,1.26991001322723,55.36880840311878,1,n,0.6244064999991679,incorrect,c
101,4F4K,102,1,58.307745776725056,67.98752129371856,1.6808982230898375,66.30717758988509,1,n,0.9022807000001194,incorrect,c
102,4F4K,103,2,37.06392391637135,48.26516122064785,1.0806637658243978,50.67046788031215,2,b,0.8742758999997022,correct,b
103,4F4K,104,2,57.530588461505545,74.1692218154964,1.6539523298928327,70.24187778186922,2,v,0.4994692000000214,incorrect,b
104,4F4K,105,2,77.02695030846122,63.54851236755544,2.4808052931377245,63.13595649923543,1,v,1.230207699998573,correct,v
105,4F4K,106,1,50.221794747736325,39.97314146473582,1.4207511098996708,43.438357399226135,2,c,0.9275735000010172,incorrect,n
106,4F4K,107,2,54.06835320390154,64.00361917064663,1.5390611949460309,63.47295683255795,2,v,0.812261999999464,incorrect,b
107,4F4K,108,2,35.01531500425557,42.53540018779675,1.0355946736053332,45.67650180407178,2,b,0.5583139999998821,correct,b
108,4F4K,109,2,52.24530551620256,47.05439882713035,1.4818086551021603,49.62052847808058,1,v,1.5710902999999234,correct,v
109,4F4K,110,1,41.70860033454562,57.2188591141484,1.1902445393327767,58.20766278696942,1,c,0.9411457999995037,correct,c
110,4F4K,111,1,39.36003801350833,51.48116214629461,1.1335131597262869,53.43210429435299,1,c,0.7029989999991813,correct,c
111,4F4K,112,2,49.44644431229744,61.71600007163306,1.3980280714814564,61.75377119201401,2,b,0.9157709000010072,correct,b
112,4F4K,113,2,37.51723431492865,54.78433173803388,1.0908986161423766,56.21036789497423,2,b,0.9405206999999791,correct,b
113,4F4K,114,2,61.18017845121846,42.77443913105167,1.7843583189666028,45.88553531339266,1,v,0.8426183000010496,correct,v
114,4F4K,115,1,43.61713215477435,35.60245572699163,1.238431407339914,39.6538529902607,2,c,0.9214981000004627,incorrect,n
115,4F4K,116,2,39.12325353013879,54.97991121873175,1.1279456911830446,56.37255258301509,2,v,0.6861905000005208,incorrect,b
116,4F4K,117,2,43.98066857062734,55.84245630846189,1.2478288386279346,57.08433587590264,2,b,0.9639585000004445,correct,b
117,4F4K,118,1,63.64424666517005,53.54388990700151,1.878169671252348,55.17533423139869,2,c,0.8903002000006381,incorrect,n
118,4F4K,119,1,60.93954576919133,44.16263279877887,1.7754520196687829,47.09926112297839,2,n,0.6436761000004481,correct,n
119,4F4K,120,2,44.98842248366317,35.6014133131817,1.27425381673331,39.65295868984104,1,b,1.7043919999996433,incorrect,v
120,4F4K,121,2,44.98781451692837,65.26426439371602,1.274237707319748,64.39276926618801,2,v,1.1822327000008954,incorrect,b
121,4F4K,122,2,34.73790817427388,46.52993160224129,1.0296380294176644,49.16445552804216,2,b,2.1959662999997818,correct,b
122,4F4K,123,2,66.82250969732819,49.10307505912153,2.0064918427001848,51.39422802750225,1,v,0.5634370999996463,correct,v
123,4F4K,124,2,79.95397993819846,67.09718078010846,2.636491596203728,65.69260554717798,1,v,0.6551241999986814,correct,v
124,4F4K,125,1,26.047412123533817,37.8981489331818,0.8594123198542417,41.63410802761384,1,c,0.8622379000007641,correct,c
125,4F4K,126,1,47.98438994866346,57.938538529033245,1.3561640425785737,58.78846572286207,1,n,0.49668080000083137,incorrect,c
126,4F4K,127,2,30.98882888811456,42.64042941703789,0.9524167290424648,45.76834628713477,2,b,3.604144600001746,correct,b
127,4F4K,128,2,41.75191761025347,52.01986550593519,1.1913171439458528,53.88979863820052,2,v,0.8000752000007196,incorrect,b
128,4F4K,129,2,44.96811658030093,57.81629717688373,1.2737158774168478,58.69014426397712,2,b,1.497893899999326,correct,b
129,4F4K,130,1,41.414210252534005,55.994984905081786,1.1829805121207768,57.2095949879143,1,n,0.8607781999999133,incorrect,c
130,4F4K,131,1,47.94395265752838,37.053332024516976,1.3550241644620995,40.90305788187109,2,n,0.9871560999999929,correct,n
131,4F4K,132,2,64.49438590422211,51.58585961837544,1.9116674505849895,53.521183126966605,1,v,1.758998799999972,correct,v
132,4F4K,133,2,67.47575095110355,47.20283041634119,2.03393352518915,49.74947527732837,1,v,0.8243975000004866,correct,v
133,4F4K,134,2,38.4555591515801,28.950814548461885,1.1123931566982157,34.0779379306608,1,b,0.46070119999967574,incorrect,v
134,4F4K,135,2,52.35909131250324,70.45773698100206,1.485318927276178,67.95136984169409,2,b,1.0491943999986688,correct,b
135,4F4K,136,2,36.72958311972524,51.30459575458311,1.0731765930636572,53.2817442801414,2,b,0.7954398999991099,correct,b
136,4F4K,137,2,47.42890600567656,58.68389554340523,1.34058916631286,59.384952158104944,2,v,0.8185929999999644,incorrect,b
137,4F4K,138,2,53.99169875364445,37.06293001585785,1.5366099094586727,40.91134944161655,1,v,0.7226558999991539,correct,v
138,4F4K,139,2,52.08244066027713,56.51278662182311,1.4767987324397065,57.6334043824552,2,b,0.7884681000014098,correct,b
139,4F4K,140,1,46.49048215636495,55.63437035474236,1.3146825351236573,56.91315191638133,1,n,2.195960400000331,incorrect,c
140,4F4K,141,1,37.26163553295007,53.32741321761722,1.0851158416831734,54.993624203242426,1,n,0.7030479000004561,incorrect,c
141,4F4K,142,2,45.267266223442384,33.30448859584942,1.2816639031189894,37.6956550553336,1,b,1.0927906000015355,incorrect,v
142,4F4K,143,2,53.55814256410079,34.61612636525132,1.522818790468778,38.80997863816648,1,b,0.8183468999995966,incorrect,v
143,4F4K,144,2,59.13000607635763,44.06268577537237,1.709886047473388,47.01190835722422,1,v,0.6610228999998071,correct,v
144,4F4K,145,2,55.705651096221565,42.16639270311573,1.592363307154166,45.35383998355451,1,v,1.5213070999998308,correct,v
145,4F4K,146,1,29.879776495249008,46.053244492212094,0.9307033432980232,48.74937646801779,1,c,0.9822748999995383,correct,c
146,4F4K,147,1,50.684902630940414,41.29792656531651,1.4344991158727691,44.59474041605437,2,c,1.3948784999993222,incorrect,n
147,4F4K,148,1,60.53351954256048,76.78059808272039,1.7605248440625203,71.7147209901423,1,n,0.654818000000887,incorrect,c
148,4F4K,149,2,69.62349400490439,62.46058419470511,2.126830145261946,62.320146668018175,1,b,0.6544659999999567,incorrect,v
149,4F4K,150,1,37.3844890042421,50.63043243756454,1.0878914942806774,52.706155117740856,1,c,0.7771979999997711,correct,c
150,4F4K,151,2,57.874922144570455,41.03796457941783,1.6658374879348548,44.36764136571195,1,b,0.7938909999993484,incorrect,v
151,4F4K,152,1,58.69853619007201,42.841773405387535,1.6946132866517742,45.94441834556401,2,n,0.9237001999990753,correct,n
152,4F4K,153,2,49.49792611773736,69.77893438462948,1.3995255095192416,67.50871851530069,2,b,1.8500149999999849,correct,b
153,4F4K,154,2,61.75011747691025,51.86360977731233,1.8056315400806864,53.75720708533766,1,b,2.098885399998835,incorrect,v
154,4F4K,155,2,45.06203796685637,57.76289627074628,1.2762059266843877,58.64714972252377,2,v,0.667102800000066,incorrect,b
155,4F4K,156,2,46.97666296865848,65.15410877472553,1.328041185970409,64.31321422293583,2,b,0.8427449999999226,correct,b
156,4F4K,157,1,47.15967263047088,34.47499180564412,1.333104780372911,38.68962477783342,2,n,1.5419354000005114,correct,n
157,4F4K,158,1,50.23319484120661,61.47004799003854,1.4210879506371208,61.565296037526416,1,c,0.6605173999996623,correct,c
158,4F4K,159,2,68.2450916693755,46.410715622629006,2.066734046032727,49.060693992008126,1,v,0.8175328000015725,correct,v
159,4F4K,160,1,59.28833150031282,44.22555469596472,1.715524756061704,47.15425008602869,2,n,0.910750699998971,correct,n
160,4F4K,161,1,38.26034028884063,52.56442819042404,1.1078865921089076,54.35078278779313,1,n,2.5560101000010036,incorrect,c
161,4F4K,162,2,29.545822716595893,49.954821682104665,0.9242625809816384,52.12710898825063,2,v,0.7394513000017469,incorrect,b
162,4F4K,163,2,36.63592839292654,52.6310036377452,1.0710886205164607,54.40701915273801,2,v,0.5708759000008286,incorrect,b
163,4F4K,164,2,60.06719997591674,45.21752217428568,1.743535814524697,48.02059956836646,1,v,0.8230800000001182,correct,v
164,4F4K,165,1,58.65599857847488,50.14000494576696,1.6931149880917788,52.28603446593714,2,n,0.505377800000133,correct,n
165,4F4K,166,1,64.43681018072618,74.19428206435586,1.9093800695761365,70.2565710132877,1,c,1.1510508000010304,correct,c
166,4F4K,167,1,48.902120405518986,61.62481715248402,1.38229315407465,61.68397637356531,1,n,0.757642600001418,incorrect,c
167,4F4K,168,1,56.198155644775234,40.01883816897793,1.608755041262837,43.4782004930096,2,n,1.055138599998827,correct,n
168,4F4K,169,2,48.334161912720894,58.75398759612757,1.366063793590351,59.44077261064479,2,v,0.9456582000002527,incorrect,b
169,4F4K,170,2,50.15719954071775,61.47776678280632,1.418844010320108,61.57122133821427,2,b,0.7408035999997082,correct,b
170,4F4K,171,1,59.87045918400258,53.78124066650754,1.7364173892012733,55.37420773823999,2,c,1.3038083999999799,incorrect,n
171,4F4K,172,2,65.04578747003261,51.30007747242027,1.933712915477357,53.27789443460535,1,b,1.3151746000003186,incorrect,v
172,4F4K,173,2,68.20008155358612,49.63484212267837,2.064800572574455,51.85214265941024,1,v,0.6316083999990951,correct,v
173,4F4K,174,2,65.6323359640098,48.813974403385664,1.957442703575884,51.14480612755914,1,v,0.5209680999996635,correct,v
174,4F4K,175,2,66.80820805221306,47.23942712072776,2.005895212085196,49.78125869184205,1,v,0.8247580999995989,correct,v
175,4F4K,176,1,50.23716516204202,36.96145394559332,1.4212052812133602,40.82370289906018,2,n,0.6012721000006422,correct,n
176,4F4K,177,1,38.70609437112703,49.015731798324246,1.1182035506760393,51.31890644612151,1,n,0.8122440000006463,incorrect,c
177,4F4K,178,2,45.36667152764177,58.96623026733202,1.2843159388095329,59.60950902880008,2,b,0.8547410999999556,correct,b
178,4F4K,179,1,19.26533058374333,34.65723639010432,0.746368454958355,38.84505501352293,1,c,0.8177102000008745,correct,c
179,4F4K,180,1,61.28242398196948,44.9937384135076,1.788156143413582,47.82526088646412,2,n,0.7392722000004142,correct,n
180,4F4K,181,1,39.9614380347732,53.15234655036399,1.1477776134073423,54.84645005126225,1,n,1.2431826000010915,incorrect,c
181,4F4K,182,1,39.01157284626571,63.52856645720213,1.1253292632377874,63.12112830097709,1,c,1.024672499999724,correct,c
182,4F4K,183,2,29.51835041563557,45.01987705637774,0.923734727879389,47.84808067770904,2,b,0.48453840000001946,correct,b
183,4F4K,184,1,53.712054108478256,47.72343688626879,1.527700380506979,50.201250422771146,2,n,1.1581759999990027,correct,n
184,4F4K,185,1,46.510057072853,31.69014347487495,1.3152177841917485,36.33838139597456,2,c,1.055047600000762,incorrect,n
185,4F4K,186,2,49.78694849692987,58.79873502830837,1.4079620564376958,59.47638403972184,2,v,0.9350330000015674,incorrect,b
186,4F4K,187,2,44.72089399931193,53.72678090011032,1.267184698645194,55.328610035409866,2,b,0.6606412000001001,correct,b
187,4F4K,188,2,39.09434014794888,57.049697350546055,1.127267732461776,58.07047373833626,2,v,2.3550054999996064,incorrect,b
188,4F4K,189,2,55.2538644217994,37.67396949840091,1.577473678334094,41.439884762301645,1,b,0.653464899998653,incorrect,v
189,4F4K,190,1,41.82041145210286,27.98773515817572,1.193015133254138,33.29784581544962,2,n,0.46165560000008554,correct,n
190,4F4K,191,2,45.71918032757992,35.294032168001166,1.2937648389521927,39.389471181213736,1,b,1.006484100000307,incorrect,v
191,4F4K,192,2,40.36019669727343,56.97940403209412,1.1573344996213772,58.0133928293638,2,v,0.7286567999999534,incorrect,b
192,4F4K,193,1,50.878184355776014,66.32025807089019,1.4402762285684283,65.1472253812362,1,c,0.9275346999984322,correct,c
193,4F4K,194,2,42.62314332793447,62.49246588516712,1.213096483684473,62.34425439735422,2,b,1.4373629000001529,correct,b
194,4F4K,195,2,38.60171286792128,52.97227803671997,1.1157790635330864,54.69486604351453,2,b,0.7994032999995397,correct,b
195,4F4K,196,1,65.21715095526062,48.64785868632279,1.940615806435205,51.0013469875714,2,c,0.6558377000001201,incorrect,n
196,4F4K,197,2,54.992688431998175,40.65521145611302,1.5689296379381,44.03341831201025,1,v,0.8485650000002352,correct,v
197,4F4K,198,2,54.90291410483703,41.51395200282148,1.5660034849179862,44.7835082656042,1,v,1.4023213000000396,correct,v
198,4F4K,199,1,48.56146996490837,34.68957581701052,1.372536103729382,38.87265413670867,2,n,1.0550720999999612,correct,n
199,4F4K,200,2,25.73487220248203,40.56268242647575,0.8538450368965177,43.95265047705235,2,b,0.8017340000005788,correct,b
200,4F4K,201,2,34.839113080731615,47.81932455634245,1.0318071811107117,50.28437242370233,2,b,2.100066799999695,correct,b
201,4F4K,202,2,55.71605940244844,74.5272842375898,1.592707987037808,70.45080235922303,2,v,0.6180444000001444,incorrect,b
202,4F4K,203,1,55.96835553991163,66.01362908615889,1.601085849070289,64.92969792605717,1,n,0.7272694999992382,incorrect,c
203,4F4K,204,1,30.459445191249337,48.58523278501235,0.9419898081029676,50.94723640398682,1,n,0.5830173999984254,incorrect,c
204,4F4K,205,2,42.91513687802481,35.16642861536069,1.220484612642745,39.28021983994392,1,v,0.7082359999985783,correct,v
205,4F4K,206,2,43.001064669040254,52.441819349230485,1.222667346233034,54.2471448573887,2,v,0.649786399999357,incorrect,b
206,4F4K,207,2,48.07288640139396,30.220726073697406,1.358661996750989,35.1185991235741,1,b,0.9032926999989286,incorrect,v
207,4F4K,208,1,40.65216236697236,56.36003606727379,1.1643823459675882,57.50861205027751,1,c,0.41915769999832264,correct,c
208,4F4K,209,1,56.59904633208483,49.68530577871771,1.6222221406016912,51.89553679141967,2,n,1.6316403999990143,correct,n
209,4F4K,210,2,51.21841739671579,37.6340679529732,1.450502238411896,41.40533209053889,1,b,0.7112624000001233,incorrect,v
210,4F4K,211,1,41.12500122243568,49.92287695438455,1.1758874967552742,52.0996782566152,1,c,0.9153967000002012,correct,c
211,4F4K,212,1,61.31945870347528,44.82554855442499,1.789533760362244,47.67840470399723,2,n,0.5890709000013885,correct,n
212,4F4K,213,1,56.35375721123411,42.05828778674498,1.613968829667907,45.25932239685858,2,n,0.8182928000005631,correct,n
213,4F4K,214,2,30.56563196974548,39.67164638931419,0.9440721063540688,43.17558105851091,2,v,0.7765247000006639,incorrect,b
214,4F4K,215,1,50.12367599216557,39.271772653208,1.4178552751438098,42.827344965132056,2,n,0.601321199999802,correct,n
215,4F4K,216,1,64.60428874124892,45.78005458535373,1.9160413049671972,48.51128317188967,2,n,0.6787635000000591,correct,n
216,4F4K,217,1,53.48557763546582,39.17692623866262,1.5205226730501598,42.74479810975492,2,c,1.2553685000002588,incorrect,n
217,4F4K,218,1,35.71873195251683,60.40138911801522,1.0508537928719843,60.73862197408285,1,c,0.8379294000005757,correct,c
218,4F4K,219,2,51.73903102492049,41.60165763893925,1.466290473236404,44.86015907532763,1,b,1.0488831000002392,incorrect,v
219,4F4K,220,2,49.36867498652415,36.55147047950507,1.3957690527852762,40.46998902250981,1,b,0.9457571000002645,incorrect,v
220,4F4K,221,1,54.87420483490327,40.11883603493522,1.56506887161183,43.56540190573728,2,n,0.9397778999991715,correct,n
221,4F4K,222,1,42.376826775912654,56.46864033057727,1.2068988785760408,57.59735832342241,1,c,0.6133786000009422,correct,c
222,4F4K,223,1,79.03913193194954,63.86921395742924,2.5868097585295824,63.37369910314557,2,n,0.4433012999998027,correct,n
223,4F4K,224,1,44.73544564719514,54.60550245095089,1.2675681978979254,56.061825919662056,1,c,0.460280999999668,correct,c
224,4F4K,225,1,72.52969381623372,55.58087472672256,2.259323433388476,56.86908779793741,2,n,0.5816458999997849,correct,n
225,4F4K,226,1,60.63230678547004,49.32376496742269,1.764145071735418,51.58440839595704,2,n,0.8318882999992638,correct,n
226,4F4K,227,2,73.22805050148693,58.44337269773636,2.292372532707573,59.19304351838215,1,v,0.7697646000015084,correct,v
227,4F4K,228,1,33.89631014912467,52.37825088805568,1.0117755662375632,54.19337670270582,1,c,0.669031499999619,correct,c
228,4F4K,229,1,34.41935116865093,53.322792071412046,1.0228400347943458,54.98974187349137,1,c,1.771137899999303,correct,c
229,4F4K,230,1,49.07585261211735,34.6989588866131,1.387295940052304,38.88066284073349,2,n,0.8721853000006377,correct,n
230,4F4K,231,1,51.92763682341133,66.47457952871221,1.4720524789896297,65.25621851721775,1,n,0.7044080999985454,incorrect,c
231,4F4K,232,1,20.409606516418695,36.187085007069456,0.7643409313245869,40.15617277343335,1,c,0.7155870999995386,correct,c
232,4F4K,233,1,48.98074207633258,34.045812395815005,1.3845549020092924,38.32428711375679,2,n,0.4677033999996638,correct,n
233,4F4K,234,1,59.869303405051696,40.48457071813728,1.7363756570854445,43.88447704375917,2,n,0.6301601999984996,correct,n
234,4F4K,235,1,40.96428010801661,57.30763626325628,1.171964121060065,58.279559737887176,1,n,0.9108166999994864,incorrect,c
235,4F4K,236,2,61.33523960806684,55.75762600059276,1.7901211006149358,57.01459097273963,1,v,1.0246871999988798,correct,v
236,4F4K,237,2,40.59487286564875,49.72909960582687,1.1629960412291034,51.93318663280449,2,b,0.461653499998647,correct,b
237,4F4K,238,1,72.53917232536902,56.12271437455287,2.2597687900533,57.31434371677588,2,n,0.5890760000002047,correct,n
238,4F4K,239,2,39.07211697042591,57.17503767255842,1.1267469221155464,58.17214798185128,2,v,1.4677100999997492,incorrect,b
239,4F4K,240,2,47.35121763238676,35.690120891116614,1.338425213938394,39.729079709041685,1,v,1.274868600001355,correct,v
240,4F4K,241,1,53.9956876151076,40.40231282804147,1.5367373704553484,43.81269484480032,2,n,3.551365600000281,correct,n
241,4F4K,242,2,44.848580774691904,53.76904939614528,1.2705537625288852,55.36400205997688,2,b,1.7652015999992727,correct,b
242,4F4K,243,1,47.75452434428152,57.15612115355103,1.3496971536929552,58.15681199393935,1,n,0.7029099999999744,incorrect,c
243,4F4K,244,1,33.004742971028804,46.79056655906693,0.9931904463085618,49.39118715341612,1,c,0.5476973999993788,correct,c
244,4F4K,245,1,59.6247899468335,45.58959116363687,1.727569436658582,48.34520626203566,2,n,0.4115870999994513,correct,n
245,4F4K,246,2,57.17102582722686,48.15934938782527,1.6416320185737634,50.5788937988169,1,b,0.4859500000002299,incorrect,v
246,4F4K,247,2,52.52383473617402,64.4738101688665,1.4904159740766716,63.81840457719532,2,v,1.175720999999612,incorrect,b
247,4F4K,248,1,73.96707638360226,61.38389072181312,2.3278729017875808,61.49911258067763,2,n,0.6605016000012256,correct,n
248,4F4K,249,2,44.1594945506448,61.056128783942704,1.252477630230532,61.246583044219705,2,v,1.0391380000000936,incorrect,b
249,4F4K,250,2,65.615766882229,58.14193271761893,1.9567683938849776,58.951754225511145,1,v,1.8076313000001392,correct,v
250,4F4K,251,1,35.10610547917889,46.74786821989844,1.037551655627612,49.35405425252818,1,c,1.3887756999993144,correct,c
251,4F4K,252,1,49.43209371355832,31.96951535031049,1.3976109449338223,36.572043227200126,2,n,2.0250371000001905,correct,n
252,4F4K,253,2,32.1343092822583,38.44762809998542,0.9753752558725226,42.11081216405845,2,b,1.6731502000002365,correct,b
253,4F4K,254,1,70.7742133229273,56.39441807976303,2.178335846403961,57.5367180507996,2,n,0.5115394999993441,correct,n
254,4F4K,255,1,71.87352830065339,53.557135021300105,2.228705278796136,55.18644210056777,2,n,0.5391866000009031,correct,n
255,4F4K,256,1,49.71090209987224,62.344000279651205,1.4057373486702007,62.23188909220401,1,c,0.5891255000005913,correct,c
256,4F4K,257,2,64.18715619052685,51.476504037008425,1.899493382235676,53.428139696974405,1,v,0.9214533999984269,correct,v
257,4F4K,258,1,70.32807951732045,58.3579819149809,2.1582206744493417,59.1247790608322,2,n,0.6376574000005348,correct,n
258,4F4K,259,2,52.64788823471816,70.09278032253555,1.4942656441139308,67.7142599788058,2,b,0.950794100001076,correct,b
259,4F4K,260,1,63.00354432586354,47.44974116725247,1.853312711942464,49.96383903250275,2,n,1.7109005999991496,correct,n
260,4F4K,261,1,62.38242726514203,46.72796794342035,1.8295296769672649,49.33674631012257,2,n,0.8249503000006371,correct,n
261,4F4K,262,1,27.588559523823463,39.94706570107807,0.8874002014103936,43.41562356273125,1,c,1.6801104999995005,correct,c
262,4F4K,263,2,51.82195239847408,38.65590469749143,1.4688209811344215,42.29172883635205,1,v,0.8547164000010525,correct,v
263,4F4K,264,2,54.42976799469184,41.66270645150741,1.5506714429961244,44.913516640116754,1,v,1.9892141000000265,correct,v
264,4F4K,265,1,58.192389854833536,39.50377384401606,1.676870985532508,43.02934523449628,2,n,1.2056917999998404,correct,n
265,4F4K,266,1,53.24014269028649,62.06732088970536,1.5127821869293232,62.02180210018218,1,n,1.0914483000015025,incorrect,c
266,4F4K,267,2,51.3044203889056,58.23703026617146,1.4530986113899742,59.02796796356919,2,b,0.522353700000167,correct,b
267,4F4K,268,1,59.27245867654944,46.62155694650961,1.7149586129486212,49.2441807844697,2,n,2.373353799999677,correct,n
268,4F4K,269,2,42.15057002823151,60.50461265249191,1.2012339049910283,60.819010771320194,2,v,0.9214983999991091,incorrect,b
269,4F4K,270,2,59.85347565420957,50.38665580316965,1.7358042598405263,52.49746781300191,1,b,0.5891147000002093,incorrect,v
270,4F4K,271,1,57.786512220589,50.871372817101125,1.662777771250435,52.91212996842077,2,n,1.2991684000007808,correct,n
271,4F4K,272,1,38.93850757377962,55.0366286405625,1.1236207928501951,56.41953213405458,1,c,0.9336070999997901,correct,c
272,4F4K,273,1,49.63911367478545,59.71352220972746,1.4036404318253377,60.20006668135922,1,n,0.48594559999946796,incorrect,c
273,4F4K,274,1,56.57768649764507,68.42010905221187,1.621501765860243,66.60166627353375,1,n,0.6352272999993147,incorrect,c
274,4F4K,275,2,40.8790517416809,62.52246464346424,1.1698889189117,62.366927439032246,2,v,0.7043002000009437,incorrect,b
275,4F4K,276,1,27.71775444851631,41.10389435719577,0.8897874365340237,44.42522975706214,1,c,1.0125156000012794,correct,c
276,4F4K,277,1,77.58486215664055,65.26944656248826,2.509753831364129,64.39650793621128,2,n,0.7996808999996574,correct,n
277,4F4K,278,2,60.72173886942557,43.0561655721346,1.7674288834747092,46.13190113524745,1,v,1.0867440000001807,correct,v
278,4F4K,279,1,64.28037388025736,46.47737219913004,1.9031789451036112,49.11871360667211,2,n,0.9213027999994665,correct,n
279,4F4K,280,1,49.12381740752986,57.29214840806997,1.3886803191330863,58.26702178181901,1,c,1.930321499999991,correct,c
280,4F4K,281,1,43.2900559246936,24.766510636290423,1.2300369698909834,30.75288155974869,2,c,1.8983557999999903,incorrect,n
281,4F4K,282,2,66.15789961042637,43.70919234862839,1.978952505404421,46.70290161384145,1,b,0.9154042999998637,incorrect,v
282,4F4K,283,1,50.67729449830724,59.17870333793823,1.4342721864951269,59.77798613661339,1,c,0.8897622000004048,correct,c
283,4F4K,284,2,44.10996193215265,51.251904893011925,1.2511882401109076,53.23684183368262,2,b,1.839304600000105,correct,b
284,4F4K,285,2,38.96464663182803,54.47124991441508,1.1242316989355614,55.95015777709494,2,b,0.6301106000009895,correct,b
285,4F4K,286,2,68.78287503617318,50.65732677590036,2.0899758199418272,52.729160701498365,1,v,0.5770448999992368,correct,v
286,4F4K,287,1,41.56987442839641,49.69039496820916,1.1868159598302457,51.89991242442716,1,c,1.3827536999997392,correct,c
287,4F4K,288,2,51.53295728847145,44.87601581124282,1.4600205937845607,47.72247438261254,1,b,1.4979524000009405,incorrect,v
288,4F4K,289,2,59.64112550877674,43.18132768375661,1.7281563717438833,46.24135128294704,1,v,0.5698935000000347,correct,v
289,4F4K,290,2,64.63246933119218,51.54023986105519,1.917164432096198,53.482376182666606,1,v,0.5512907000011182,correct,v
290,4F4K,291,2,53.3395862527462,33.33072460776519,1.5159136615887958,37.71784836858681,1,v,0.6497928999997384,correct,v
291,4F4K,292,1,60.77233712234276,46.808079156734784,1.769289482029225,49.406415797663634,2,n,1.3696103999991465,correct,n
292,4F4K,293,2,62.88172736200117,55.58237628244768,1.848624003270781,56.87032493009264,1,v,1.4251807000000554,correct,v
293,4F4K,294,1,54.45932327330966,30.925419722062657,1.5516247549192923,35.70158644782728,2,c,1.1103521000004548,incorrect,n
294,4F4K,295,1,45.73576856650221,53.63321131930007,1.2942111907077205,55.25021999903744,1,c,0.5755883000001631,correct,c
295,4F4K,296,1,58.34971361905465,64.205715617634,1.6823657777740468,63.62177845042249,1,n,0.3938908000000083,incorrect,c
296,4F4K,297,2,48.57290510560728,31.139868978579965,1.3728625138690422,35.879736432620966,1,b,1.1824628000013035,incorrect,v
297,4F4K,298,1,75.62141252400086,56.47104993508937,2.4093473118616884,57.599326220643206,2,n,1.6390231999994285,correct,n
298,4F4K,299,1,42.01885963146078,60.28791052496285,1.1979484179422215,60.65011635359368,1,c,0.6362134999999398,correct,c
299,4F4K,300,2,28.93428360329807,45.50125266993872,0.912583521297111,48.26815691849988,2,v,0.8729371999997966,incorrect,b
300,4F4K,301,1,51.04241236660956,71.6338898959346,1.4452032166943491,68.7013390176021,1,n,0.8004104999999981,incorrect,c
301,4F4K,302,2,31.951847845578413,43.37375679831655,0.971681519425189,46.40961751558642,2,v,0.7590401000015845,incorrect,b
302,4F4K,303,1,42.55644469011023,59.58436466816888,1.211415134627769,60.09839980070964,1,c,0.6301729999995587,correct,c
303,4F4K,304,2,53.68865604143729,69.41814326587604,1.526957260019025,67.27057877197205,2,v,1.795408199999656,incorrect,b
304,4F4K,305,2,64.5900362146649,55.71391714727149,1.915473526278265,56.9786324917542,1,v,0.8062765000013314,correct,v
305,4F4K,306,2,39.02425077722837,53.745966651724544,1.1256259730840683,55.34467604209171,2,b,0.5574172000015096,correct,b
306,4F4K,307,1,41.19580691192291,56.817904902264,1.1776201051059896,57.88208723258667,1,c,1.0610608999995748,correct,c
307,4F4K,308,2,44.76119495536887,61.86321603928724,1.268247088646222,61.86625705519639,2,v,0.849276999999347,incorrect,b
308,4F4K,309,2,49.64578004168813,57.494844652510125,1.403835022444505,58.4309426326798,2,b,0.5405585000007704,correct,b
309,4F4K,310,1,54.14956894432132,42.41897800919788,1.5416626096413633,45.57469722782544,2,n,2.567650400000275,correct,n
310,4F4K,311,2,40.843850345309846,58.58684689881512,1.169032882389094,59.30758560056952,2,v,0.9579166999992594,incorrect,b
311,4F4K,312,2,54.767102356842805,38.87846029460165,1.5615871330091196,42.48517563806914,1,b,0.9457743000002665,incorrect,v
312,4F4K,313,1,50.28565621636225,35.77410078383368,1.4226390665437938,39.80117646648699,2,n,1.1581968999998935,correct,n
313,4F4K,314,2,64.28891799665723,45.38850842864908,1.9035171127677053,48.16980187030847,1,v,1.3705819000006159,correct,v
314,4F4K,315,1,39.266141568233415,48.10523727330598,1.1313021099606706,50.532048370515255,1,c,1.3514011000006576,correct,c
315,4F4K,316,2,42.462455326207085,56.36379350165884,1.2090497918499432,57.51168409019138,2,b,1.9349805999991077,correct,b
316,4F4K,317,2,40.48445555512674,51.32444477134968,1.16032879181505,53.29865554563588,2,b,0.5865465999995649,correct,b
317,4F4K,318,1,35.45939194786045,43.61043330732931,1.04520197685826,46.6165580419375,1,c,0.6668339999996533,correct,c
318,4F4K,319,1,46.49249310739982,28.47040438891933,1.3147375117626603,33.68778342442528,2,n,0.812734699999055,correct,n
319,4F4K,320,1,51.21885547756028,72.99504837091892,1.450515452018136,69.5416029302838,1,c,1.0671622999998363,correct,c
320,4F4K,321,1,55.02510256112157,69.61522125400036,1.5699875045574698,67.40090442055225,1,n,2.2927935000006983,incorrect,c
321,4F4K,322,1,40.792190595483056,54.23585981406666,1.1677777414495012,55.7540533465829,1,c,1.8368133000003581,correct,c
322,4F4K,323,2,54.248808209604725,37.08772190073154,1.5448473041757835,40.93276832919603,1,v,1.0503149999985908,correct,v
323,4F4K,324,2,62.131446621233145,44.793561555831545,1.8200062423193333,47.650470953135645,1,v,1.9605185000000347,correct,v
324,4F4K,325,1,41.05729736129543,28.184016057229137,1.1742331739833378,33.45616451185066,2,n,1.2882521000010456,correct,n
325,4F4K,326,2,45.41008955099151,34.280699465718534,1.2854760101631768,38.52411140451504,1,v,0.8607881999996607,correct,v
326,4F4K,327,1,39.21457222558311,56.101333066412685,1.1300896034746557,57.29681853807867,1,c,2.5250626000015473,correct,c
327,4F4K,328,2,52.3425340620434,61.73510039507565,1.484807622454628,61.768379389755786,2,v,1.0609344000004057,incorrect,b
328,4F4K,329,2,60.93445230597019,43.9373017740006,1.775263981578629,46.902313221930655,1,v,0.460645499999373,correct,v
329,4F4K,330,1,58.87528681135903,69.76826433456759,1.700853172215402,67.50170411960305,1,n,1.2617164999992383,incorrect,c
330,4F4K,331,1,60.56821987862729,37.08845319200679,1.7617956500483314,40.93340016040722,2,c,1.82580599999892,incorrect,n
331,4F4K,332,2,46.867412789226144,65.89430987733516,1.3250275749303084,64.84470686791518,2,v,0.9714416999995592,incorrect,b
332,4F4K,333,2,43.049962131790295,51.98487849251418,1.2239111794960866,53.86012229797535,2,b,0.593767400001525,correct,b
333,4F4K,334,2,46.61367596006917,38.00924221235123,1.3180547315838391,41.73041499033599,1,v,1.2760264999997162,correct,v
334,4F4K,335,1,43.46337560795431,58.58834333976407,1.2344781216998466,59.308779240870926,1,n,1.4191607000011572,incorrect,c
335,4F4K,336,1,47.317060736796776,28.33745235982753,1.3374749046090613,33.58016653014505,2,n,0.8549996999990981,correct,n
336,4F4K,337,2,51.36541154940702,37.35645854372546,1.454942709964247,41.16508385925243,1,v,0.6316017999997712,correct,v
337,4F4K,338,2,42.48388777951524,59.619135818859576,1.2095887556164775,60.12578676167176,2,b,0.7819073000009666,correct,b
338,4F4K,339,1,50.589202883673735,39.34011003485655,1.4316472720666125,42.886833090319485,2,n,1.0142882999989524,correct,n
339,4F4K,340,1,58.131428432348194,41.78088387852568,1.6747466348075346,45.01681332624263,2,n,1.607306799998696,correct,n
340,4F4K,341,1,33.69750978084246,50.02218144127694,1.007601582777814,52.18493545501247,1,c,0.78812040000048,correct,c
341,4F4K,342,1,53.67524871975807,36.15306990190375,1.5265316076177882,40.12690619400011,2,n,0.8136637000006886,correct,n
342,4F4K,343,1,48.4029175516103,58.73199723157593,1.3680182973862811,59.42326486786829,1,c,1.0844006999996054,correct,c
343,4F4K,344,2,39.82361843270955,56.37461784145764,1.144492931726481,57.52053330323079,2,v,1.023820499998692,incorrect,b
344,4F4K,345,2,75.82079256728309,53.07570693914162,2.4193571812846963,54.7819590347854,1,v,0.9592336000005162,correct,v
345,4F4K,346,2,50.07640040693943,62.18791485537213,1.4164621116693126,62.113479910722056,2,b,0.7818932999998651,correct,b
346,4F4K,347,2,52.93605468079396,42.08371987666116,1.50324654262112,45.281557514854505,1,v,1.1157007000001613,correct,v
347,4F4K,348,2,71.29052419445345,58.18831327073771,2.201849292615329,58.9889354336452,1,v,1.2790178999985073,correct,v
348,4F4K,349,2,37.00634225907675,49.39056863564412,1.079370578363089,51.6419379938738,2,b,0.7030469000001176,correct,b
349,4F4K,350,2,39.8186292822618,57.71046785008527,1.1443742007873865,58.60491284199323,2,b,0.8925096000002668,correct,b
350,4F4K,351,2,46.70351066071684,61.57601537855436,1.3205192382231363,61.64658315833863,2,b,1.1403742999991664,correct,b
351,4F4K,352,1,61.73077719512436,46.95078205234096,1.8049055155106983,49.53047891509049,2,n,3.0955716999997094,correct,n
352,4F4K,353,1,37.94713336774688,47.70239836286285,1.100694423337857,50.18300899916545,1,c,0.599269500000446,correct,c
353,4F4K,354,1,47.53172158324088,61.64791013280141,1.3434583984198367,61.70166147907719,1,c,0.8911726999995153,correct,c
354,4F4K,355,2,44.0807276618405,39.94629560336098,1.250427861960776,43.41495218136867,1,v,1.5880578999986028,correct,v
355,4F4K,356,1,52.6044303902315,42.18597706794032,1.4929159153859,45.37096342719671,2,n,0.9214861000000383,correct,n
356,4F4K,357,1,70.64812401750169,55.89286697073225,2.172631832429629,57.12575470416973,2,c,0.9751007000013487,incorrect,n
357,4F4K,358,2,57.69114750170839,70.405152939519,1.659483661115521,67.91733335115862,2,b,1.6866384000004473,correct,b
358,4F4K,359,2,58.64055963287544,35.46987630163878,1.692571511184858,39.54015130073642,1,b,0.5829545999986294,incorrect,v
359,4F4K,360,2,54.87243471667934,68.71317813198664,1.5650112647191672,66.79962197704909,2,v,0.8621961999997438,incorrect,b
360,4F4K,361,1,40.812653475882286,27.139334353705856,1.16827475253689,32.61762153574599,2,n,1.7408047000008082,correct,n
361,4F4K,362,1,48.032620974253405,30.76140090580596,1.3575248705921208,35.56555973239898,2,c,0.8486487999998644,incorrect,n
362,4F4K,363,2,52.81208044864951,49.71914426917168,1.4993762065517842,51.92462868931878,1,v,0.523273100001461,correct,v
363,4F4K,364,2,58.499412099364754,73.12552837175957,1.6876109610054923,69.62055715954182,2,b,0.7882704999992711,correct,b
364,4F4K,365,2,67.0012627392935,50.242735152840886,2.013963981935212,52.37413087261629,1,b,0.6293365999990783,incorrect,v
365,4F4K,366,2,41.52798729019504,55.98707197076878,1.185782671183091,57.20310136717952,2,v,0.7043842000002769,incorrect,b
366,4F4K,367,1,66.08117457429978,43.08563505550148,1.9757976984705203,46.15767145199949,2,n,0.7453560000012658,correct,n
367,4F4K,368,1,41.83783609474226,59.37120011568949,1.1934474830227384,59.93023662717549,1,c,0.6436943999997311,correct,c
368,4F4K,369,2,62.71941591809573,70.74642990223452,1.84239509777726,68.13746806543352,2,v,0.7994608999997581,incorrect,b
369,4F4K,370,1,44.40900500032668,30.20777331466838,1.2589929025350588,35.107919062462784,2,n,1.232400900000357,correct,n
370,4F4K,371,2,56.51835449499001,47.20427681597426,1.6195024322535745,49.75073151272464,1,v,0.508021200001167,correct,v
371,4F4K,372,1,46.97227025046004,31.680557331789345,1.3279198829072236,36.330373239887365,2,c,1.4980940999994345,incorrect,n
372,4F4K,373,2,33.88631432905693,46.86074372220727,1.0115652832211854,49.4522073505706,2,b,1.0113013000009232,correct,b
373,4F4K,374,1,68.01294542291444,47.40036272710796,2.056781248887004,49.92098331755701,2,c,0.9155551999992895,incorrect,n
374,4F4K,375,2,51.69945275466446,37.35035015719227,1.4650842023756592,41.159800501824094,1,v,0.5709090000000288,correct,v
375,4F4K,376,2,44.38608949553577,32.07186479851297,1.2583931170433331,36.6577794217762,1,b,0.5816042000005837,incorrect,v
376,4F4K,377,1,55.21983930742011,34.90150605163067,1.5763579594050503,39.05365112754944,2,n,0.7506044999990991,correct,n
377,4F4K,378,2,40.18001338869172,34.8207542551429,1.1530063046328918,38.98465911204544,1,v,1.3220230999995692,correct,v
378,4F4K,379,2,39.57032343442744,28.41151708702303,1.138480596244153,33.640098267794016,1,b,0.7781517999992502,incorrect,v
379,4F4K,380,1,53.51870452450991,40.725404750272986,1.5215704524621922,44.09469743690431,2,c,0.7090951000009227,incorrect,n
380,4F4K,381,1,39.68229903308399,54.382835919865485,1.1411345995541853,55.87654609609882,1,n,1.3173604999992676,incorrect,c
381,4F4K,382,2,66.69474233277975,59.31883157733579,2.0011679750372218,59.88885369396536,1,v,1.2006500999996206,correct,v
382,4F4K,383,2,35.306194843525816,52.27027353212903,1.0418776331130035,54.10199119971327,2,b,0.5102072000008775,correct,b
383,4F4K,384,1,59.65760093135406,46.72793420605924,1.7287485339849693,49.33671696677795,2,n,0.8243688999991718,correct,n
384,4F4K,385,1,35.63744143559132,55.24995557122744,1.0490789419294613,56.59601476864179,1,c,0.5405500000015309,correct,c
385,4F4K,386,2,32.639093258674976,55.59013000178811,0.985667387471494,56.87671293945274,2,v,0.7808010000007926,incorrect,b
386,4F4K,387,2,69.56142499011591,53.6733500751556,2.124086840005638,55.2838543641979,1,v,0.45562729999983276,correct,v
387,4F4K,388,2,43.98798807043187,57.1709444081246,1.2480187785209074,58.16882975962761,2,b,0.7273812999992515,correct,b
388,4F4K,389,1,28.52587844360767,49.23531094468259,0.9048661795878462,51.50820619727352,1,c,1.1352965999994922,correct,c
389,4F4K,390,1,49.38431974931596,57.96623731345196,1.3962232034020878,58.81072535718715,1,n,0.7687150000001566,incorrect,c
390,4F4K,391,2,60.84502817618366,72.48517967289033,1.771965905629569,69.23038833980186,2,v,0.5356876999994711,incorrect,b
391,4F4K,392,2,32.64525851112841,47.37299010478947,0.9857937609113492,49.89722351323856,2,v,0.7759463000002143,incorrect,b
392,4F4K,393,2,35.85367246894111,57.535717101095806,1.053806639154807,58.46395176295235,2,b,0.448135500000717,correct,b
393,4F4K,394,1,58.23342895563748,74.88949971105077,1.678302611363319,70.65992293647822,1,n,1.2006560999998328,incorrect,c
394,4F4K,395,1,73.05016742764923,58.94218203776762,2.2839087683637147,59.59041238124389,2,n,0.9653785999998945,correct,n
395,4F4K,396,1,46.185632733527896,65.28447989864121,1.3063749044467503,64.4073517222114,1,c,0.8312177000007068,correct,c
396,4F4K,397,2,43.79854333553595,29.73843230650798,1.24311201386661,34.721823443987304,1,b,1.2128018000003067,incorrect,v
397,4F4K,398,1,59.20348397550863,50.75349261635171,1.7125006305328594,52.81139254825953,2,n,0.9762718000001769,correct,n
398,4F4K,399,2,50.18306539563565,65.40377859677523,1.4196073625971228,64.49329823823582,2,b,1.449486400000751,correct,b
399,4F4K,400,2,42.98182597525557,51.00305478290578,1.222178306953296,53.02457949163418,2,b,0.771187700000155,correct,b
