,condition,trial,sub_task,x,y,xt,yt,cat,resp,rt,acc,correct_resp
0,4F4K,1,1,60.69626804558915,47.04600924213626,1.7664930110549828,49.8891665859078,2,c,3.714605900000606,incorrect,n
1,4F4K,2,2,27.99127691775444,42.21077442891376,0.8948627358045077,45.598777339820366,2,v,1.3099050000000716,incorrect,b
2,4F4K,3,1,56.41600958520845,67.5947044046615,1.6160594679776794,66.58495571733641,1,n,1.5530942999994295,incorrect,c
3,4F4K,4,2,49.5329152148428,35.68718214339511,1.4005441437617734,39.83898971829103,1,v,2.100240300000223,correct,v
4,4F4K,5,1,55.51656507060756,68.60626722887388,1.5861145336668063,67.2865018892564,1,c,2.0638690999985556,correct,c
5,4F4K,6,2,54.46642095462676,36.79434512210585,1.5518537794284264,40.80764215305396,1,v,1.0671207000013965,correct,v
6,4F4K,7,2,29.78794998007587,37.6560539842031,0.9289278807288254,41.56487923870678,2,b,2.086796099998537,correct,b
7,4F4K,8,2,49.48136020378703,62.66880959655099,1.3990434861041072,62.96604522463093,2,v,1.1824713000005431,incorrect,b
8,4F4K,9,1,45.94556818923005,30.826078876719848,1.2998697289258958,35.66368423813295,2,n,4.036305699999502,correct,n
9,4F4K,10,2,65.44091487103621,49.72250333711822,1.9496666096017568,52.241715604651205,1,b,3.82991949999996,incorrect,v
10,4F4K,11,1,45.71265163499588,55.08274784597471,1.2935892089124417,56.84683029759527,1,c,1.9524880000008125,correct,c
11,4F4K,12,2,28.872239493992844,48.18307816826562,0.9114068917082054,50.89166979452087,2,b,2.2445157000001927,correct,b
12,4F4K,13,1,28.698389018182443,44.16327977225941,0.9081179957811328,47.33419045650954,1,n,2.518986200000654,incorrect,c
13,4F4K,14,1,39.44145236609762,49.91640840341751,1.135433781863535,52.4110776756578,1,c,4.302198499999577,correct,c
14,4F4K,15,1,57.43803477795193,46.62901522826156,1.650772194886987,49.52060188015422,2,n,0.8234755000012228,correct,n
15,4F4K,16,2,44.99476037715823,55.825808868877495,1.2744217652662044,57.46990462067218,2,b,1.9642480000002251,correct,b
16,4F4K,17,1,46.338826969018285,39.67405996555305,1.3105431077450935,43.34718750847913,2,c,2.6329439000001003,incorrect,n
17,4F4K,18,2,46.75848926876856,53.6048378186858,1.3220297825196845,55.59519131848912,2,v,5.0,incorrect,b
18,4F4K,19,2,32.834559669585545,48.6537474721339,0.989681893917424,51.305401724995214,2,v,2.183825699999943,incorrect,b
19,4F4K,20,2,61.50929319830442,66.7978505177718,1.7966119014118054,66.02184794834741,2,v,2.4826087999990705,incorrect,b
20,4F4K,21,2,35.78641047348018,52.50108253791068,1.0523337376334796,54.65063724084663,2,v,2.0022564999999304,incorrect,b
21,4F4K,22,1,60.92779115712172,45.53726280979315,1.7750180984569597,48.55377075368139,2,n,1.1083824000015738,correct,n
22,4F4K,23,1,47.94743019173705,52.571049492157286,1.3551221542617038,54.71074232372128,1,c,2.1781781000008777,correct,c
23,4F4K,24,2,49.2746982664324,65.21185446000189,1.3930441169138277,64.87464984120132,2,b,1.7230605999993713,correct,b
24,4F4K,25,2,54.92964178791361,44.04816199168003,1.5668740904973852,47.23191414208621,1,v,2.8770780000013474,correct,v
25,4F4K,26,2,46.524094154370246,58.49548952804185,1.3156017429652695,59.66971108644105,2,b,2.0928015999998024,correct,b
26,4F4K,27,1,61.22315694775288,70.91420788932194,1.7859537354929336,68.82906503621531,1,n,3.2775925999994797,incorrect,c
27,4F4K,28,1,56.10583516524505,45.75353721108361,1.6056695957145892,48.74548776479676,2,c,3.6539057999998477,incorrect,n
28,4F4K,29,1,54.23781900057461,40.16708793055218,1.544494324996347,43.78409651122015,2,n,2.0892318000005616,correct,n
29,4F4K,30,1,75.24803566671909,52.445849549911614,2.3907132022043127,54.60316821034529,2,c,2.2823171,incorrect,n
30,4F4K,31,1,44.76521341048593,68.42425034093907,1.2683530696081478,67.16138420891755,1,n,1.6683863999987807,incorrect,c
31,4F4K,32,2,43.19128137746137,31.13207435770866,1.2275131172581732,35.9219656518575,1,v,3.963277000000744,correct,v
32,4F4K,33,1,69.08593495895157,53.00224094474933,2.103188339893354,55.08048372047089,2,c,2.5250959000004514,incorrect,n
33,4F4K,34,1,40.24802086694521,23.433653191386117,1.15463801168174,29.679036117283403,2,c,3.277587200000198,incorrect,n
34,4F4K,35,1,56.90780520759113,42.251796605610274,1.6326710610325947,45.63523886128598,2,c,1.546582999999373,incorrect,n
35,4F4K,36,2,64.35687928819895,48.03934999196313,1.9062090940562644,50.76517500782713,1,v,3.847168000000238,correct,v
36,4F4K,37,2,50.53230475655423,34.48304128197967,1.4299544012363496,38.791884350150966,1,b,2.142745700000887,incorrect,v
37,4F4K,38,1,31.53365224502237,48.42416512586293,0.9632682819917048,51.10369070640908,1,c,2.9245499999997264,correct,c
38,4F4K,39,1,33.40634196385525,44.26195691004248,1.0015193247982928,47.42185127825501,1,c,1.824777300000278,correct,c
39,4F4K,40,1,58.50927194753907,74.08928753767239,1.6879570069813206,70.8112251216377,1,n,2.70589949999885,incorrect,c
40,4F4K,41,1,62.86170554455372,46.48276856391651,1.8478545036742156,49.39123816763991,2,c,4.418375900000683,incorrect,n
41,4F4K,42,2,44.66840142113336,57.752872553745846,1.2658022546909673,59.06426463832147,2,v,4.479273400000238,incorrect,b
42,4F4K,43,2,71.37161730560786,53.632489107777104,2.2055653677955034,55.61875147213142,1,v,2.48865029999979,correct,v
43,4F4K,44,1,30.85254166754776,40.28788558273564,0.949721388693204,43.891211328932194,1,c,3.2048076999999466,correct,c
44,4F4K,45,2,37.825537154892814,54.657889504586834,1.0979148087330448,56.488653005447965,2,v,1.2496687000002566,incorrect,b
45,4F4K,46,1,31.89215865766571,44.29815411931155,0.9704762147719088,47.45400526047643,1,n,2.10494110000036,incorrect,c
46,4F4K,47,1,72.93599079129073,52.46755898117639,2.278492661118562,54.62182822200919,2,n,2.6474510000007285,correct,n
47,4F4K,48,1,43.85567328299203,33.385791350331004,1.244589688428409,37.84442811114751,2,n,2.143002799999522,correct,n
48,4F4K,49,2,41.08520137723632,59.94043330454959,1.1749147177939423,60.83221603255157,2,v,2.1123712999997224,incorrect,b
49,4F4K,50,2,43.95514090614345,61.75505259685929,1.247166625854562,62.26082440978257,2,b,2.9024735000002693,correct,b
50,4F4K,51,1,55.4864737527742,48.79887702090907,1.5851223625057216,51.43281220766641,2,n,3.2905809999992925,correct,n
51,4F4K,52,1,32.606901931567435,49.91328498767125,0.9850078026787764,52.40835092732536,1,c,3.582388599999831,correct,c
52,4F4K,53,1,61.03120954894632,48.7776375918327,1.77883942671377,51.41417088199077,2,c,1.8075648999983969,incorrect,n
53,4F4K,54,1,58.47448195210679,43.585934759260674,1.6867363169857414,46.82115647868165,2,n,1.2494196999996348,correct,n
54,4F4K,55,1,36.771390124824734,48.50424663247358,1.0741099671861454,51.17407202041352,1,c,2.182813499999611,correct,c
55,4F4K,56,1,58.00009411910672,68.86418456368946,1.670179107647593,67.46294360399403,1,n,1.2128104000003077,incorrect,c
56,4F4K,57,1,51.50751484344983,39.132223996643134,1.4592483584612597,42.86760165987046,2,n,1.9896258000007947,correct,n
57,4F4K,58,2,55.079340700860186,68.90582088024102,1.5717592145309605,67.4913332384404,2,b,3.06519230000049,correct,b
58,4F4K,59,2,71.89071538420859,49.97956618534066,2.229501950065825,52.46620509404777,1,v,2.543310399998518,correct,v
59,4F4K,60,2,40.2228645806911,56.377413404911934,1.1540341666360348,57.92954727362403,2,b,1.6133572999988246,correct,b
60,4F4K,61,2,25.969517063529,44.889941580470094,0.8580213858537866,47.97949596741435,2,b,0.9095194000001356,correct,b
61,4F4K,62,1,32.76085334032791,46.16807640089417,0.9881661900843384,49.11270851224477,1,n,1.8813525999994454,incorrect,c
62,4F4K,63,2,58.24297969178454,35.39105147024255,1.6786359586771684,39.580821185031255,1,b,2.840659500001493,incorrect,v
63,4F4K,64,2,57.68465477211807,70.1266621010949,1.65925962517486,68.31198936947634,2,v,1.886472500000309,incorrect,b
64,4F4K,65,1,57.78390275233811,41.86603909902668,1.662687547440962,45.29240002682811,2,n,2.8392717000006087,correct,n
65,4F4K,66,2,51.35311821680752,29.72560550245976,1.454570826616767,34.740791484138015,1,b,1.9157793000013044,incorrect,v
66,4F4K,67,1,30.283836473224785,47.18391034984597,0.9385562351352912,50.010951518364266,1,c,4.728079700000308,correct,c
67,4F4K,68,1,62.923847521872005,47.827387137959015,1.8502438559547811,50.57850254711505,2,n,1.5162490000002435,correct,n
68,4F4K,69,2,63.29246351297412,55.69755856847165,1.8644807544406832,57.36267754744722,1,b,3.241194100000939,incorrect,v
69,4F4K,70,1,50.95168620264815,34.07099628959295,1.4424792701605484,38.43529438149736,2,n,3.0886661000004096,correct,n
70,4F4K,71,1,59.11406007691845,66.06475504481844,1.7093191642200678,65.49587365465845,1,n,1.5890736999990622,incorrect,c
71,4F4K,72,1,26.064666146502493,48.19402465132939,0.8597207214202846,50.90130090321255,1,n,1.3355905000007624,incorrect,c
72,4F4K,73,2,43.13086473789613,49.83263038009816,1.2259719256222106,52.33792413342337,2,b,2.652523500000825,correct,b
73,4F4K,74,1,49.145388139828846,36.05783449177728,1.389303352477711,40.16268998282775,2,n,2.1983286000013322,correct,n
74,4F4K,75,2,59.74618114472429,75.04920445203794,1.7319357779214326,71.37689800316649,2,v,2.367273399999249,incorrect,b
75,4F4K,76,2,62.79505991571008,44.92417463324695,1.8452954154497,48.009881248555374,1,b,1.6376361000002362,incorrect,v
76,4F4K,77,1,52.424468750698,39.037281471974985,1.4873395701884184,42.7836361737054,2,n,2.7981975999991846,correct,n
77,4F4K,78,1,66.20329326262782,51.0447957186008,1.9808213887842228,53.39313622989505,2,n,1.612338799999634,correct,n
78,4F4K,79,1,60.60440280595154,42.945960060152565,1.7631217288769885,46.25229200674982,2,n,1.1641018000009353,correct,n
79,4F4K,80,1,47.87751821407547,58.22069281063591,1.3531535378427006,59.44628357175087,1,n,0.7541357999998581,incorrect,c
80,4F4K,81,2,29.256110381784183,48.99196074122145,0.91871119342015,51.60219769106277,2,b,3.3148567999996885,correct,b
81,4F4K,82,2,46.017758000665935,64.18131225894373,1.3018224870961592,64.11112570086301,2,v,1.9592766999994637,incorrect,b
82,4F4K,83,2,46.06506817049573,66.8304418374925,1.3031038337411578,66.04505652979459,2,b,0.939710799999375,correct,b
83,4F4K,84,1,62.95187201031801,48.82461868890071,1.8513224050767925,51.45540274006287,2,n,2.0870216000002983,correct,n
84,4F4K,85,1,66.56498629650474,60.90019189323712,1.995775699756129,61.59233923518428,2,n,1.1333322999998927,correct,n
85,4F4K,86,1,37.75716472748972,51.02439934130505,1.096354941404853,53.3754410261986,1,c,1.9228735999986384,correct,c
86,4F4K,87,2,49.21537807344569,61.93664705829509,1.3913268163532448,62.401754923009264,2,v,2.1594390999998723,incorrect,b
87,4F4K,88,1,37.19915745274339,49.45380183800036,1.0837069798312606,52.00675286029011,1,c,1.588025999999445,correct,c
88,4F4K,89,1,57.45524519866668,44.63774095148694,1.6513630800198895,47.75559704289506,2,n,0.8568016999997781,correct,n
89,4F4K,90,1,56.94464242699616,72.4605676219413,1.633922179972823,69.81534327488755,1,n,1.0368144000003667,incorrect,c
90,4F4K,91,2,43.52209557773077,65.2164073479938,1.235986398707497,64.87799204057872,2,v,1.8864429999994172,incorrect,b
91,4F4K,92,1,44.58922415693369,54.20455586728957,1.2637198957098752,56.10499113787011,1,c,2.5931454000001395,correct,c
92,4F4K,93,2,51.72512955496876,46.13471994555291,1.4658666695948608,49.08317249774171,1,b,1.9774715000003198,incorrect,v
93,4F4K,94,1,51.155463399665365,66.01256811590595,1.4486046404996535,65.45814684171458,1,c,2.1474139999991166,correct,c
94,4F4K,95,1,62.47106438451677,47.71447751865325,1.8329048971223465,50.479006003168045,2,n,0.6484554999988177,correct,n
95,4F4K,96,1,42.84158167819042,60.15019825689753,1.2186192627291323,60.99919338699416,1,c,0.8183341000003566,correct,c
96,4F4K,97,1,61.65140911553273,49.43249412492707,1.8019291331183,51.98810741321305,2,c,2.9926583000014944,incorrect,n
97,4F4K,98,2,59.71488015147559,79.24762459713763,1.730808852208882,73.6575043702459,2,v,1.7346839000001637,incorrect,b
98,4F4K,99,2,48.89578304793944,67.76897007732764,1.382111005209541,66.70688471514525,2,v,1.0538862999983394,incorrect,b
99,4F4K,100,1,57.42005782527265,35.41592873860687,1.6501552181850887,39.60249350645863,2,n,1.7847234999990178,correct,n
100,4F4K,101,2,54.08563956094443,39.01330006005607,1.5396145248490625,42.76243090968276,1,b,1.133914800000639,incorrect,v
101,4F4K,102,1,67.18561012134901,47.18177265834644,2.0216991199466903,50.00906405188788,2,n,1.2068370999986655,correct,n
102,4F4K,103,1,42.09797853000676,34.06261348336214,1.1999209422921544,38.428049467153706,2,c,1.346171900000627,incorrect,n
103,4F4K,104,1,59.35482623569855,50.36688307592663,1.717898485717839,52.803873212432,2,n,0.9400759999989532,correct,n
104,4F4K,105,1,64.79102872527497,55.366936114707606,1.9234960430278136,57.08564367631149,2,n,0.8436148000000685,correct,n
105,4F4K,106,2,41.120062702222896,27.23709854595411,1.1757667467872368,32.69182347155676,1,b,2.3841274000005797,incorrect,v
106,4F4K,107,2,53.61933773723497,68.19682100931533,1.524757838039151,67.00435764868429,2,v,1.3710523999998259,incorrect,b
107,4F4K,108,2,53.095895047209055,66.59481165365291,1.5082513267171795,65.87692505387145,2,b,0.7225995999997394,correct,b
108,4F4K,109,2,39.295025511538576,53.11125451230875,1.1319818020686403,55.173774311800194,2,b,1.504100299998754,correct,b
109,4F4K,110,2,37.56473436772159,47.31747702301678,1.091976668120178,50.12885831261167,2,b,0.5998813000005612,correct,b
110,4F4K,111,1,56.71825592768431,42.75290987357049,1.6262484454228825,46.08068013512832,2,c,1.4251997000010306,incorrect,n
111,4F4K,112,1,49.978030215863534,58.60445448479699,1.413567628137175,59.75810452344211,1,n,0.9714791999995214,incorrect,c
112,4F4K,113,2,57.4143181671094,46.78359097108074,1.6499582792324778,49.65727686537041,1,b,1.8015235999992,incorrect,v
113,4F4K,114,1,64.75398280285968,44.94014006784352,1.9220148517104776,48.02405164885361,2,n,1.0309926999998424,correct,n
114,4F4K,115,1,61.22124485133866,56.01146463390695,1.785882725728272,57.62488969832136,2,n,1.6619252000000415,correct,n
115,4F4K,116,2,47.77484012502694,58.04638977933914,1.3502674601688065,59.30418975308494,2,v,1.7044286000000284,incorrect,b
116,4F4K,117,1,65.18500970928709,52.218199965895046,1.939319212862344,54.407324065485895,2,n,0.8001273999998375,correct,n
117,4F4K,118,1,62.293776231318176,49.9695342737762,1.8261601437570092,52.45744992326302,2,n,0.5828869000015402,correct,n
118,4F4K,119,2,68.38872593619953,54.16647838694277,2.0729161756472925,56.07269793555265,1,v,2.567584700000225,correct,v
119,4F4K,120,2,70.22098053465534,56.94837833447404,2.153419534125046,58.4026095352921,1,v,0.6058850000008533,correct,v
120,4F4K,121,2,43.0141670035268,55.48505250669948,1.223000513921703,57.18471506921454,2,b,2.026297700000214,correct,b
121,4F4K,122,1,33.117206279415726,43.86682984358887,0.9955158482232525,47.07078953057763,1,c,1.5393949999997858,correct,c
122,4F4K,123,2,44.08554018353652,63.46495146109842,1.2505530030091907,63.57232824494114,2,b,2.1058358999998745,correct,b
123,4F4K,124,2,39.65680724508128,55.23638501429676,1.1405298594288855,56.97601499683518,2,b,0.7036726999995153,correct,b
124,4F4K,125,1,51.08521818314747,70.37192664964984,1.4464901964722665,68.47407146990469,1,c,1.905231200000344,correct,c
125,4F4K,126,1,49.24847740334644,61.35239777535919,1.392284770099188,61.946984176252826,1,c,1.8869469000001118,correct,c
126,4F4K,127,2,60.925351923844005,47.69448103202106,1.7749280675088923,50.46138083492706,1,v,2.719184100000348,correct,v
127,4F4K,128,2,64.76642208453127,53.85079839010036,1.9225120789667167,55.80457701423634,1,v,0.9457952000011574,correct,v
128,4F4K,129,1,58.60199755392513,66.8738889052976,1.691214822920084,66.0759722428539,1,n,1.309945400000288,incorrect,c
129,4F4K,130,2,41.18555939591232,52.29742602714831,1.1773691914713045,54.47551657435824,2,b,1.686358000000837,correct,b
130,4F4K,131,2,65.30833323704886,49.881932055502304,1.944298864199194,52.38097732324402,1,v,0.7347055000009277,correct,v
131,4F4K,132,2,64.76774419158075,59.49146383689573,1.92256493424743,60.47327768075619,1,v,1.411990299999161,correct,v
132,4F4K,133,1,56.06286258135315,35.62744021879866,1.604235426679155,39.78687351906677,2,n,1.1838447999998607,correct,n
133,4F4K,134,1,67.83730463189313,50.18930294297698,2.0492828705626045,52.64914339472588,2,n,0.7337253000005148,correct,n
134,4F4K,135,1,66.55022424369724,75.81456998214261,1.9951631539861148,71.81636175442713,1,n,2.222982699999193,incorrect,c
135,4F4K,136,2,40.8847048360135,56.88510093069707,1.170026450703845,58.35032156666332,2,b,1.5466711999997642,correct,b
136,4F4K,137,1,55.56263668083536,43.201061207452426,1.587634810586959,46.47906002799281,2,c,1.8864623000008578,incorrect,n
137,4F4K,138,2,80.51328621936679,64.45184957676065,2.66733418125265,64.31290544895879,1,v,1.5221590000001015,correct,v
138,4F4K,139,1,62.25399657674566,44.86134141917352,1.8246501784372824,47.95410927044363,2,n,2.068549900001017,correct,n
139,4F4K,140,2,35.422510396314486,46.1768255682741,1.0444006870943177,49.12045521409599,2,b,1.3160437000005913,correct,b
140,4F4K,141,2,61.10096402431962,50.18509636752533,1.7814215118049812,52.64547630322383,1,v,2.026070800000525,correct,v
141,4F4K,142,1,62.98613157735622,52.49149505697658,1.85264177126344,54.64239878239773,2,c,1.8925197000007756,incorrect,n
142,4F4K,143,1,55.68320359102778,62.77352925465152,1.59162019288368,63.04623283543813,1,c,3.0227252000004228,correct,c
143,4F4K,144,1,53.18647936136135,44.59731412730402,1.5110950185153424,47.71969984354361,2,c,0.7938991999999416,incorrect,n
144,4F4K,145,2,41.64657166953327,63.53300704482949,1.1887102923052657,63.623792385730695,2,b,1.3780672000011691,correct,b
145,4F4K,146,2,45.32492484607026,34.24470431536844,1.2832015107049248,38.58551085185668,1,b,1.2734853999991174,incorrect,v
146,4F4K,147,2,39.53267146530426,53.699927044445694,1.137589570938906,55.67618979452062,2,v,1.0536799999990762,incorrect,b
147,4F4K,148,1,41.28488046170983,56.2047092701904,1.1798033525325522,57.785908048585945,1,c,1.4007889999993495,correct,c
148,4F4K,149,1,28.936114213475065,43.3952486408944,0.9126182607901666,46.65167072078114,1,c,1.6124904999996943,correct,c
149,4F4K,150,1,26.866747341720263,34.92591503673641,0.8741800869254206,39.17616136845886,1,c,0.7029891000001953,correct,c
150,4F4K,151,1,45.34514710889589,62.61474285381557,1.2837412234133443,62.92459275382153,1,n,1.414476599999034,incorrect,c
151,4F4K,152,1,34.37696743201899,47.50038082749017,1.021938956955399,50.29023473376569,1,c,2.676805400000376,correct,c
152,4F4K,153,2,46.88955224158656,33.10484816000137,1.3256377275490665,37.60296921500132,1,b,2.585774400000446,incorrect,v
153,4F4K,154,1,50.30262620136591,65.72114616849578,1.4231411773107134,65.24678731949952,1,n,2.001618199999939,incorrect,c
154,4F4K,155,1,56.37109145888269,40.34016190155592,1.614550698547139,43.93757380107887,2,n,1.0370803999994678,correct,n
155,4F4K,156,1,62.43048413874742,42.13377867203463,1.8313588664881533,45.53034353601774,2,n,0.9396911000003456,correct,n
156,4F4K,157,2,67.81757195747802,58.381875896545175,2.048442161987849,59.57742397607502,1,b,0.7454987000000983,incorrect,v
157,4F4K,158,1,35.602369019109915,48.79582056612327,1.0483141166802086,51.43012973773585,1,c,1.7590154999998049,correct,c
158,4F4K,159,2,57.27922844842202,37.588920297173104,1.6453298659866271,41.50579065445842,1,v,1.4908576999987417,correct,v
159,4F4K,160,1,68.8321545378707,51.82964653504041,2.092118596187013,54.07234911131352,2,n,1.5041092999999819,correct,n
160,4F4K,161,1,59.30857638961742,45.701085213913096,1.7162471108064858,48.69899929513403,2,n,2.268405700000585,correct,n
161,4F4K,162,1,61.41943550141701,46.16640293203593,1.7932579977287866,49.1112267682171,2,n,1.01249480000115,correct,n
162,4F4K,163,2,50.859972459550605,33.649755702769056,1.4397308909675215,38.07172680392133,1,v,2.719182799999544,correct,v
163,4F4K,164,2,43.88466807815405,31.907872532731734,1.2453403149244642,36.5798532147098,1,b,1.8439583999988827,incorrect,v
164,4F4K,165,2,45.49273951053402,31.879643812933477,1.2876872028658275,36.55584017326533,1,v,1.2431417999996484,correct,v
165,4F4K,166,1,39.198679775813964,50.10008578298027,1.1297161997177576,52.57135047957871,1,n,1.6450754999987112,incorrect,c
166,4F4K,167,2,74.50326988531262,52.07826558036423,2.35397352825833,54.28678697811788,1,v,1.6861520000002201,correct,v
167,4F4K,168,2,38.819461131343616,57.08712582173754,1.120842708248526,58.51713711143277,2,b,1.655820699999822,correct,b
168,4F4K,169,2,68.82167551727092,49.11961973961637,2.0916627625254263,51.71410839345309,1,v,1.0008961999992607,correct,v
169,4F4K,170,2,38.75364485755162,59.28854939779377,1.1193097599019906,60.31037120587913,2,b,0.5769790999984252,correct,b
170,4F4K,171,2,44.43292266329971,58.34168626463136,1.2596192232026375,59.54474855982072,2,b,0.7636965999990935,correct,b
171,4F4K,172,2,33.33565773800433,44.91663671463905,1.000048335804463,48.0031907194944,2,b,1.233521699999983,correct,b
172,4F4K,173,1,44.01900192065933,55.568933101956766,1.2488239039991125,57.25500369020851,1,c,1.0975135000007867,correct,c
173,4F4K,174,2,38.05271394033326,48.38801601193015,1.103113637553775,51.0719127962311,2,b,2.48257890000059,correct,b
174,4F4K,175,2,57.01835951626533,42.86262997155838,1.636428746126312,46.178215754371024,1,v,1.8489693000010448,correct,v
175,4F4K,176,1,49.31051764541841,30.223235446682374,1.394082102658171,35.15693319204255,2,c,1.3527665000001434,incorrect,n
176,4F4K,177,1,50.09334163683386,43.93342192239723,1.4169611950560017,47.12996331279975,2,n,1.2688385999990714,correct,n
177,4F4K,178,1,39.54564909723433,52.408936909650926,1.13789660486883,54.571433935146985,1,n,1.4373832999990555,incorrect,c
178,4F4K,179,2,58.63758094906839,41.52404166385621,1.692466676571717,44.988530682222965,1,b,1.0610985999992408,incorrect,v
179,4F4K,180,2,63.374948883963015,73.92073788502006,1.8676815214675213,70.71025508147397,2,b,0.6983729999992647,correct,b
180,4F4K,181,2,37.72722970995496,55.52656680637226,1.095672693441418,57.21950940657668,2,v,0.527732599999581,incorrect,b
181,4F4K,182,2,52.81975416280181,40.2700113328326,1.4996154817027314,43.8753601632415,1,b,1.0609213999996427,incorrect,v
182,4F4K,183,1,28.810672229462966,40.51287733778746,0.9102408048313994,44.0907814118809,1,c,2.2202312999997957,correct,c
183,4F4K,184,2,67.44647719827566,50.77071945357683,2.0326957844241007,53.15517793897085,1,b,1.8751378999986628,incorrect,v
184,4F4K,185,2,53.67156639566345,74.6622718176396,1.526414722855158,71.15080768261733,2,v,2.300544699999591,incorrect,b
185,4F4K,186,2,71.66448533912278,51.50317485702727,2.2190382875385155,53.790228543135854,1,v,1.2309836999993422,correct,v
186,4F4K,187,1,26.707113895363523,37.91030177265888,0.8712830709003395,41.78879313277127,1,n,3.1866257000001497,incorrect,c
187,4F4K,188,2,75.89960154468956,57.94335047534951,2.423325241964021,59.22005585908292,1,b,1.6072973999998794,incorrect,v
188,4F4K,189,1,66.72628123513489,46.79028073196578,2.0024808375708174,49.66319057244856,2,n,2.2627401999998256,correct,n
189,4F4K,190,2,45.58850699976062,29.0464696869494,1.2902540954896609,34.17616946705206,1,v,1.887836599998991,correct,v
190,4F4K,191,2,53.81080117473299,44.87710552383254,1.530840564301608,47.96810227894607,1,v,0.9033075000006647,correct,v
191,4F4K,192,2,44.21846810822703,58.46251106129939,1.2540145115804406,59.64293589710354,2,v,0.6134206000006088,incorrect,b
192,4F4K,193,1,37.72545558115609,55.29207435252872,1.0956322726615215,57.022795731522265,1,c,2.2021944999996776,correct,c
193,4F4K,194,2,53.31901999737144,41.549691343358965,1.515265499621099,45.01131761367981,1,b,1.9471326000002591,incorrect,v
194,4F4K,195,1,54.222424084564814,46.71272136566089,1.5439999678195253,49.59462169231703,2,n,2.1161443000000872,correct,n
195,4F4K,196,2,39.93002397089313,53.93562414755618,1.1470280873300844,55.87669204400338,2,v,1.7291148000003886,incorrect,b
196,4F4K,197,2,52.42677236999718,36.122693938540856,1.4874108190547213,40.21939562519639,1,b,2.8466066000000865,incorrect,v
197,4F4K,198,2,70.32499640963822,57.03347041078028,2.1580823122884323,58.47286803387173,1,b,0.7642467999994551,incorrect,v
198,4F4K,199,1,54.2694997722208,41.99835444260391,1.545512147021553,45.40998539046589,2,n,1.8136405999994167,correct,n
199,4F4K,200,2,57.26597332602035,41.55451395442107,1.6448764220615846,45.0156020375559,1,b,1.232394700000441,incorrect,v
200,4F4K,201,1,53.29470529283832,57.30863705193892,1.5144995597803823,58.69962611337261,1,n,3.1325966999993398,incorrect,c
201,4F4K,202,1,52.44469016180315,40.07883760467116,1.4879651167174353,43.70585822712028,2,n,1.5891083999995317,correct,n
202,4F4K,203,1,47.08855004900117,33.27796940638425,1.3311346389509922,37.751702841048605,2,n,0.9763411999992968,correct,n
203,4F4K,204,2,32.48481451692832,44.16157124269708,0.9825102990919796,47.332672593450496,2,b,2.7192725999993854,correct,b
204,4F4K,205,2,50.73223291480096,44.88939499345247,1.4359116529128144,47.97901080392426,1,v,2.1049058999997214,correct,v
205,4F4K,206,2,63.65397040551069,51.274595003150544,1.8785494746100977,53.59235121028413,1,v,1.4933485000001383,correct,v
206,4F4K,207,1,50.26804360520388,41.28240412035876,1.422118128989306,44.77389133703417,2,c,2.786062099999981,incorrect,n
207,4F4K,208,2,59.50051806111492,44.17777879771742,1.7231108820151102,47.347071337595935,1,v,2.123118700001214,correct,v
208,4F4K,209,1,55.639955265762616,40.85479528839272,1.590189454660485,44.39420974705719,2,n,3.5689156999997067,correct,n
209,4F4K,210,1,56.46522881297873,42.91404926073236,1.6177143274308776,46.22392493962066,2,n,3.1271634999993694,correct,n
210,4F4K,211,1,55.81435575475384,48.176964635872125,1.5959668357801975,50.88629071147544,2,n,0.7273028999989037,correct,n
211,4F4K,212,1,53.18348589806728,40.1194762559373,1.5110009598287557,43.741884705137785,2,n,1.03070149999985,correct,n
212,4F4K,213,2,36.11806055467977,54.08180417877176,1.0596162080276703,56.00084939324912,2,b,1.9519259000007878,correct,b
213,4F4K,214,1,56.25121211754016,40.592258929152045,1.6105309253136069,44.16121229038863,2,n,1.8924927999996726,correct,n
214,4F4K,215,2,59.06045248364681,42.165832234184585,1.7074147818709806,45.55883241370394,1,v,2.0139140999999654,correct,v
215,4F4K,216,1,61.47404555682961,69.85439047309697,1.79529554982541,68.13095825688492,1,n,1.2845767999988311,incorrect,c
216,4F4K,217,1,73.51769295551404,56.13184822535918,2.3062210300725425,57.7252340489448,2,n,0.6729763999992429,correct,n
217,4F4K,218,1,41.16412538099799,57.91784033729248,1.176844545755234,59.19921085650881,1,c,1.5769604999986768,correct,c
218,4F4K,219,1,64.98806676939873,44.76995652732159,1.9313933336431808,47.872985242388246,2,n,1.2056639000002178,correct,n
219,4F4K,220,2,61.31878561700341,46.66256523727104,1.7895087134361467,49.55027159813928,1,v,1.6866303000006155,correct,v
220,4F4K,221,2,47.35626034207871,53.099596072738585,1.3385655688329203,55.163801033187895,2,b,0.8425595000007888,correct,b
221,4F4K,222,2,42.63742503705024,30.385985616628723,1.2134568023271644,35.293462551187574,1,b,1.9218789999995352,incorrect,v
222,4F4K,223,2,60.106481510129015,72.98547166822785,1.7449605801089554,70.14118324835634,2,v,1.7823581000011472,incorrect,b
223,4F4K,224,1,64.49767839307839,45.67575967133813,1.9117983381059824,48.67655133538961,2,c,2.0260101000003488,incorrect,n
224,4F4K,225,2,44.73104485284694,60.864633938751936,1.267452205573073,61.56435617602289,2,b,1.1656401000000187,correct,b
225,4F4K,226,1,45.07582487345516,57.38939084043632,1.2765718554594716,58.76604438698752,1,c,2.5917809000002308,correct,c
226,4F4K,227,2,45.278836782826446,60.52263507516533,1.2819723124233189,61.29450433412276,2,b,1.400150699999358,correct,b
227,4F4K,228,1,47.81190632114548,37.61233205144013,1.3513086068477678,41.52639509715658,2,n,1.8622595999986515,correct,n
228,4F4K,229,1,61.52571383274069,51.30580009407244,1.7972254727574335,53.6193815342054,2,n,1.2552642000009655,correct,n
229,4F4K,230,2,40.79286181119946,32.92224140712782,1.167794040865968,37.44628716552416,1,b,1.928923900000882,incorrect,v
230,4F4K,231,1,57.05564561922165,77.95262392368879,1.6376980312337357,72.98835466634205,1,n,2.165591900000436,incorrect,c
231,4F4K,232,1,70.53583863468795,59.75795076626371,2.1675648528074327,60.68657934707665,2,n,1.7348172000001796,correct,n
232,4F4K,233,2,54.67828803349468,32.0834672282341,1.558705789918852,36.72934782026797,1,v,1.994331100000636,correct,v
233,4F4K,234,1,27.66719051236731,49.34554964976749,0.8888523634405064,51.91200641057012,1,c,2.5857551999997668,correct,c
234,4F4K,235,2,51.12996315773481,57.256497515338495,1.447836703224152,58.65671121747153,2,v,2.3672968999999284,incorrect,b
235,4F4K,236,1,35.87242598750966,51.74187526683799,1.0542176706418709,53.99656036349714,1,c,1.983578800000032,correct,c
236,4F4K,237,1,48.92803750500773,66.6112438677097,1.3830383153912926,65.88867541041216,1,n,2.1316989999995712,incorrect,c
237,4F4K,238,1,39.17631796792071,54.9275114632135,1.12919100298622,56.71611657467509,1,n,1.6133320999997522,incorrect,c
238,4F4K,239,1,40.42948983167476,51.6154354800244,1.159003316751566,53.88730577275934,1,c,0.9628197000001819,correct,c
239,4F4K,240,1,58.45164518225147,46.725736490172615,1.6859355143894166,49.60612918302136,2,n,2.159121299999242,correct,n
240,4F4K,241,2,59.854587965603386,36.69741158116157,1.7358444092233862,40.72263320737381,1,b,1.279016299999057,incorrect,v
241,4F4K,242,2,32.87882204029189,46.02404695292093,0.9905932264874524,48.98515867081033,2,b,1.3780762999995204,correct,b
242,4F4K,243,1,22.859376692026757,44.820311110285125,0.8042864393068656,47.91768722063061,1,c,1.8439483000001928,correct,c
243,4F4K,244,2,36.64792654635716,55.447520081919365,1.0713558846682174,57.15324629092033,2,b,1.4312856999986252,correct,b
244,4F4K,245,1,36.627386648529225,55.39154836238372,1.070898390027898,57.10629654054144,1,c,2.232403500000146,correct,c
245,4F4K,246,1,61.63541073904406,56.81697875219103,1.8013297726464566,58.29399100842068,2,n,1.436242299998412,correct,n
246,4F4K,247,1,41.95612807596836,33.520413341002254,1.196386753722138,37.96029899265302,2,c,2.67076889999953,incorrect,n
247,4F4K,248,2,35.242212457618656,50.37679668895056,1.0404923613422217,52.81250676404385,2,b,2.4461423000011564,correct,b
248,4F4K,249,1,40.69523354729497,57.33591352802107,1.165425680547056,58.72206702184829,1,c,2.183810000000449,correct,c
249,4F4K,250,1,58.196207106856335,52.474808169681694,1.677004096682878,54.6280585123888,2,n,1.7105628999997862,correct,n
250,4F4K,251,1,53.332234089722434,65.00525738368435,1.515681920462644,64.72270023699737,1,n,1.151090599998497,incorrect,c
251,4F4K,252,1,66.24027788177501,45.62826213840807,1.982345372043544,48.63444752881016,2,n,1.121921799998745,correct,n
252,4F4K,253,1,45.20835185737541,64.08520675702229,1.2800947111384748,64.03921936605558,1,c,1.219232199999169,correct,c
253,4F4K,254,1,46.61549421786264,32.43860942559631,1.318104567658556,37.032340557714825,2,c,1.1893877000002249,incorrect,n
254,4F4K,255,1,44.04820143095891,30.097437276530226,1.2495824035752696,35.051546335354686,2,n,0.7505215000001044,correct,n
255,4F4K,256,2,55.23709220517395,44.3791019779502,1.57692360123055,47.52590681125644,1,v,1.7180393999988155,correct,v
256,4F4K,257,2,38.24950172285121,53.64299308179986,1.107636922944218,55.62769997088618,2,b,1.2916672999999719,correct,b
257,4F4K,258,1,46.16383351635584,55.20204602808414,1.305782856317461,56.94715717103018,1,c,1.740813700000217,correct,c
258,4F4K,259,1,52.36241639340544,65.74838256113058,1.4854216304020278,65.26659013469666,1,n,1.964406400000371,incorrect,c
259,4F4K,260,2,44.29612787076786,52.26243299874781,1.2560412423092906,54.44540152699815,2,b,1.6793048999988969,correct,b
260,4F4K,261,2,62.45810930166368,44.28311133418616,1.8324111911903176,47.44064289949476,1,b,1.4009517999984382,incorrect,v
261,4F4K,262,1,47.644586540297325,65.78490327659121,1.3466151455533182,65.29312748029805,1,c,2.871996500000023,correct,c
262,4F4K,263,1,22.68143880125906,44.78263272469455,0.8013159863526742,47.88423875700504,1,c,2.165987700000187,correct,c
263,4F4K,264,2,54.68292773704044,36.55386064732605,1.558856180988094,40.596809786323405,1,v,2.555438499999582,correct,v
264,4F4K,265,1,46.04153230893792,56.94968101958345,1.3024662318913374,58.40368561246928,1,c,2.525082800000746,correct,c
265,4F4K,266,2,37.67752505450717,48.45846535121585,1.0945408139211763,51.13383899538925,2,v,1.516510899999048,incorrect,b
266,4F4K,267,1,59.11395080864716,68.71852167731183,1.7093152803610538,67.36341816233528,1,n,1.2688367000009748,incorrect,c
267,4F4K,268,1,55.23736260828239,46.29618439027635,1.57693246809909,49.22612162917476,2,n,2.3122064000017417,correct,n
268,4F4K,269,1,50.51214959936546,71.05672879979976,1.429355211883505,68.92158686963162,1,n,0.8736017999999603,incorrect,c
269,4F4K,270,2,33.72913005098981,53.940822802860126,1.008264323902379,55.88111007300967,2,b,1.7492173000009643,correct,b
270,4F4K,271,1,56.08197425105742,46.43771540515085,1.604873102206939,49.3513759038366,2,c,2.1852065000002767,incorrect,n
271,4F4K,272,1,31.29513954859189,49.09008565711669,0.9585025575081816,51.688223451611975,1,c,2.2892728999995597,correct,c
272,4F4K,273,1,67.5931105743786,59.55000529935453,2.038903248574776,60.52019835007038,2,n,1.9592530000008992,correct,n
273,4F4K,274,1,51.766049363813096,36.638269231697286,1.4671145115014823,40.67078458091214,2,c,2.2809197999995376,incorrect,n
274,4F4K,275,1,38.5796850992694,52.28752018750262,1.115268092866794,54.46699233851656,1,n,2.5007906000009825,incorrect,c
275,4F4K,276,2,43.26291898772989,30.336650430495546,1.2293430598423507,35.25205375321538,1,v,2.404854799999157,correct,v
276,4F4K,277,1,57.180104725329976,75.16177846159387,1.6419419721614148,71.44218455777384,1,n,1.5275179000000207,incorrect,c
277,4F4K,278,2,51.85397208532516,42.003505310419285,1.469799292851079,45.41456304392978,1,v,1.1838621000006242,correct,v
278,4F4K,279,2,43.73659014894664,60.84505496778734,1.2415115682831324,61.54894214617512,2,v,0.7323498000005202,incorrect,b
279,4F4K,280,1,50.62410753654105,36.11311827508776,1.432686770140181,40.21102262386643,2,c,3.0530402999993385,incorrect,n
280,4F4K,281,2,29.063145583399425,47.36451982579416,0.915032168055434,50.17037356896679,2,b,2.093159600000945,correct,b
281,4F4K,282,1,32.44740887041996,51.47843863274189,0.9817463716690872,53.768828579929085,1,c,2.7325248999986798,correct,c
282,4F4K,283,1,52.428863133598256,67.93738897448917,1.487475487440933,66.82430222951557,1,n,1.6682598000006692,incorrect,c
283,4F4K,284,1,67.87320692180884,58.94902561084108,2.050813369034567,60.03685770235953,2,n,0.7031829000006837,correct,n
284,4F4K,285,2,55.90619195909738,42.07869297512452,1.5990175340217463,45.48138506034415,1,v,1.4254301999990275,correct,v
285,4F4K,286,2,57.92141219440995,41.59419578732184,1.6674486873632657,45.05085624368736,1,v,1.8197087999997166,correct,v
286,4F4K,287,1,49.54609425362004,65.85209094343799,1.4009280160523487,65.34190112734353,1,c,1.9471214999994118,correct,c
287,4F4K,288,1,38.24704161617549,55.28567839995546,1.1075802615872277,57.017424167192125,1,n,1.3477329000015743,incorrect,c
288,4F4K,289,2,63.17328088450558,51.2794874731305,1.8598656713159836,53.59658948727596,1,v,2.0893682000005356,correct,v
289,4F4K,290,1,34.36239070844228,51.398812107685366,1.021629239437455,53.69991883345779,1,c,1.7590091999991273,correct,c
290,4F4K,291,1,30.324456908387884,44.366705882883785,0.9393493480450184,47.51489644566164,1,c,0.654715099999521,correct,c
291,4F4K,292,2,52.20023195606825,67.78389893328419,1.4804204386292137,66.71730948170813,2,v,1.3598710000005667,incorrect,b
292,4F4K,293,2,37.22547351964504,55.50659122167201,1.084300176088796,57.2027689990752,2,b,1.2067391000000498,correct,b
293,4F4K,294,2,52.74727565095191,36.69917439685027,1.4973570411324444,40.72417883603482,1,v,1.5310559000008652,correct,v
294,4F4K,295,2,45.53053193636477,60.4774843211238,1.2886995571517492,61.25878316445464,2,b,1.333149999998568,correct,b
295,4F4K,296,1,53.01756697901955,34.378550833979205,1.5057967070536546,38.7013694048056,2,n,1.4495116999987658,correct,n
296,4F4K,297,1,47.85096067995981,31.701291522277604,1.352406467273988,36.40425131279124,2,c,2.028654199999437,incorrect,n
297,4F4K,298,1,45.25907068174392,30.59272681036745,1.2814454986468,35.4671944888998,2,n,1.3330656999987696,correct,n
298,4F4K,299,2,36.263490399833934,52.585519039041486,1.0628254738929142,54.72316862674654,2,v,1.6740652000007685,incorrect,b
299,4F4K,300,2,52.07365630280842,64.83284408327718,1.4765289967815634,64.59545987488777,2,v,2.434030200000052,incorrect,b
300,4F4K,301,1,44.05255566848268,29.017025257053625,1.249695550666666,34.15177859720744,2,c,3.168353400000342,incorrect,n
301,4F4K,302,1,31.56622378467162,45.6008098857683,0.9639209304967672,48.61011086548879,1,c,2.4401084999990417,correct,c
302,4F4K,303,2,31.04350160162865,41.2294159103681,0.9535001350900104,44.72683108901211,2,b,1.6370047999989765,correct,b
303,4F4K,304,2,41.14176872402446,49.107086768191486,1.1762975653967682,51.70312438296221,2,v,1.4373122000015428,incorrect,b
304,4F4K,305,1,59.94843217720983,72.33002625646489,1.7392351049478196,69.73359610292,1,n,1.6011928999996599,incorrect,c
305,4F4K,306,1,54.76169110228737,72.14865639493546,1.561411427059269,69.61955151020274,1,n,0.6730299999999261,incorrect,c
306,4F4K,307,1,49.77110496643443,33.36231018435836,1.4074982699491578,37.82422868038961,2,c,0.46207270000013523,incorrect,n
307,4F4K,308,1,74.63113953882844,57.33888957607186,2.360241013150474,58.72451507064117,2,n,0.8001150999989477,correct,n
308,4F4K,309,1,55.54233337426148,38.01107169484369,1.586964659964177,41.8775976064457,2,n,1.3341987999992853,correct,n
309,4F4K,310,2,38.84526382258309,49.72309590692911,1.121444259878785,52.24223342492193,2,v,1.1885136000000784,incorrect,b
310,4F4K,311,1,38.9339989200809,58.54836523628731,1.1235154529254212,59.71261880581688,1,c,1.6495983000004344,correct,c
311,4F4K,312,2,42.52238749817506,34.1228705674197,1.2105575148786123,38.48013589787814,1,v,1.1779301999995369,correct,v
312,4F4K,313,2,40.89019625900548,48.75219457597693,1.1701600647420678,51.39183792364149,2,v,0.8729714000000968,incorrect,b
313,4F4K,314,1,31.196438679298364,39.80330783222723,0.9565373185409476,43.461678824159954,1,c,1.5165048999988358,correct,c
314,4F4K,315,2,52.72819052292692,64.05893877109473,1.496762911809325,64.01954507544912,2,b,1.528636600000027,correct,b
315,4F4K,316,1,44.24118252875781,51.53178299025371,1.2546069640441508,53.814974002248704,1,n,2.1534412000000884,incorrect,c
316,4F4K,317,1,70.08786882258532,51.82583608037572,2.147467153248042,54.06905976810607,2,n,1.6072748999995383,correct,n
317,4F4K,318,1,48.52640959300363,63.71339747808253,1.3715358073249435,63.75992502518834,1,n,1.9181786000008287,incorrect,c
318,4F4K,319,1,40.81031636239407,63.665818258208425,1.168217977038421,63.72405868596529,1,n,0.8003270999997767,incorrect,c
319,4F4K,320,2,46.18336978794481,40.668362538072174,1.306313432291898,44.22874340636706,1,v,1.4261389999992389,correct,v
320,4F4K,321,2,36.937189796393326,47.667705519576586,1.0778195750500013,50.43777860435743,2,v,2.002974400000312,incorrect,b
321,4F4K,322,2,28.86643723891951,47.49239584568744,0.911296932996889,50.28319161625703,2,b,0.8247114999994665,correct,b
322,4F4K,323,2,39.89590702585768,22.349069542542736,1.1462146260984167,28.849892264752405,1,v,1.2566743000006682,correct,v
323,4F4K,324,2,63.65840168683909,45.07665466099969,1.8787225832265964,48.14520336837782,1,v,1.2973712000002706,correct,v
324,4F4K,325,1,40.13145269633479,50.711635885623046,1.1518425966515615,53.10383040019233,1,c,3.2484261999998125,correct,c
325,4F4K,326,2,44.47514331182303,52.785713154196365,1.2607255961670385,54.89495999894948,2,v,1.9036908999987645,incorrect,b
326,4F4K,327,2,62.22337425000423,45.52756479571047,1.8234886596212183,48.54517198997736,1,v,1.563595499999792,correct,v
327,4F4K,328,1,47.9012856684501,60.265767348101264,1.353822472638578,61.09098917385957,1,c,2.4935585000002902,correct,c
328,4F4K,329,2,43.99293815521988,61.03519015018156,1.2481472488467835,61.69845138445195,2,v,2.0624447999998665,incorrect,b
329,4F4K,330,2,54.83988097565554,37.93397923569884,1.5639522107277553,41.80965626005115,1,v,0.7091029999992315,correct,v
330,4F4K,331,1,48.51246267483969,56.78368409256904,1.3711380949140115,58.266444756909465,1,n,1.4009117999994487,incorrect,c
331,4F4K,332,1,55.64888420108444,68.29593510814776,1.590484735713367,67.07288438037435,1,n,0.8379236000000674,incorrect,c
332,4F4K,333,1,59.35155710400816,51.09302250044205,1.7177817074936648,53.43496751347354,2,c,0.7214110999993864,incorrect,n
333,4F4K,334,1,52.235201919334415,47.558606330356334,1.4814973621909386,50.34158652371188,2,n,2.013892900000428,correct,n
334,4F4K,335,2,68.0876514414292,47.71050220226504,2.059978875767885,50.47550220554375,1,v,1.466672299999118,correct,v
335,4F4K,336,1,69.58267401686726,53.873356705780616,2.1250255987160926,55.8237599676518,2,n,1.0056119000000763,correct,n
336,4F4K,337,2,48.05009314275764,35.262207013447174,1.358018180930516,39.468623156540566,1,b,1.904649199999767,incorrect,v
337,4F4K,338,2,25.54194575619265,49.009493640393394,0.8504264495538612,51.61757150832419,2,b,0.6860964000006788,correct,b
338,4F4K,339,1,76.71994622363896,56.97547497898744,2.4650183506971604,58.42498951972098,2,n,1.1576475000001665,correct,n
339,4F4K,340,2,67.48165267489601,50.87933500096172,2.034183150719142,53.2495260555924,1,v,1.68152100000043,correct,v
340,4F4K,341,1,34.562760450749465,39.42948556987159,1.025894811106021,43.13063128057819,1,c,1.6012245000001712,correct,c
341,4F4K,342,2,39.91359199887102,53.71033324328246,1.146636222524986,55.68505020472626,2,b,1.910725800000364,correct,b
342,4F4K,343,1,37.9541610837922,48.81910071918376,1.1008552875443771,51.45056045855342,1,c,1.8742963999993663,correct,c
343,4F4K,344,1,60.07209936874925,49.7124988447944,1.7437134550195077,52.232972893797466,2,n,1.0383543999996618,correct,n
344,4F4K,345,2,42.68166676885822,31.31540337703246,1.2145736731400838,36.07704052130722,1,v,1.0732367000000522,correct,v
345,4F4K,346,2,61.16558548358889,47.39259223691536,1.783816933600167,50.19514442067457,1,v,1.7881070999992517,correct,v
346,4F4K,347,1,39.85062033327012,53.99872893230137,1.1451357320632511,55.9303082545296,1,c,1.4992984999989858,correct,c
347,4F4K,348,2,35.425271638420064,49.63207304933037,1.044460656648485,52.16267465994313,2,b,2.0140250000004016,correct,b
348,4F4K,349,1,49.666796411024905,43.35256292451863,1.4044486648765135,46.61372889478789,2,c,2.0685384000007616,incorrect,n
349,4F4K,350,2,52.006276148683625,39.26467576357143,1.4744616350166737,42.98477551228362,1,v,1.8804048000001785,correct,v
350,4F4K,351,1,49.600436926442754,38.56019696642321,1.402511993289495,42.362056454036754,2,n,2.2034043000003294,correct,n
351,4F4K,352,2,58.23076703170637,66.70770426364102,1.6782097145948054,65.95757591834025,2,v,1.1217628000013065,incorrect,b
352,4F4K,353,1,29.11341348502284,43.94514974526941,0.9159891435926228,47.14038435474246,1,c,2.5563392999993084,correct,c
353,4F4K,354,1,71.8957273595351,54.74024412363693,2.2297343233137075,56.55818842910645,2,n,1.3038614999986748,correct,n
354,4F4K,355,2,61.7256417858861,68.55948306787691,1.804712783852744,67.25438987156544,2,v,1.5405032000016945,incorrect,b
355,4F4K,356,2,50.94864648381985,33.61799123185322,1.442388095115969,38.044352757034645,1,v,1.5284005000012257,correct,v
356,4F4K,357,2,47.43298217008844,59.68714977489022,1.3407028014184823,60.6299804949813,2,b,1.0442855000001146,correct,b
357,4F4K,358,2,53.61466189413056,34.50850329786793,1.5246095908706578,38.81394968607803,1,b,1.60867750000034,incorrect,v
358,4F4K,359,1,71.91153287870524,51.03956786573055,2.230467282802951,53.38860092885232,2,n,1.0793384999997215,correct,n
359,4F4K,360,2,40.956638807063726,48.45639769632408,1.1717779149904373,51.13202174289572,2,v,1.4070226999992883,incorrect,b
360,4F4K,361,1,36.763636889452194,61.24921830090345,1.0739368088428605,61.86626682727593,1,n,3.696138700001029,incorrect,c
361,4F4K,362,2,70.87661084630349,57.262226351749305,2.1829791112895607,58.66142769092078,1,v,1.4542295999999624,correct,v
362,4F4K,363,2,43.55990104802499,32.98993451428116,1.236958442368117,37.50434559061318,1,b,1.231291099998998,incorrect,v
363,4F4K,364,1,43.248948321543686,55.98190291069515,1.22898597300405,57.60023055239319,1,c,1.51761389999956,correct,c
364,4F4K,365,1,50.65829091940919,28.929849388582063,1.4337055195451407,34.079608794286095,2,n,0.8425716000001557,correct,n
365,4F4K,366,1,54.79354056545348,38.59193823593836,1.562445878260584,42.390086191616206,2,c,1.1631470000011177,incorrect,n
366,4F4K,367,1,45.73312237025835,64.36567128201833,1.2941399772674995,64.24873191504243,1,n,0.7822197999994387,incorrect,c
367,4F4K,368,1,44.84357241187439,28.040933743895785,1.2704214463561918,33.34755086369697,2,c,1.7483236999996734,incorrect,n
368,4F4K,369,2,55.88608727733833,42.89088611087863,1.5983491803069936,46.20333406063131,1,b,1.2920031000012386,incorrect,v
369,4F4K,370,1,44.90371271927779,60.55044940718125,1.2720112070859628,61.31649873278587,1,n,1.1217931999999564,incorrect,c
370,4F4K,371,2,68.6502357900241,44.16086079689392,2.084219283822041,47.33204143043493,1,v,1.0550457000008464,correct,v
371,4F4K,372,2,49.43584804344411,64.12655436745774,1.3977200594149934,64.0701702063309,2,b,0.8061818000005587,correct,b
372,4F4K,373,2,41.60827187090878,62.352124060528766,1.1877639542606084,62.722748420790175,2,b,0.723651799999061,correct,b
373,4F4K,374,2,61.43967146114836,40.26361929470226,1.7940127504306052,43.86969173201234,1,v,0.733231700000033,correct,v
374,4F4K,375,2,51.95628123836356,65.5261105146883,1.4729295592038527,65.10468841326998,2,b,0.8248386000013852,correct,b
375,4F4K,376,2,31.87731800981633,47.71829696385073,0.9701767694994232,50.48237237142831,2,v,0.7020634999989852,incorrect,b
376,4F4K,377,2,71.50201463508809,59.30862677210787,2.21155395368116,60.32650870295198,1,v,1.0503556999992725,correct,v
377,4F4K,378,2,44.521126419654784,33.27441992020114,1.2619316682288957,37.74865153226684,1,b,1.8004842000009376,incorrect,v
378,4F4K,379,1,39.96876411028149,29.313292307603422,1.1479524808412898,34.39753661355411,2,n,0.8171035000013944,correct,n
379,4F4K,380,2,57.24277960209743,69.68004084248274,1.6440832895570965,68.0144298348213,2,v,2.086762799999633,incorrect,b
380,4F4K,381,1,24.69788808501237,43.08420817721292,0.8356302605461124,46.37518656644679,1,c,1.7104385999991791,correct,c
381,4F4K,382,2,39.37011800228623,56.762290804554425,1.1337507774588496,58.24873998281452,2,v,1.7892812999998569,incorrect,b
382,4F4K,383,2,56.87300888166391,48.91254519080872,1.631490137738584,51.5325466917191,1,v,1.5350698000002012,correct,v
383,4F4K,384,2,53.16146508731521,41.06523795897836,1.5103092159408682,44.58103931932308,1,b,1.7603739999995014,incorrect,v
384,4F4K,385,1,57.409322681149085,42.02829811645028,1.649786893421195,45.436596984459854,2,c,1.991007599999648,incorrect,n
385,4F4K,386,2,67.21510374913639,55.50747812817973,2.0229394138722685,57.20351233252367,1,b,1.2315999999991618,incorrect,v
386,4F4K,387,2,46.26341764632748,58.155859956493295,1.308489664972069,59.39346478248704,2,v,1.4812380999992456,incorrect,b
387,4F4K,388,2,65.93872612143092,48.31279977745433,1.969953783778085,51.00577703188588,1,v,1.7650484000005235,correct,v
388,4F4K,389,2,52.57186523083464,38.87057630337525,1.4919052945824265,42.63625883537677,1,b,1.911096699999689,incorrect,v
389,4F4K,390,1,41.16898581140284,51.557223389744365,1.1769634952196275,53.83697564438317,1,c,2.3915751999993518,correct,c
390,4F4K,391,1,54.38164761872639,39.491174777785126,1.5491205628025273,43.18524140559079,2,n,1.9292111000013392,correct,n
391,4F4K,392,2,60.51028868970758,72.51044048490178,1.7596745891804575,69.84649987883373,2,v,1.2613511000017752,incorrect,b
392,4F4K,393,2,41.007089651828736,55.29682643969876,1.173007867364053,57.02678650814179,2,b,1.424195999999938,correct,b
393,4F4K,394,2,41.45166007292794,34.387259245144136,1.183902113591302,38.7089108345586,1,b,0.5334817000002658,incorrect,v
394,4F4K,395,2,47.3868885353515,32.07284242296284,1.3394183665946626,36.72029626694058,1,b,0.7104834000001574,incorrect,v
395,4F4K,396,1,38.74941393489506,53.11582339594157,1.1192112878499254,55.17768254878892,1,c,2.003151399998387,correct,c
396,4F4K,397,2,38.06516292271723,27.712790522308545,1.1033992367861567,33.079131559717474,1,v,1.9838660999994318,correct,v
397,4F4K,398,1,63.20352714578936,54.34067176724479,1.861035807950408,56.220344827908576,2,n,2.772742200000721,correct,n
398,4F4K,399,1,57.54111637224418,69.17754568435271,1.6543144556674254,67.67596386513469,1,n,1.073591899999883,incorrect,c
399,4F4K,400,2,37.997933032351824,59.5630464877985,1.1018577554875864,60.53064598900245,2,b,2.2871317000008275,correct,b
