,condition,trial,sub_task,x,y,xt,yt,cat,resp,rt,acc,correct_resp
0,4F4K,1,1,61.51259277057624,37.931049902305446,1.7967351759920764,41.64921977970167,2,c,4.56887729999994,incorrect,n
1,4F4K,2,2,38.48132383089379,53.70911540788228,1.1129892937423176,55.39554214533285,2,v,3.763106099999959,incorrect,b
2,4F4K,3,1,56.09225677380097,42.73682367038771,1.605216291337039,45.86843464463616,2,n,2.379407800000081,correct,n
3,4F4K,4,1,58.06045947751383,49.9808282063684,1.6722769369692567,52.20911237868939,2,n,2.318865000000187,correct,n
4,4F4K,5,1,58.41433957293913,71.15752221443432,1.6846281598717447,68.57314074680549,1,n,1.38888350000002,incorrect,c
5,4F4K,6,1,38.78682784190431,25.581909236705798,1.1200823734037826,31.302113262723584,2,n,5.0,incorrect,n
6,4F4K,7,2,62.663780689518575,52.10178622325467,1.8402648595788813,54.031544691104806,1,b,2.4704349000001002,incorrect,v
7,4F4K,8,1,49.90081048689199,39.43096070192678,1.4112996286892634,42.9616116110827,2,n,1.798273399999971,correct,n
8,4F4K,9,2,69.54661951395659,45.228469846602,2.123432995450333,48.061122163152966,1,b,1.6185461000000032,incorrect,v
9,4F4K,10,1,66.7179245108932,46.480764677404295,2.002132890309764,49.160241188757226,2,n,1.1884798000000956,correct,n
10,4F4K,11,1,52.151244941346754,72.88896632342954,1.4789131667985371,69.6576364871297,1,c,1.8560414000000947,correct,c
11,4F4K,12,1,39.7240139589897,60.87813855124926,1.1421248919428002,61.23106576447415,1,n,1.7407290000001012,incorrect,c
12,4F4K,13,2,48.43376855625479,64.71812666800233,1.368896201828709,64.13903144679308,2,v,1.431250799999816,incorrect,b
13,4F4K,14,1,48.85253886614762,64.91748272683972,1.3808687178307906,64.28503379064763,1,n,1.310073599999896,incorrect,c
14,4F4K,15,2,54.03854866471573,73.52789294783409,1.538107629640003,70.04536508726319,2,b,1.5343794999998863,correct,b
15,4F4K,16,1,51.60044155614358,33.19322690668726,1.462070872929698,37.5598762901058,2,n,1.4557044999999107,correct,n
16,4F4K,17,2,43.13705902374091,54.88388354163271,1.226129849010672,56.38150780646884,2,b,1.783217299999933,correct,b
17,4F4K,18,2,53.94515093499504,67.26652671036139,1.535123291031978,65.96524255405741,2,b,2.124474599999985,correct,b
18,4F4K,19,1,41.98665584481405,34.50307340827203,1.197146469647293,38.6796055389113,2,n,1.2066859000001386,correct,n
19,4F4K,20,1,33.657705561154394,44.50955513962965,1.006767930483441,47.42899362001183,1,n,1.6557368999999653,incorrect,c
20,4F4K,21,1,54.73279110622376,69.91579256629845,1.5604733654494816,67.76587241621519,1,n,2.421872300000132,incorrect,c
21,4F4K,22,1,41.525569715663046,60.40612529452692,1.185723060956777,60.86187052787642,1,n,2.488656100000071,incorrect,c
22,4F4K,23,2,28.743204306084397,40.124811758657984,0.9089646723972714,43.57050383670048,2,b,1.531199499999957,correct,b
23,4F4K,24,2,53.124340750598215,34.93019217125756,1.509143739043901,39.04675062114936,1,b,2.16702209999994,incorrect,v
24,4F4K,25,2,43.059481726024174,61.31321678882536,1.2241534820773654,61.56921418221096,2,b,1.825703699999849,correct,b
25,4F4K,26,1,45.57943440849209,61.080510959832566,1.2900107001033658,61.38861253305193,1,n,1.7528674000000137,incorrect,c
26,4F4K,27,1,60.95792991846201,54.23592285779273,1.7761308827782414,55.83890151804727,2,n,1.7346987999999328,correct,n
27,4F4K,28,2,62.715009848377605,47.0505793405352,1.8422263022421472,49.65923793271212,1,v,1.8006011999998464,correct,v
28,4F4K,29,1,56.54018785401424,67.73880858963149,1.6202378726273392,66.29378840369176,1,n,1.2613911999999345,incorrect,c
29,4F4K,30,2,30.694075857623865,46.81889435888965,0.9465970136409252,49.45644499688395,2,v,2.026130100000046,incorrect,b
30,4F4K,31,2,55.06289953667241,42.29603322965015,1.5712219464250357,45.48030048330471,1,v,2.294360900000129,correct,v
31,4F4K,32,2,60.57186868401429,45.62154886324392,1.7619293309683015,48.40643478030971,1,v,1.164185100000168,correct,v
32,4F4K,33,1,45.277244707972656,31.82003734081882,1.2819298718096164,36.39720228896153,2,n,1.7406897999999273,correct,n
33,4F4K,34,1,47.78394932300861,65.15441213372846,1.350523252660006,64.45787824486902,1,c,2.2024487999999565,correct,c
34,4F4K,35,1,37.50694071819639,56.424073884220775,1.0906651350173506,57.658339935702,1,n,1.5282353000000057,incorrect,c
35,4F4K,36,2,60.60131220558984,45.23471166222331,1.7630084215721966,48.06660740531029,1,v,1.8741933999999674,correct,v
36,4F4K,37,1,43.64978059169843,56.39789660840323,1.239272470281478,57.63679928785397,1,c,1.4797733000000335,correct,c
37,4F4K,38,2,45.78569830885044,33.32567201027809,1.2955556159755597,37.6726473761181,1,v,1.642638899999838,correct,v
38,4F4K,39,1,61.18161544377298,39.32933646903475,1.7844116389238278,42.87251374663036,2,n,1.12084579999987,correct,n
39,4F4K,40,2,55.23160427770914,45.55480865660373,1.5767436557468009,48.347822831884166,1,v,2.415633699999944,correct,v
40,4F4K,41,2,54.86669936837104,40.178178101685205,1.5648246275734776,43.61737306238142,1,v,2.0074839999999767,correct,v
41,4F4K,42,2,29.706053327120223,43.83817214475947,0.9273472692963812,46.83816341153071,2,b,1.280157600000166,correct,b
42,4F4K,43,2,49.736906941826064,71.56629768818348,1.406497714421429,68.83356012242719,2,b,2.167850699999917,correct,b
43,4F4K,44,2,47.85350461007313,37.83092712996197,1.3524780108457093,41.56184110016702,1,v,1.006575600000133,correct,v
44,4F4K,45,2,37.445960590747454,51.43402039659576,1.0892829978359635,53.460309950472535,2,b,1.4736078999999336,correct,b
45,4F4K,46,2,79.76607253119522,63.98741657085749,2.6262098046141062,63.599507268148464,1,b,2.179081799999949,incorrect,v
46,4F4K,47,1,28.28548124622366,45.94691089745323,0.9003541138028252,48.692055507154194,1,n,2.0648828999999296,incorrect,c
47,4F4K,48,2,47.12372252825429,32.41087064881072,1.332108575159238,36.89595439118687,1,b,1.9910343999999895,incorrect,v
48,4F4K,49,2,48.582494009150736,65.12358094840546,1.3731362839670465,64.4354280532803,2,b,1.673978199999965,correct,b
49,4F4K,50,2,35.96254808028108,45.46315112167433,1.056195165125979,48.26731580980263,2,v,0.8910514999997758,incorrect,b
50,4F4K,51,1,28.16085726142461,46.43238099782432,0.8980238821850479,49.11783466919317,1,n,2.8224193999999443,incorrect,c
51,4F4K,52,2,46.5751391445448,33.70626336320292,1.3169989307884022,37.99728366329112,1,b,2.5554385000000366,incorrect,v
52,4F4K,53,1,65.32085565932168,48.653925148403474,1.9448052186462488,51.05829856505135,2,c,1.388717700000143,incorrect,n
53,4F4K,54,1,42.46078859512,54.03012591872193,1.209007888483762,55.66593350385889,1,n,2.3555295999999544,incorrect,c
54,4F4K,55,2,54.94886567899072,71.62479529943363,1.567500572961957,68.87060808942273,2,v,2.1790693000002648,incorrect,b
55,4F4K,56,2,38.853014831270926,46.68663943729856,1.1216250262465248,49.340621729861496,2,b,2.7207234000002245,correct,b
56,4F4K,57,2,58.9686630518473,45.99745141683716,1.7041589345606216,48.73640465401157,1,b,1.4995401999999558,incorrect,v
57,4F4K,58,1,55.12125854424378,64.44141953755195,1.5731298468030157,63.93552659981338,1,n,1.6739410000000134,incorrect,c
58,4F4K,59,2,46.887828749628994,58.83382681290252,1.3255902188596345,59.61522778219752,2,v,2.2274388999999246,incorrect,b
59,4F4K,60,2,49.89740386140024,63.15652500415517,1.4111996574783474,62.97785671513115,2,b,1.5346301999998104,correct,b
60,4F4K,61,2,50.50981860393896,64.83810950548919,1.4292859303038403,64.22696522484887,2,b,1.1701757000000725,correct,b
61,4F4K,62,2,55.11699486475492,64.23745637611592,1.5729903781570058,63.78489230869669,2,b,1.1511324000002787,correct,b
62,4F4K,63,2,41.099087426369714,60.19453212602173,1.1752540260763318,60.69559255271988,2,b,1.5647527000000991,correct,b
63,4F4K,64,1,42.3543973008389,34.764402119140534,1.2063361027501165,38.90412891443628,2,n,1.58293569999978,correct,n
64,4F4K,65,2,48.70536638809077,34.524902243933795,1.3766492145489395,38.69834640717854,1,b,2.1487530999997944,incorrect,v
65,4F4K,66,2,39.19385932847473,29.8560846929508,1.129602964466346,34.757340830844825,1,v,1.7224906999999803,correct,v
66,4F4K,67,2,61.20915512238408,74.33240597331637,1.785433813302047,70.52379027829252,2,b,1.473734400000012,correct,b
67,4F4K,68,2,42.918355881742485,53.31754411862856,1.2205663113223724,55.06477089284044,2,v,1.2431083000001308,incorrect,b
68,4F4K,69,2,47.81619954345814,60.63135144217728,1.351429250373987,61.038336331807606,2,b,1.5951000999998541,correct,b
69,4F4K,70,2,38.626762105838566,53.9299673543064,1.1163604066770456,55.58164496333682,2,b,1.1450540000000728,correct,b
70,4F4K,71,2,58.08413729191708,45.31750029650389,1.6731005125258995,48.13935555641376,1,b,1.8854427000001124,incorrect,v
71,4F4K,72,1,50.32348705304448,34.44091502401585,1.4237586545237193,38.62625401672864,2,n,2.037676100000226,correct,n
72,4F4K,73,1,41.96842524157573,28.911253904779382,1.196692723732966,33.979246848200006,2,n,1.1581328999996003,correct,n
73,4F4K,74,1,49.891278512471246,61.77913147315612,1.4110199201206206,61.928982017876464,1,c,1.765021600000182,correct,c
74,4F4K,75,2,68.2319108210961,54.76972757573251,2.0661676565837004,56.2861367239948,1,v,1.813660499999969,correct,v
75,4F4K,76,2,52.27136143955295,39.67354849735579,1.482611742794851,43.17438730600157,1,b,1.5768427000002703,incorrect,v
76,4F4K,77,1,64.5990444981914,52.59319697731438,1.9158323701993272,54.45027250858324,2,c,1.9788519999997334,incorrect,n
77,4F4K,78,1,58.0665132179092,39.61301326224545,1.6724874631174846,43.12127986318367,2,n,1.1874173000001065,correct,n
78,4F4K,79,1,45.59709500188267,32.98164508008386,1.2904845328460968,37.37994532877291,2,n,1.0185265000000072,correct,n
79,4F4K,80,2,22.43858353744521,32.93772203565536,0.7972795147207393,37.342627397641216,2,b,1.8801573000000644,correct,b
80,4F4K,81,1,55.41286791436232,40.06667079589172,1.5826980452565216,43.51944691578267,2,n,2.0879486999997425,correct,n
81,4F4K,82,2,57.418068643857694,70.14246771969135,1.6500869627996022,67.91503320920663,2,v,1.4008622000001196,incorrect,b
82,4F4K,83,2,42.99982164778539,51.32731713945318,1.2226357432577497,53.36880353846978,2,b,1.4372185000001991,correct,b
83,4F4K,84,1,57.99996999331175,74.94920421663919,1.6701747967148723,70.88308891915358,1,c,1.697025300000405,correct,c
84,4F4K,85,2,38.02620246943218,45.33973105906645,1.102505669040741,48.15888839318298,2,b,1.1277814999998554,correct,b
85,4F4K,86,2,58.0385423927513,40.3515190078111,1.6715149654450483,43.76964345224086,1,b,2.001697900000181,incorrect,v
86,4F4K,87,2,25.20433138500061,36.03369147673237,0.8444769448707655,39.99940783003914,2,v,2.1184477000001607,incorrect,b
87,4F4K,88,1,42.54430177889672,55.44071106811742,1.2111092851798375,56.84528963714232,1,n,2.1600302000001648,incorrect,c
88,4F4K,89,1,45.82166218860674,32.16846197070467,1.2965248568420245,36.69104146415699,2,n,0.8743086999998013,correct,n
89,4F4K,90,2,49.52909486115571,41.8063782581342,1.400432886122966,45.04922281279146,1,b,1.237188900000092,incorrect,v
90,4F4K,91,2,61.7685366666258,53.60913138901712,1.8063232588222016,55.31118040592186,1,b,2.154695599999741,incorrect,v
91,4F4K,92,2,41.40474044729921,51.27555697212697,1.1827475836404189,53.32439320199577,2,v,1.7892730000003212,incorrect,b
92,4F4K,93,1,30.85001044992696,46.72501222481158,0.9496714012423428,49.37423144107368,1,n,2.8042944000003445,incorrect,c
93,4F4K,94,1,55.41945753359782,42.63810238550428,1.5829149329238663,45.78150325580186,2,n,1.0928266000000804,correct,n
94,4F4K,95,2,51.81168744086892,55.87956755444917,1.468507489184447,57.20910782484291,2,b,1.9837600000000748,correct,b
95,4F4K,96,2,48.168672367810565,61.42932015840896,1.3613708945324483,61.659095446683146,2,b,1.3829616000002716,correct,b
96,4F4K,97,1,50.86267567305951,68.84271857354673,1.4398118230273949,67.04909522977482,1,n,2.0699193000000378,incorrect,c
97,4F4K,98,2,35.55741025469412,56.59531020810456,1.0473345149945053,57.7991035448263,2,b,1.5090162999999848,correct,b
98,4F4K,99,1,30.35187019051297,37.7802376361722,0.939884970380596,41.51761574752658,1,n,1.0602171000000453,incorrect,c
99,4F4K,100,2,30.033072029552542,42.67932182543756,0.9336748716303171,45.81779988955503,2,b,1.7771394999999757,correct,b
100,4F4K,101,1,67.95082579026882,46.581806044163145,2.054126134530696,49.24878277356555,2,n,1.6010393000001386,correct,n
101,4F4K,102,2,73.26752052595356,57.548569626800536,2.294254783742331,58.57808102296996,1,v,2.025962299999719,correct,v
102,4F4K,103,2,21.69475766349079,32.43685536857204,0.7850425354833847,36.91794277811534,2,b,1.2385399999998299,correct,b
103,4F4K,104,2,33.6305736440785,54.492649365246194,1.0062000799176114,56.05425203761385,2,v,1.169235899999876,incorrect,b
104,4F4K,105,2,33.48491992290005,47.86290236808716,1.0031571277782343,50.36908008805205,2,b,1.200514099999964,correct,b
105,4F4K,106,2,56.256898233202406,40.64078680333899,1.6107213648648504,44.023854182399,1,b,2.3055131999999503,incorrect,v
106,4F4K,107,2,54.91075868558656,44.34106403680197,1.5662589576780857,47.28075514836033,1,v,1.4242785000001277,correct,v
107,4F4K,108,1,65.10558929743974,48.17500357567878,1.9361190684204308,50.64126859445529,2,n,1.9592047000001003,correct,n
108,4F4K,109,1,21.79000559494942,34.32806196169678,0.7865989512270932,38.52944293022588,1,n,2.3187345999999707,incorrect,c
109,4F4K,110,1,70.76639800616076,58.343564311773065,2.177981863041624,59.221451322384375,2,n,1.7650211999998646,correct,n
110,4F4K,111,2,57.7816467933032,41.43797327178218,1.6626095503540772,44.72499166429356,1,b,2.3370638000001236,incorrect,v
111,4F4K,112,2,56.86011798230559,73.6270134437424,1.6310528611970316,70.10490223181421,2,v,1.5868075000003046,incorrect,b
112,4F4K,113,1,36.30822233071347,52.575130773482464,1.0638145468243785,54.434904115882695,1,n,1.7346143999998276,incorrect,c
113,4F4K,114,1,36.94424233710677,50.84740451968677,1.077977652612409,52.956500405239865,1,c,1.79550670000026,correct,c
114,4F4K,115,1,54.75086156810468,41.7121339502887,1.5610598464241794,44.96626902174079,2,n,1.2435515000001942,correct,n
115,4F4K,116,1,35.96695836403395,47.715474961461645,1.0562920324579002,50.240397537362846,1,n,1.0306697999999415,incorrect,c
116,4F4K,117,2,66.03685209946836,51.08528753771446,1.9739775237746529,53.1610201194988,1,b,2.4279986000001372,incorrect,v
117,4F4K,118,1,53.80066289903927,40.63763806511286,1.5305178672507922,44.02108638439578,2,n,1.624412200000279,correct,n
118,4F4K,119,1,42.650969777424784,27.162945547638905,1.2137986265879217,32.56015219274957,2,c,2.9851918999997906,incorrect,n
119,4F4K,120,1,59.457569400024,47.15557260443765,1.7215726719378148,49.75109152383321,2,n,1.4508655999998155,correct,n
120,4F4K,121,1,74.43991109293741,57.641781882049074,2.3508741889859404,58.65381753788796,2,n,1.8620950999998058,correct,n
121,4F4K,122,2,45.594124169966605,63.19283337959656,1.2904048134159127,63.00519923688741,2,v,1.5465260999999373,incorrect,b
122,4F4K,123,2,48.18386783676337,61.71241473634495,1.3618011296940404,61.8776159142348,2,b,2.31771099999969,correct,b
123,4F4K,124,1,47.51524525668472,65.4877440687554,1.3429981874850847,64.69979582036541,1,c,1.5951279999999315,correct,c
124,4F4K,125,2,46.19665650855503,58.15175609976302,1.3066744029556907,59.06676537207737,2,b,1.8855192000000898,correct,b
125,4F4K,126,2,39.98472022840191,53.05825919306741,1.1483334325451948,54.8451902734408,2,b,1.8978439000002254,correct,b
126,4F4K,127,1,59.66571248587145,66.35554781538795,1.7290401552971797,65.32260752943142,1,n,1.8985426000003827,incorrect,c
127,4F4K,128,1,46.96764911650372,37.74143811596447,1.3277922841980403,41.48376969402359,2,c,2.3975946000000476,incorrect,n
128,4F4K,129,2,32.34814888399984,42.59051277177454,0.979722084577666,45.739597530750665,2,b,2.46583180000016,correct,b
129,4F4K,130,1,58.02868839792759,67.41179520543588,1.6711724936418917,66.0666392218284,1,n,2.1656809999999496,incorrect,c
130,4F4K,131,2,51.90092689377696,70.79357306768549,1.4712351024830317,68.3390393125402,2,v,1.886413900000207,incorrect,b
131,4F4K,132,2,51.83175956384521,64.45848255656745,1.4691205546157398,63.9481041474364,2,v,1.9167382999999063,incorrect,b
132,4F4K,133,1,48.47175082648887,63.038288639425154,1.369977809283551,62.88870622704914,1,n,1.9971074999998564,incorrect,c
133,4F4K,134,1,43.71575414053076,57.12677118670107,1.2409737718345015,58.23438509407033,1,n,1.9363897000002908,incorrect,c
134,4F4K,135,2,38.50583314896536,51.96971734646814,1.113556681035913,53.91876731848801,2,b,1.7711223999999675,correct,b
135,4F4K,136,1,45.72632969495,63.2820614192555,1.2939571932776217,63.072325377822,1,n,2.086618499999986,incorrect,c
136,4F4K,137,1,56.26528659083647,43.69065164875191,1.6110023490979324,46.7082980531784,2,n,1.1884763999996721,correct,n
137,4F4K,138,2,62.125818324234274,54.47844084177316,1.8197932464476991,56.042345889415294,1,v,2.464336699999876,correct,v
138,4F4K,139,1,65.32014230443117,55.34059394905682,1.9447763700125844,56.7620780856292,2,n,1.2612930000000233,correct,n
139,4F4K,140,1,63.72020765670882,49.18222700586881,1.8811387055007305,51.51734751381824,2,n,1.139884599999732,correct,n
140,4F4K,141,2,76.58132008402825,56.00961675829512,2.4579227986039576,57.316623437838565,1,v,2.2397840999997243,correct,v
141,4F4K,142,1,23.67145532442735,40.51226744502984,0.8179835071232907,43.91089491903632,1,c,3.1637557999997625,correct,c
142,4F4K,143,1,42.25406848107992,57.60571889300817,1.2038219723842,58.624525127306455,1,c,2.0106455999998616,correct,c
143,4F4K,144,2,31.768175481050264,41.72367562297502,0.967977396623993,44.976427658969385,2,b,2.3937114000000292,correct,b
144,4F4K,145,1,49.62012166849383,29.166637879980883,1.403086204829279,34.188823269393275,2,n,1.38264479999998,correct,n
145,4F4K,146,1,55.7117709956437,32.72275945144786,1.5925659637748584,37.16016493020219,2,n,1.41300769999998,correct,n
146,4F4K,147,2,49.18683428372295,54.95910756915633,1.3905012373802572,56.44430002354745,2,b,3.021749699999873,correct,b
147,4F4K,148,1,39.163551402081815,47.38971210338621,1.1288912727411955,49.95581955496298,1,c,2.3246924999998555,correct,c
148,4F4K,149,2,23.75271276810526,43.63546748601756,0.8193668230716818,46.659715210972486,2,v,2.8033441999996285,incorrect,b
149,4F4K,150,2,39.10143530344773,51.23358191799508,1.127434061374142,53.28836807369319,2,b,1.3476955000000999,correct,b
150,4F4K,151,2,43.39257642270172,65.27049962249568,1.2326620260330892,64.5422965674011,2,b,2.122148499999639,correct,b
151,4F4K,152,1,47.56149469132857,64.55039590840985,1.3442904103590088,64.01579128936395,1,n,2.2883787000000666,incorrect,c
152,4F4K,153,2,21.00196861960899,36.02849249638144,0.7738141732072874,39.99490654435018,2,v,2.445428499999707,incorrect,b
153,4F4K,154,2,57.10400801884415,46.55203828054999,1.639345839891422,49.22270004763557,1,v,2.0397398999998586,correct,v
154,4F4K,155,2,48.43881451254471,63.912753484026624,1.369039844510047,63.54399742043955,2,v,2.7729237999997167,incorrect,b
155,4F4K,156,2,37.87132885497928,50.55172805612088,1.0989607538888666,52.70189619194374,2,v,1.864904000000024,incorrect,b
156,4F4K,157,1,59.17960856722006,44.51698690814072,1.711650627531548,47.43553142486496,2,n,1.2311586000000716,correct,n
157,4F4K,158,2,55.09858645360015,70.97455872879704,1.5723883650205444,68.4557163063413,2,b,2.318749200000184,correct,b
158,4F4K,159,1,47.593883690838055,41.27683102166332,1.3451961087753816,44.58320793934526,2,n,1.8257456000001184,correct,n
159,4F4K,160,2,51.30603953193796,35.20941856150991,1.4531475367837754,39.287265754310006,1,b,2.482592400000158,incorrect,v
160,4F4K,161,1,20.910138408994044,33.08611957747328,0.7723379419815705,37.46875699308196,1,c,2.3003091000000495,correct,c
161,4F4K,162,1,41.06210557723006,51.60926043114964,1.174350584428944,53.61045820813378,1,n,1.9167778999999427,incorrect,c
162,4F4K,163,2,56.62368119856501,40.41990876358214,1.6230533654077082,43.82973342301533,1,b,1.644557900000109,incorrect,v
163,4F4K,164,1,63.27169032388226,49.59311269754775,1.863675535470196,51.87360415401567,2,n,1.03067800000008,correct,n
164,4F4K,165,1,61.45963540797942,49.07396148197664,1.7947576689904807,51.42336208059391,2,n,0.9639907000000676,correct,n
165,4F4K,166,2,69.08443559764316,49.138465154742605,2.103122766990432,51.47936340336101,1,v,1.7953301000002284,correct,v
166,4F4K,167,2,40.61265978735935,36.11868176619191,1.1634262765524497,40.073009035431376,1,b,2.0502354999998715,incorrect,v
167,4F4K,168,2,42.34382369126004,36.95310765731219,1.206070892339541,40.79719301030066,1,v,1.394598699999733,correct,v
168,4F4K,169,1,72.77072623254134,57.19939689793229,2.270675878256159,58.29367607782017,2,n,0.903085099999771,correct,n
169,4F4K,170,1,28.56282604300376,36.95428863304026,0.9055616587846425,40.798219890080254,1,c,2.2034505999999965,correct,c
170,4F4K,171,2,48.85592089929961,25.792816771798996,1.380965834155584,31.468460543541525,1,v,2.537152800000058,correct,v
171,4F4K,172,1,66.23455956771095,75.50914882544942,1.9821096673553849,71.20356023141065,1,c,2.787474800000382,correct,c
172,4F4K,173,1,20.9740002770152,35.23307130011976,0.773364265075255,39.3076568183902,1,c,3.253286399999979,correct,c
173,4F4K,174,1,35.91299835941235,55.92271799121167,1.055107466992929,57.244796827526784,1,n,1.394812600000023,incorrect,c
174,4F4K,175,1,38.72434919649011,61.347689822618754,1.1186280995532512,61.5959171984649,1,c,1.1394315999996252,correct,c
175,4F4K,176,2,61.33350892075018,51.22373541969249,1.790056677766418,53.27991595905195,1,b,2.404610500000217,incorrect,v
176,4F4K,177,1,45.46473965254267,57.23384762376443,1.286937677218234,58.32178501136142,1,c,1.9838866999998572,correct,c
177,4F4K,178,2,65.74498777954554,48.44200741133764,1.9620334440604392,50.873867018190005,1,v,2.2103400000000875,correct,v
178,4F4K,179,2,51.7630256660187,36.78313658879042,1.467022268068313,40.6494549985608,1,v,1.61319739999999,correct,v
179,4F4K,180,2,49.599501283306914,37.66348030036709,1.402484706068357,41.415779419211866,1,v,0.8197257000001628,correct,v
180,4F4K,181,1,45.0262798266869,56.03654087097573,1.2752573314438973,57.33886520279778,1,c,2.2580548000000817,correct,c
181,4F4K,182,1,43.89845732813856,56.53528109279712,1.2456974542502863,57.74978529001385,1,c,1.0428056999999171,correct,c
182,4F4K,183,2,57.987235057943785,44.3535681114035,1.6697325670375152,47.29175719153216,1,v,3.1147516999999425,correct,v
183,4F4K,184,1,39.24570177245709,53.71354066132916,1.1308213707196038,55.39927439811493,1,c,2.1837681000001794,correct,c
184,4F4K,185,2,47.59329870941703,56.64737326200832,1.3451797454430867,57.84185227710872,2,b,2.1185092000000623,correct,b
185,4F4K,186,1,46.78866382346362,66.5052485007331,1.3228595665708471,65.42900582747126,1,c,1.8502260000000206,correct,c
186,4F4K,187,1,50.62886274940119,39.89806259687711,1.432828443893809,43.37141673188326,2,n,1.6438832000003458,correct,n
187,4F4K,188,2,40.697898252841966,26.69209422136777,1.1654902597317558,32.18287271024928,1,b,1.6982419000000846,incorrect,v
188,4F4K,189,1,46.5674971053506,63.82177804679174,1.3167896608280134,63.476265257579655,1,n,1.6861478000000716,incorrect,c
189,4F4K,190,2,53.79273827310946,43.62373596138495,1.530265677107704,46.64938685383727,1,v,1.9545818999999938,correct,v
190,4F4K,191,1,39.85549040868352,53.67352726864365,1.1452517062562528,55.36552232507747,1,c,1.631431600000269,correct,c
191,4F4K,192,1,46.64389536214816,62.207870635533006,1.3188832506151733,62.25785325001408,1,c,2.239999599999919,correct,c
192,4F4K,193,2,43.59497219146221,55.98300158334034,1.2378608652982606,57.29463106522064,2,b,2.6221968999998353,correct,b
193,4F4K,194,2,46.03086146378546,61.87411966362412,1.3021772545286323,62.00202687765968,2,b,1.0672641000001022,correct,b
194,4F4K,195,2,70.46417433469831,51.387592339377655,2.1643371159403446,53.420501765569526,1,v,1.7649817999999868,correct,v
195,4F4K,196,2,52.62872294819901,72.86541003986372,1.4936702516869491,69.64321136082789,2,b,1.7650195000001077,correct,b
196,4F4K,197,2,50.34547460769829,61.87770446510884,1.4244097719401614,62.00478152467139,2,b,1.2675106000001506,correct,b
197,4F4K,198,2,57.040249722560354,44.63303692100133,1.6371738083048333,47.53761410784129,1,v,1.5162086000000272,correct,v
198,4F4K,199,1,58.85302336605272,45.23640821764644,1.7000659354150496,48.068098310259856,2,n,1.9834875999999895,correct,n
199,4F4K,200,2,60.791864448222185,43.485623496628754,1.770008064408021,46.52778877631216,1,v,1.3583742000000711,correct,v
200,4F4K,201,2,41.98444844602946,37.669858061112606,1.197091520009175,41.42134098363029,1,v,3.2955846999998357,correct,v
201,4F4K,202,2,70.50320597220278,52.93306912355381,2.166094491782236,54.73901594025767,1,v,1.5783629000002293,correct,v
202,4F4K,203,1,44.36808276199358,32.177827921663614,1.257922013162289,36.69895144137397,2,n,2.2459091999999146,correct,n
203,4F4K,204,1,25.15856206573708,40.58505203074576,0.8436735994664379,43.97486439095405,1,c,1.856294700000035,correct,c
204,4F4K,205,2,58.848162014588304,73.36233632257739,1.699894086200758,69.94555405275918,2,b,2.252001399999699,correct,b
205,4F4K,206,1,51.411107644226576,71.60043946663468,1.4563258878928365,68.85518963899753,1,c,1.9038120000000163,correct,c
206,4F4K,207,1,37.991974195530304,56.19723196596934,1.101721232169541,57.47148692373474,1,c,2.1365458999998737,correct,c
207,4F4K,208,1,64.63732887595309,50.64966213339959,1.9173581740204837,52.78627411942266,2,c,1.2370138000001134,incorrect,n
208,4F4K,209,1,59.63802656213672,69.35719362763342,1.728045011580888,67.39492606367776,1,c,1.5890315999999984,correct,c
209,4F4K,210,1,33.65589031894908,39.32102380059331,1.0067299288317697,42.86522672658362,1,c,2.080616100000043,correct,c
210,4F4K,211,2,36.91988444020818,48.37956977577254,1.077431786317621,50.81949709562224,2,b,2.269450499999948,correct,b
211,4F4K,212,1,52.077139881981736,37.68290684670619,1.476635958928507,41.43272026274269,2,n,1.1291964000001826,correct,n
212,4F4K,213,1,43.80327462399054,56.07118875391926,1.243234322684898,57.367478775008806,1,c,1.661849699999948,correct,c
213,4F4K,214,2,44.67216452186831,55.30376259039295,1.2659013094662463,56.7314463649074,2,b,1.801368999999795,correct,b
214,4F4K,215,2,50.28069322325748,70.44927276016841,1.422492254153988,68.11565330233493,2,b,1.2370260000002418,correct,b
215,4F4K,216,2,56.44696129500828,47.10171479963429,1.6170999353526028,49.703977615185686,1,v,2.4765237000001434,correct,v
216,4F4K,217,1,39.1807747603642,56.89409364447403,1.1292956571853572,58.04411704872115,1,n,1.740604699999949,incorrect,c
217,4F4K,218,1,50.2971310528664,38.60877375865224,1.4229785665352597,42.24147150350768,2,n,1.3705964000000677,correct,n
218,4F4K,219,1,66.35457438103558,53.80653569028374,1.987062472966422,55.477675419086616,2,n,1.388753799999904,correct,n
219,4F4K,220,1,55.52691543748642,37.459782454825245,1.586455949566145,41.23822123573491,2,n,1.042766500000198,correct,n
220,4F4K,221,1,69.08806392912305,53.72791421920223,2.103281451553733,55.411396119121214,2,n,1.0124495999998544,correct,n
221,4F4K,222,1,56.80020958275585,50.98102445106603,1.6290222256496216,53.07141566639961,2,n,0.6300601000002644,correct,n
222,4F4K,223,1,67.12882608422734,49.75865581619936,2.019313324950013,52.01693675923006,2,n,0.7441920999999638,correct,n
223,4F4K,224,1,66.14003313032453,51.44265101327783,1.978217415574252,53.46770870228261,2,n,0.6118338999999651,correct,n
224,4F4K,225,2,47.92636598364476,66.00031368557245,1.3545287164879327,65.06889624705514,2,b,2.6646601000002192,correct,b
225,4F4K,226,2,34.048544052257924,48.36315128724845,1.0149835330842834,50.80519780629771,2,b,2.2583478999999897,correct,b
226,4F4K,227,2,64.17295385107406,47.09966256003296,1.898932488924677,49.70218219499281,1,v,1.4402173000003131,correct,v
227,4F4K,228,2,52.471955715082885,48.973665745582935,1.4888089893500724,51.33625404836855,1,v,1.455739099999846,correct,v
228,4F4K,229,1,50.74152898003864,63.91186671831944,1.4361892504285072,63.54333771486316,1,n,2.4835745999998835,incorrect,c
229,4F4K,230,2,40.93823017433493,57.189474427146514,1.171329448046893,58.28557821299506,2,b,1.8195522999999412,correct,b
230,4F4K,231,2,58.40207752139877,42.380593346436,1.684198664447323,45.554755452629365,1,v,1.5106017000002794,correct,v
231,4F4K,232,2,35.87566896849619,52.08096867396122,1.0542887651499082,54.013774688938966,2,v,1.3100236000000223,incorrect,b
232,4F4K,233,1,47.292490837929776,62.36750519582005,1.3367917409008765,62.37975823731171,1,c,1.2614869000003637,correct,c
233,4F4K,234,2,43.84238517908627,64.20687783143823,1.2442458329648682,63.76226321447414,2,b,2.0320355000003474,correct,b
234,4F4K,235,2,53.88575115800437,73.95607056475525,1.5332283024303404,70.30136097490012,2,b,1.042799500000001,correct,b
235,4F4K,236,2,37.84312767184508,25.37445958194326,1.098316482429487,31.138950127137445,1,v,1.9289135000003625,correct,v
236,4F4K,237,2,67.54332102231041,57.592963360853325,2.03679337345947,58.614161524775554,1,v,2.227628999999979,correct,v
237,4F4K,238,2,62.479760542262,42.11926935976432,1.8332363740646669,45.324669043519066,1,v,1.1940205000000788,correct,v
238,4F4K,239,1,34.69516220440906,45.90894601243557,1.0287232140263698,48.658738135438696,1,c,2.6525133000000096,correct,c
239,4F4K,240,2,56.60519591807727,67.8217607465041,1.6224295988409014,66.35116375486048,2,b,1.7103885999999875,correct,b
240,4F4K,241,1,54.69318821150855,45.04463559584985,1.5591888149132422,47.89954485423343,2,n,1.8315778000001046,correct,n
241,4F4K,242,1,67.15328357667863,51.88239761777166,2.0203405670175214,53.84414752214894,2,n,1.443339399999786,correct,n
242,4F4K,243,2,48.24215552732036,57.77488108154394,1.3634527129675806,58.76182541659775,2,b,2.221596000000318,correct,b
243,4F4K,244,2,45.75200176326681,61.64042575548498,1.2946481381701926,61.82213376435328,2,b,1.692195300000094,correct,b
244,4F4K,245,2,51.69322852924152,30.88588900361881,1.4648945900742405,35.613607363096,1,v,1.054979000000003,correct,v
245,4F4K,246,1,48.85573179600603,63.760010508825054,1.380960403804747,63.43021966536025,1,c,2.197651699999824,correct,c
246,4F4K,247,2,59.07135520300789,46.78332277983794,1.7078019234505997,49.42529717862334,1,v,1.1399179999998523,correct,v
247,4F4K,248,1,55.034756078998015,37.12952146179013,1.570302694323267,40.950645238581856,2,n,2.3187385999999606,correct,n
248,4F4K,249,1,57.93865182794829,47.98935851282031,1.66804655503525,50.47940288640242,2,n,1.2022533999997904,correct,n
249,4F4K,250,1,60.61628879518818,45.30901742557298,1.7635575597767756,48.13190196263399,2,n,0.6854091999998673,correct,n
250,4F4K,251,2,59.233382832348354,71.35025505396418,1.7135656733146591,68.69625860010568,2,b,2.0563342000000375,correct,b
251,4F4K,252,1,43.3940609452253,59.37239429989396,1.232700078623579,60.04508501875111,1,n,3.5446580999996513,incorrect,c
252,4F4K,253,2,40.24938401602014,48.06343448663406,1.1546707413855342,50.5440041124814,2,b,2.183774600000106,correct,b
253,4F4K,254,1,52.94314067570445,40.99448818340534,1.5034680609989075,44.3348484032449,2,n,1.2613185000000158,correct,n
254,4F4K,255,1,39.73036056452223,57.62770770759707,1.1422756326250902,58.64238710244823,1,c,1.5829377999998542,correct,c
255,4F4K,256,1,49.92433989254298,72.66233660327356,1.4119903186608118,69.51847428626283,1,c,1.777403100000356,correct,c
256,4F4K,257,1,71.33950942326159,55.285365630980905,2.204093281264891,56.71614213525108,2,n,1.1040307999996912,correct,n
257,4F4K,258,2,75.66647575508324,62.95196073150913,2.4116060815401377,62.82350791571415,1,v,1.886621600000126,correct,v
258,4F4K,259,1,32.71733808444134,42.20137010614901,0.9872724283190352,45.3969528901803,1,c,1.8442598999999973,correct,c
259,4F4K,260,1,51.21725760985888,38.05169937991584,1.4504672569411328,41.75455399199036,2,n,1.0018104999999196,correct,n
260,4F4K,261,1,66.81419515078174,50.10101731077638,2.006144958004271,52.31298187125722,2,n,0.8125061000000642,correct,n
261,4F4K,262,1,49.748997446543136,40.54275409333455,1.406851373468643,43.93768830946297,2,n,1.1824166999999761,correct,n
262,4F4K,263,2,62.54071873306639,43.31512005662504,1.8355616394850989,46.377662433293246,1,v,1.3098465000002761,correct,v
263,4F4K,264,1,37.15614152658623,27.66358960133901,1.0827380470653714,32.963646523394004,2,c,1.3819236000003912,incorrect,n
264,4F4K,265,1,51.94553218467465,36.66391731928584,1.4726003663569625,40.54589632168334,2,n,0.8728995999999825,correct,n
265,4F4K,266,1,51.46124014083418,36.23557473319349,1.457844864231981,40.174288024187845,2,n,0.9396153000002414,correct,n
266,4F4K,267,2,64.10716428452498,47.581662401781,1.896336419931251,50.123540701927695,1,v,1.4307872000003954,correct,v
267,4F4K,268,1,54.017441616411226,67.73090546511477,1.5374326889021754,66.28831688176335,1,c,2.137640399999782,correct,c
268,4F4K,269,2,38.2590026427028,21.495428330883342,1.1078557760410244,28.177649810570635,1,v,1.8560090000000855,correct,v
269,4F4K,270,2,51.67019125922445,42.92753220201131,1.464193005415272,46.03636917909399,1,v,1.0555162000000564,correct,v
270,4F4K,271,2,44.8721404107616,54.449602700284096,1.2711763705717667,56.018176231720894,2,v,1.315874100000201,incorrect,b
271,4F4K,272,2,61.38138135477715,71.91281753315882,1.7918395293481384,69.05221408452111,2,b,1.4929102000000967,correct,b
272,4F4K,273,1,53.81166727932928,34.98685802616373,1.5308681352008826,39.09552936400788,2,n,1.6012134000002334,correct,n
273,4F4K,274,2,59.2763955618248,46.45258514402716,1.7150990141731588,49.135543512727615,1,v,2.513882300000205,correct,v
274,4F4K,275,1,51.189877444032746,60.95153280295623,1.4496416618702896,61.28825515083789,1,c,1.815016800000194,correct,c
275,4F4K,276,1,52.80376869923716,61.36253343128874,1.499117079805912,61.60741104923723,1,c,1.1026211000003059,correct,c
276,4F4K,277,2,74.81572555638452,55.35173943188644,2.3693178728781654,56.771345429087056,1,b,2.2451295999999274,incorrect,v
277,4F4K,278,2,44.889437662253656,37.72347813133715,1.2716336774506605,41.468104280611655,1,v,1.515314799999942,correct,v
278,4F4K,279,2,58.91711107151088,47.07398186017262,1.7023330664437553,49.6797142472536,1,v,1.3947959000001902,correct,v
279,4F4K,280,2,46.82179230610175,66.99160376911293,1.3237711818621585,65.77252838882355,2,v,1.4185477000000901,incorrect,b
280,4F4K,281,2,61.96400265510125,51.25193075489119,1.8136801834344976,53.30411712657576,1,v,1.654923399999916,correct,v
281,4F4K,282,2,30.878390983261475,38.75749704583363,0.9502320214981308,42.37161095541927,2,b,1.7104260000000977,correct,b
282,4F4K,283,2,56.01583965086227,43.92829444534298,1.6026675489285838,46.91749338937032,1,v,1.5462679000002026,correct,v
283,4F4K,284,2,52.117521985461934,38.65398445898838,1.477876443734918,42.28102664879878,1,v,0.7824641000001975,correct,v
284,4F4K,285,1,22.98554972018287,33.61483042114284,0.8063994117878975,37.91921595387176,1,c,2.11092729999973,correct,c
285,4F4K,286,2,48.05824418896103,37.17095037202338,1.3582483794155065,40.98669837000408,1,v,2.2399169999998776,correct,v
286,4F4K,287,1,54.2739669230521,41.735585954840616,1.5456557190797646,44.98691087979231,2,n,1.5586151000002246,correct,n
287,4F4K,288,2,38.22709437511572,30.085022351280724,1.107120942289972,34.94698134951789,1,b,1.5708930000000692,incorrect,v
288,4F4K,289,2,37.51140913593866,51.98676576535601,1.0907664822958023,53.9333310988325,2,b,1.8135652000000846,correct,b
289,4F4K,290,1,55.87234223012835,43.59577481843538,1.5978924050709808,46.62476977859578,2,n,1.3150550999998813,correct,n
290,4F4K,291,2,51.84378389078446,43.574889226729,1.469487937757081,46.60638179957874,1,v,1.2855482999998458,correct,v
291,4F4K,292,2,56.66733372605968,73.53743361863376,1.6245273265536353,70.05110293293991,2,b,1.9895658000000367,correct,b
292,4F4K,293,2,60.37837387321185,41.0713031764164,1.7548542551142032,44.4024090481033,1,v,2.1912641999997504,correct,v
293,4F4K,294,1,76.77237316158681,65.73154463020697,2.467707148336741,64.87579751706163,2,n,2.5381507000001875,correct,n
294,4F4K,295,2,54.008176797400814,69.68233614516114,1.537136521038875,67.61142218712527,2,b,2.3141169999998965,correct,b
295,4F4K,296,2,30.13766724847543,43.35926213281332,0.9357078211731732,46.41652997026551,2,b,1.7640655000000152,correct,b
296,4F4K,297,2,45.33991606724723,34.65768794139336,1.283601590190898,38.81240154939847,1,v,2.3365844999998444,correct,v
297,4F4K,298,1,38.56987396166177,55.75834163686424,1.115040582568781,57.108763456005406,1,c,2.1973285999997643,correct,c
298,4F4K,299,1,54.47126081152992,41.854353846060526,1.5520099689482203,45.09145321559732,2,n,1.6123308000001089,correct,n
299,4F4K,300,2,64.23932658193266,55.130117895041344,1.9015551711000356,56.58688931176928,1,v,2.001701299999695,correct,v
300,4F4K,301,1,52.860837628775975,42.725241634868574,1.5008971605889845,45.8582357557534,2,n,1.2855986999998095,correct,n
301,4F4K,302,1,56.1112571603463,39.90772723366682,1.605850640701341,43.37990041897545,2,n,0.9457013999999617,correct,n
302,4F4K,303,1,51.5379566320599,72.37413465747535,1.4601723831192004,69.34027890553908,1,c,1.6316698999999062,correct,c
303,4F4K,304,2,46.99267267304923,55.08598506789201,1.328483381009131,56.55011241833506,2,b,1.4191006000000925,correct,b
304,4F4K,305,2,49.43133037948016,64.23299473669363,1.3975887607112731,63.78159129449032,2,b,1.133864700000231,correct,b
305,4F4K,306,2,52.55742112561719,36.83697927800345,1.4914572580840617,40.69624291888658,1,v,1.7468244000001505,correct,v
306,4F4K,307,1,23.88096345164821,45.29164114272032,0.8215549072078159,48.116633697516015,1,c,1.4437685000002602,correct,c
307,4F4K,308,1,27.354541493324653,38.40193581255271,0.8830923641284238,42.06057879771015,1,c,1.4312454999999318,correct,c
308,4F4K,309,2,50.03759444914928,61.76420985191276,1.4153195625749708,61.91749807385765,2,v,1.8613119000001461,incorrect,b
309,4F4K,310,2,41.521363731217136,48.696668822988975,1.18561936098152,51.09547849705405,2,v,1.7042923999997583,incorrect,b
310,4F4K,311,2,20.265441839620653,34.59772483088967,0.7620530057661222,38.760885373186014,2,b,1.9909920999998576,correct,b
311,4F4K,312,1,40.06187739194301,28.05244835194765,1.1501773412917504,33.27866874911272,2,n,1.2005115000001751,correct,n
312,4F4K,313,2,55.202269491299255,44.18290806776003,1.5757821358282575,47.14158507771005,1,v,1.4372536999999284,correct,v
313,4F4K,314,2,54.65860460216842,68.62126791313163,1.5580679336953986,66.89901565184718,2,b,1.5709603000000243,correct,b
314,4F4K,315,1,44.29501694438374,59.45444470643943,1.2560122267543965,60.11031842063117,1,c,1.8014703000003465,correct,c
315,4F4K,316,1,72.11138799696407,55.42765808183263,2.2397561038540847,56.83444518716818,2,n,1.7652984000001197,correct,n
316,4F4K,317,2,42.68330813124634,56.14672948553672,1.2146151286696956,57.42982908435544,2,v,2.603943800000252,incorrect,b
317,4F4K,318,2,48.09983775365783,37.79274821887847,1.3594236554512225,41.52853016135098,1,v,1.504080299999714,correct,v
318,4F4K,319,2,38.57729897854876,51.72110036080092,1.1152127568835757,53.70619605938385,2,v,2.5927040999999917,incorrect,b
319,4F4K,320,2,57.61010149010637,73.11265743836682,1.6566892812964849,69.79415805955294,2,b,1.4340698999999404,correct,b
320,4F4K,321,1,43.69766024134768,58.2553894306096,1.2405069407298432,59.15038492739381,1,n,2.7796362999997655,incorrect,c
321,4F4K,322,1,34.18632375511461,47.43703144359658,1.0178956797371272,49.99717597283845,1,n,1.1646116000001712,incorrect,c
322,4F4K,323,1,57.6109025396268,49.762057072792,1.6567168775902883,52.01988043355348,2,n,2.167987499999981,correct,n
323,4F4K,324,1,59.7493995608242,49.43762042915731,1.7320516917430178,51.73886751428088,2,n,1.5161218000002918,correct,n
324,4F4K,325,1,41.3582566926289,23.92366479550776,1.181604889218204,30.01094983710585,2,n,1.091437699999915,correct,n
325,4F4K,326,2,58.19383182162818,73.12407340615277,1.6769212670222915,69.80110301608713,2,b,2.585831899999903,correct,b
326,4F4K,327,1,53.77497694190277,68.08154962985168,1.5297005984977678,66.53020618876195,1,c,2.077378999999837,correct,c
327,4F4K,328,1,67.41049008390108,48.38204131960801,2.031175224155095,50.82164954588657,2,n,1.0479918999999427,correct,n
328,4F4K,329,2,76.91934891153635,60.68438224576883,2.475260676458729,61.07980675001435,1,b,2.1184689000001526,incorrect,v
329,4F4K,330,1,43.906956741288205,48.46289239336252,1.2459176386838924,50.89205033070961,1,c,1.9106495999999424,correct,c
330,4F4K,331,2,61.963685720602726,41.9552609808941,1.813668230473359,45.18028120304241,1,v,1.7345973999999842,correct,v
331,4F4K,332,1,50.07515550197999,37.8919267099018,1.4164254440888375,41.61507260559014,2,n,1.8985133999999562,correct,n
332,4F4K,333,2,57.5214045679272,77.56577789711262,1.6536364986584164,72.33305009397618,2,b,2.221642999999858,correct,b
333,4F4K,334,1,44.17763739422198,57.76444074475898,1.2529502413937512,58.75335911960541,1,c,1.9956559000002017,correct,c
334,4F4K,335,2,59.58877882859412,48.76435612229384,1.7262762648176937,51.15434141444802,1,v,1.601100100000167,correct,v
335,4F4K,336,2,64.69767083193774,41.17478957188434,1.919765538500437,44.49343838520737,1,v,1.6010228000000097,correct,v
336,4F4K,337,1,48.81612635707475,64.98931769884416,1.3798235517562354,64.33751651900835,1,c,1.5708180000001448,correct,c
337,4F4K,338,1,42.9667387320517,52.23852497722243,1.221794932602154,54.14820294728206,1,n,1.9592579000000114,incorrect,c
338,4F4K,339,2,61.80619298098761,44.25551121592414,1.807738237993504,47.20547532347535,1,v,1.4062364000001253,correct,v
339,4F4K,340,1,69.83152463593211,53.74863779105626,2.1360504760066963,55.42887055289695,2,n,1.5953567999999905,correct,n
340,4F4K,341,2,55.14840635411585,35.489760012313944,1.574018165240174,39.52912001528515,1,v,1.5768659999998818,correct,v
341,4F4K,342,2,42.46073187848616,48.21238970328783,1.2090064625937018,50.67385198984325,2,b,1.601164400000016,correct,b
342,4F4K,343,1,48.64816003567622,40.90339908107099,1.3750125639360071,44.25474242004067,2,n,1.3578427999996165,correct,n
343,4F4K,344,1,54.67926838382618,68.38509313396246,1.558737565726009,66.73815607386707,1,c,1.1460704999999507,correct,c
344,4F4K,345,2,44.883917022181855,65.18490775856203,1.271487704212446,64.48007176704675,2,b,1.3765915000003588,correct,b
345,4F4K,346,2,54.00640544528349,33.24462276167409,1.5370799028387363,37.603624998698265,1,v,1.2855877000001783,correct,v
346,4F4K,347,1,73.60239747791047,57.897452160060965,2.310286743621789,58.86114584945194,2,c,1.582972300000165,incorrect,n
347,4F4K,348,2,57.72518032323805,69.34259649322381,1.6606584811266287,67.38516886333778,2,b,1.6133171999999831,correct,b
348,4F4K,349,1,54.114295587572855,70.2786575876174,1.5405322319427524,68.00426866723676,1,c,1.4615720000001602,correct,c
349,4F4K,350,2,60.66653737760046,55.62505959345021,1.7654012463103592,56.998303718856256,1,v,1.2856055000002016,correct,v
350,4F4K,351,2,51.2254414623159,38.27783406021679,1.450714116182814,41.9521017802053,1,v,1.3948026999996728,correct,v
351,4F4K,352,2,49.76290201041715,63.73349557424545,1.4072582054567662,63.41043908003244,2,v,1.2606018000001313,incorrect,b
352,4F4K,353,1,48.63720203845431,61.243861189408086,1.3746992821912185,61.51545070413999,1,n,1.8317925000001196,incorrect,c
353,4F4K,354,2,38.46920436719852,33.29524244764632,1.112708836679865,37.64672861608904,1,v,1.746816200000012,correct,v
354,4F4K,355,1,81.42667872410328,63.53131171192643,2.7184802779939656,63.25931916952012,2,n,1.4069133999996666,correct,n
355,4F4K,356,1,50.10357081589791,31.22082289468155,1.417262628644555,35.89383746095864,2,n,1.406926999999996,correct,n
356,4F4K,357,2,64.62249824985884,51.43667184019161,1.9167669630481972,53.46258299116016,1,v,1.5040523000002395,correct,v
357,4F4K,358,2,50.216422350693286,60.85461490940264,1.4205923983388755,61.21272347439458,2,v,1.8318140000001222,incorrect,b
358,4F4K,359,2,63.174308886030616,44.53308900611153,1.8599054295142436,47.44969640917972,1,v,2.7314182999998593,correct,v
359,4F4K,360,1,55.13113532410292,64.4892283663196,1.5734529723232018,63.97075816579266,1,n,1.883241800000178,incorrect,c
360,4F4K,361,1,66.48596524525789,54.57318573691839,1.9924989408959364,56.12171038270654,2,n,0.8847911000002568,correct,n
361,4F4K,362,1,55.34713922260191,31.94587228850196,1.5805363074934011,36.50322812792917,2,n,1.0185480000000098,correct,n
362,4F4K,363,2,33.47933743582111,52.33365434219218,1.0030406834879044,54.22929733354143,2,b,1.5525872000002892,correct,b
363,4F4K,364,1,67.06827882716314,51.73938895079148,2.01677251880692,53.721844945523806,2,n,1.3341246999998475,correct,n
364,4F4K,365,2,45.39473983873471,61.49698867629423,1.2850657667454797,61.71141110483413,2,b,1.3817790000002788,correct,b
365,4F4K,366,2,42.92444867935599,27.20744823979865,1.2207209621893174,32.59592237512652,1,v,1.7949327999999696,correct,v
366,4F4K,367,1,67.36197912002446,54.427695852997374,2.0291272947604084,55.99981176650511,2,n,1.4069522999998298,correct,n
367,4F4K,368,2,34.668423532928976,45.36864046338357,1.0281513874316794,48.18428818334302,2,b,1.1216952999998284,correct,b
368,4F4K,369,1,47.30404123391019,32.879320081796855,1.3371128550920992,37.293026496511786,2,n,1.2673507999998037,correct,n
369,4F4K,370,2,33.15965313157356,48.9318577393737,0.9963949356395314,51.299931759867945,2,b,1.2248924999998962,correct,b
370,4F4K,371,2,36.71822506052445,50.61721029783165,1.0729231556372534,52.758319501476834,2,b,1.067039399999885,correct,b
371,4F4K,372,2,55.82049943848909,33.97828238983048,1.5961707404495,38.22982294274503,1,v,1.5950651999996808,correct,v
372,4F4K,373,1,49.26754544719768,57.74775264372751,1.3928369327589345,58.73982429445835,1,n,1.510090400000081,incorrect,c
373,4F4K,374,2,60.65219696316242,46.32749573659755,1.764874881199169,49.02588842225273,1,v,1.431162299999869,correct,v
374,4F4K,375,2,56.24310883083552,43.88180868491206,1.6102595687068342,46.876575052268656,1,v,1.5711104000001797,correct,v
375,4F4K,376,1,55.79208499421279,41.59821875812683,1.5952279027703342,44.866009618337976,2,n,1.1461288000000422,correct,n
376,4F4K,377,1,57.55670614561657,43.9109897321564,1.6548508386355096,46.90226136481173,2,n,0.964195799999743,correct,n
377,4F4K,378,1,46.17606963286916,37.03427695402065,1.30611514575351,40.86778326808648,2,n,1.4312182999997276,correct,n
378,4F4K,379,1,58.03170382129636,46.8354368391635,1.6712772860708431,49.47092913452383,2,n,1.1884625000002416,correct,n
379,4F4K,380,1,56.93961578292358,49.84592675309545,1.6337514013443724,52.09245081057152,2,n,1.103512099999989,correct,n
380,4F4K,381,2,54.85490129683279,32.99483865647718,1.564440769975812,37.39115720356443,1,v,1.7884280999996918,correct,v
381,4F4K,382,1,58.39787907454555,42.05358279478,1.68405163316781,45.2668389747627,2,n,1.3037793000003148,correct,n
382,4F4K,383,1,59.42744306649412,42.256779189303465,1.7204945141385262,45.44573824451471,2,n,0.7878922999998395,correct,n
383,4F4K,384,2,36.01400398130826,44.64381181200558,1.0573258939041423,47.547091417868415,2,b,1.8499894999999924,correct,b
384,4F4K,385,2,35.37059437775605,51.55070760595203,1.0432737988702738,53.560307941698994,2,b,0.8424918999999136,correct,b
385,4F4K,386,2,34.21670959168608,52.01957098299504,1.0185390461689516,53.96135058153951,2,b,0.9214084000000184,correct,b
386,4F4K,387,2,27.06201434049465,47.80329458402048,0.8777368791270219,50.31705941286532,2,b,0.6966803000000255,correct,b
387,4F4K,388,2,39.623634723174405,49.1315346792628,1.1397433895669669,51.47334723713088,2,b,0.5874042000000372,correct,b
388,4F4K,389,2,66.3081635585275,50.62761588903136,1.9851457120137823,52.76728363508345,1,v,1.0235835999997107,correct,v
389,4F4K,390,2,35.62853388954462,54.25710347095445,1.0488846419563762,55.85668637795189,2,b,0.7626156999999694,correct,b
390,4F4K,391,1,43.23415080848064,50.82724353051911,1.2286078652722574,52.93915378498605,1,n,2.8223032999999305,incorrect,c
391,4F4K,392,2,54.0822470121576,34.142892594171585,1.539505914927921,38.37074391633208,1,v,1.5009201000002577,correct,v
392,4F4K,393,2,58.3924321777303,44.2816829006944,1.6838608998023692,47.22850507939688,1,v,1.0670749000000797,correct,v
393,4F4K,394,1,29.76522319006279,44.63478316516045,0.92848898212905,47.53915006708953,1,c,2.21919969999999,correct,c
394,4F4K,395,2,53.00753030194074,34.216552774145406,1.5054824697852878,38.43385189961447,1,v,1.504261100000349,correct,v
395,4F4K,396,1,66.35515669731984,44.68055035236959,1.9870865343059712,47.5794046722582,2,n,1.1945083000000523,correct,n
396,4F4K,397,2,46.86592511359868,57.70339115469274,1.3249865853791556,58.70383264336108,2,b,1.8742713999999978,correct,b
397,4F4K,398,2,55.9058384516538,39.61857825889299,1.5990057797180226,43.12616171053946,1,v,1.0792100999997274,correct,v
398,4F4K,399,1,43.28160111146199,36.94845599167817,1.229820732535125,40.79314835354659,2,n,1.0428028999999697,correct,n
399,4F4K,400,1,68.36050444904713,47.76300018383754,2.071700043061792,50.281887515944,2,n,0.7211511999998947,correct,n
