,condition,trial,sub_task,x,y,xt,yt,cat,resp,rt,acc,correct_resp
0,4F4K,1,2,50.06099075607989,62.592313913481135,1.416008300796098,63.31329570907248,2,b,2.784693800000241,correct,b
1,4F4K,2,2,29.64668938846443,44.44440729419166,0.9262032224888612,47.77263568207407,2,b,0.9811782000006133,correct,b
2,4F4K,3,1,53.23451305622024,64.56733147573154,1.512605103524462,64.82579622336247,1,c,2.616139399999156,correct,c
3,4F4K,4,2,46.83559766964646,59.140827265185095,1.3241512573177188,60.558928408699366,2,b,3.223044800000025,correct,b
4,4F4K,5,1,34.505073213300605,46.150735913786704,1.0246649138489528,49.30753115991571,1,c,2.177940900000067,correct,c
5,4F4K,6,2,37.7782371141359,62.67562527299396,1.0968354562121887,63.37808296497193,2,b,1.419121100000666,correct,b
6,4F4K,7,2,48.51207777467621,69.43767963441192,1.371127120678641,68.32765179432286,2,b,1.7225563000001785,correct,b
7,4F4K,8,2,42.86790729814427,51.55390335156866,1.219286549076522,54.1114163176392,2,v,2.396225299999969,incorrect,b
8,4F4K,9,2,46.39984468389514,32.90575378780915,1.312207016540136,37.47699388903818,1,b,1.2616454999997586,incorrect,v
9,4F4K,10,2,37.41535310130973,49.04063827003253,1.0885899280765508,51.89116122791595,2,b,2.1413056999999753,correct,b
10,4F4K,11,1,40.901708649866805,25.67032089460935,1.1704402269161445,31.3917904340928,2,c,1.6437555000002249,incorrect,n
11,4F4K,12,1,55.216403377004255,58.75146602594696,1.5762453355458286,60.240139426127136,1,n,1.1777920000004087,incorrect,c
12,4F4K,13,2,40.66846682409785,56.47643806135141,1.1647771870147658,58.34831613335603,2,b,2.5195056000002296,correct,b
13,4F4K,14,1,49.031288065553575,54.19056585948935,1.3860109371467997,56.402456889969145,1,c,1.3949280999995608,correct,c
14,4F4K,15,2,55.78591779717468,61.20775052423195,1.5950233386654222,62.22448581656073,2,v,1.685190600000169,incorrect,b
15,4F4K,16,1,27.56848001543617,46.0477548099761,0.8870297522204144,49.21504107209923,1,c,1.7665231999999378,correct,c
16,4F4K,17,2,57.341589424497066,46.10469813295296,1.6474648479937433,49.26618616285977,1,b,1.3099560000000565,incorrect,v
17,4F4K,18,2,65.97789281476979,56.46133976014497,1.9715588632047156,58.335603828365706,1,v,1.4570169999997233,correct,v
18,4F4K,19,1,56.62682261000128,45.2490983316791,1.6231593929075354,48.497052879375,2,n,1.4555835000001025,correct,n
19,4F4K,20,1,66.17985774472288,53.3689511998479,1.9798563144397296,55.69341579272363,2,n,0.7538450000001831,correct,n
20,4F4K,21,2,46.14319571376582,68.79836955617574,1.3052225984724228,67.88785415569173,2,b,1.5163174999997864,correct,b
21,4F4K,22,2,39.025475946633904,30.222059600530617,1.12565465066386,35.16852974216466,1,v,1.6862650999992184,correct,v
22,4F4K,23,1,61.52599713231684,45.01434835403308,1.797236060332076,48.28581006365741,2,n,1.3100269999995362,correct,n
23,4F4K,24,2,50.44169721642096,30.622093652896936,1.4272627166035865,35.50924305698484,1,b,1.0746548999995866,incorrect,v
24,4F4K,25,1,54.90238744961945,63.08146142938669,1.5659863349444996,63.69246654696311,1,n,1.0637931000001117,incorrect,c
25,4F4K,26,1,55.62980338841062,69.78397374819355,1.5898537973521116,68.56322940688922,1,c,0.9650841000002401,correct,c
26,4F4K,27,1,60.86442070725781,42.20695690023097,1.7726806062220182,45.75592685587238,2,c,0.909608500000104,incorrect,n
27,4F4K,28,1,30.26075686863274,42.43714692454987,0.938105904835909,45.96343282437846,1,c,1.309829300000274,correct,c
28,4F4K,29,1,67.05546424591759,60.572194324808805,2.0162351775495684,61.71729275925649,2,n,1.0368435000000318,correct,n
29,4F4K,30,1,31.106144759649432,47.10769935377187,0.9547430002414552,50.1658250819096,1,c,1.120899799999279,correct,c
30,4F4K,31,1,46.25038526302911,30.456036488330906,1.3081351112806412,35.367656539152485,2,n,2.390178399999968,correct,n
31,4F4K,32,1,70.19397573454597,56.896935150715805,2.15221062293399,58.70156290086383,2,c,0.8780310999991343,incorrect,n
32,4F4K,33,2,57.87101974090583,50.2596295483415,1.665702313700989,52.9718242608847,1,b,1.1399670999999216,incorrect,v
33,4F4K,34,1,56.36898241283433,46.96523452239278,1.614479891751395,50.03819590736491,2,c,1.5843569999997271,incorrect,n
34,4F4K,35,2,49.27173000746979,62.2242084744182,1.3929581364128771,63.02603292543881,2,b,1.1399648000005982,correct,b
35,4F4K,36,2,53.83241437251259,71.05263919629053,1.5315287304446754,69.41004912550625,2,b,1.2059283999997206,correct,b
36,4F4K,37,1,53.02982556783557,71.25434953043145,1.5061805989026305,69.54230023667513,1,c,0.9592714999998861,correct,c
37,4F4K,38,2,49.95549733765783,62.96531313863184,1.4129054448219098,63.6026987162176,2,b,0.9943401999998969,correct,b
38,4F4K,39,1,29.357978018106508,43.96693328923734,0.9206593417123514,47.34245494640733,1,c,1.4556662000004508,correct,c
39,4F4K,40,2,40.53204717629868,57.42942572304785,1.1614776679252083,59.146629920934906,2,b,0.63765709999916,correct,b
40,4F4K,41,2,49.96689071607265,63.200075775851126,1.413240228120293,63.78396754378011,2,b,5.0,correct,b
41,4F4K,42,1,42.82391665948271,30.84726242194614,1.218171704967508,35.70157353236654,2,n,1.2552850000001854,correct,n
42,4F4K,43,2,43.82929192404193,54.37860850123829,1.2439071125148085,56.56405887603541,2,b,0.3584526000004189,correct,b
43,4F4K,44,2,58.95247195897407,42.66855786208323,1.7035852675612235,46.17205399658147,1,b,0.806546900000285,incorrect,v
44,4F4K,45,1,29.572118090199577,38.09692123706381,0.924768103112652,42.0622004803932,1,c,0.8318325999998706,correct,c
45,4F4K,46,2,27.68884904064465,46.722082679556,0.8892527717590529,49.8202406186537,2,b,0.787395700000161,correct,b
46,4F4K,47,2,50.12383746069534,62.16217692916035,1.417860035804613,62.97746453451372,2,b,0.8803766000000905,correct,b
47,4F4K,48,2,45.93809596247955,27.90049418948207,1.2996677700948591,33.217870660036816,1,v,0.8303802999998879,correct,v
48,4F4K,49,2,43.60694870624916,54.48056492910822,1.2381691862829314,56.65157057106875,2,b,1.2542131000000154,correct,b
49,4F4K,50,1,68.84774567827237,57.49338253913894,2.0927969890979043,59.19991250355579,2,c,0.8804288999999699,incorrect,n
50,4F4K,51,1,60.073615146149145,47.4650979010731,1.7437684172192889,50.48575477034582,2,n,0.9337798999995357,correct,n
51,4F4K,52,2,56.85853908640166,40.13279784946289,1.630999310994113,43.888134972036895,1,b,0.9032925999999861,incorrect,v
52,4F4K,53,1,34.181854559327846,51.22186818794556,1.0178010866961804,53.81990442460649,1,c,1.382768099999339,correct,c
53,4F4K,54,2,55.012342948371234,47.67010877234451,1.569570997090704,50.66910204411992,1,b,1.0490000999998301,incorrect,v
54,4F4K,55,1,29.516596401717592,40.48171075791862,0.923701036475963,44.20195726022821,1,n,1.710484500000348,incorrect,c
55,4F4K,56,2,47.20482491680299,54.18081867208409,1.3343570407709848,56.39407322837131,2,b,1.7239700999998604,correct,b
56,4F4K,57,1,60.70539988282722,53.30531002968615,1.7668284844134714,55.638300057827074,2,c,0.9942676000000574,incorrect,n
57,4F4K,58,1,44.94484540263009,57.380097107446616,1.2730996619928376,59.105508387443614,1,n,1.212902600000234,incorrect,c
58,4F4K,59,2,57.29642250592998,37.70900057757394,1.6459182430211272,41.715569486725975,1,b,1.3659129999996367,incorrect,v
59,4F4K,60,2,40.12457677901358,49.39655302041861,1.151677917185788,52.20735482470551,2,v,0.6423591000002489,incorrect,b
60,4F4K,61,2,46.98558645569705,32.693503646466006,1.3282876384266964,37.292586108209,1,b,0.995701600000757,incorrect,v
61,4F4K,62,1,36.32547476426896,53.25032051476372,1.0641962633029771,55.59065512245213,1,c,1.504208800000015,correct,c
62,4F4K,63,2,40.1927247412426,54.46002510628739,1.1533111134746177,56.633946930181,2,b,1.4084113999997498,correct,b
63,4F4K,64,2,57.9234040287419,39.98491461218404,1.6675177529016754,43.75518809761565,1,v,1.158246799999688,correct,v
64,4F4K,65,1,42.47320917168745,47.65348632289164,1.2093201897121104,50.65424091749507,1,n,1.2733852999999726,incorrect,c
65,4F4K,66,1,52.41510622839212,48.59383211287246,1.487050030943016,51.49350469071359,2,c,0.6617335000000821,incorrect,n
66,4F4K,67,1,51.69251136912045,33.45330714457379,1.464872744373278,37.95403634723591,2,c,1.3835223999994923,incorrect,n
67,4F4K,68,1,34.102796464524204,51.47867288511926,1.0161292300490756,54.04542069726349,1,c,1.3305407999996532,correct,c
68,4F4K,69,1,40.322221622340905,20.06809494049547,1.156420948633814,27.053624765640187,2,n,1.0732350999996925,correct,n
69,4F4K,70,1,53.53935621452781,48.68324802698832,1.5222240157283815,51.5731459600721,2,n,1.8736045000005106,correct,n
70,4F4K,71,1,55.53617453362582,71.37803856832458,1.5867614312224525,69.62306816123548,1,c,1.789537399999972,correct,c
71,4F4K,72,2,44.36699105869101,58.793710584702765,1.2578934569811893,60.274800925928666,2,b,1.0064822000003915,correct,b
72,4F4K,73,2,45.025371151784725,28.206715832180315,1.275233235220852,33.472417233243405,1,v,0.7819063999995706,correct,v
73,4F4K,74,2,50.10475927299099,60.86198289853277,1.4172976542720612,61.94911398016794,2,b,0.7455866000000242,correct,b
74,4F4K,75,1,64.03946578882537,50.60073250497637,1.8936687292795489,53.27299564538987,2,n,1.0975365000003876,correct,n
75,4F4K,76,2,56.04368945450396,70.46023256065266,1.6035959551820191,69.01782788615053,2,b,0.9638454000005368,correct,b
76,4F4K,77,2,28.953659912573546,42.12982873649572,0.912951292645182,45.68640390806208,2,v,0.8850972999998703,incorrect,b
77,4F4K,78,1,27.32846792488177,40.63882578808927,0.8826136948115014,44.34333417569096,1,n,0.7334645000000819,incorrect,c
78,4F4K,79,1,60.64427930858241,42.39557551903068,1.7645843308260147,45.92595676478249,2,c,0.8790006999997786,incorrect,n
79,4F4K,80,1,52.5457784452864,62.52310180437941,1.4910962159145789,63.25940864566707,1,n,0.648273099999642,incorrect,c
80,4F4K,81,1,40.746616315314505,26.1219756599417,1.166671573796383,31.757505402993463,2,n,2.816191699999763,correct,n
81,4F4K,82,1,37.81063462495594,57.548328732575534,1.0975746292853408,59.245658111273045,1,n,1.1571297999998933,incorrect,c
82,4F4K,83,2,59.31896759731701,69.63203177467554,1.7166179959885193,68.46009689190144,2,b,1.9835937999996531,correct,b
83,4F4K,84,2,48.36117633510484,56.80160703591358,1.3668313943053634,58.621616902311445,2,v,0.6668831999995746,incorrect,b
84,4F4K,85,1,35.081961007676405,52.78510496595672,1.0370308626392808,55.1867785574641,1,n,1.4277117999999973,incorrect,c
85,4F4K,86,1,55.74812730417149,43.00249859393227,1.5937704119036735,46.47311714409037,2,c,0.6969506999994337,incorrect,n
86,4F4K,87,1,45.24368839038006,27.277134844068456,1.281035673660712,32.70245572659055,2,n,0.6619367000002967,correct,n
87,4F4K,88,1,34.30877912672986,21.37446715126812,1.020490939813335,28.03004546628582,2,n,0.921528799999578,correct,n
88,4F4K,89,1,66.75759332812088,81.14743900963704,2.0037851107946927,75.15360822008917,1,c,1.6975455000001602,correct,c
89,4F4K,90,2,46.367969050456,58.85160246501972,1.3113375277835988,60.322271970139575,2,b,1.1474594000001161,correct,b
90,4F4K,91,2,54.66606979779287,44.43770578768844,1.5583098181774062,47.76659941783052,1,b,0.6301925999996456,incorrect,v
91,4F4K,92,1,39.2900565549018,54.23712517667802,1.131864844338599,56.44249354870848,1,c,0.6608580000001893,correct,c
92,4F4K,93,2,43.86591980575035,55.25128542619224,1.244854901967982,57.310554319523526,2,b,0.8005033999997977,correct,b
93,4F4K,94,1,63.627941225007895,51.42204509192796,1.8775329630543407,53.99572342544907,2,n,1.3406205000001137,correct,n
94,4F4K,95,1,41.38680082537222,28.85402625043091,1.1823064490954562,34.013329388264665,2,n,1.4980868000002374,correct,n
95,4F4K,96,1,58.06929609419486,45.34176438995607,1.672584249899974,48.58041647224137,2,n,1.1398958999998285,correct,n
96,4F4K,97,2,58.02206699384743,46.247493014267086,1.6709424087044458,49.39441060615155,1,b,0.73459880000064,incorrect,v
97,4F4K,98,1,35.303484573061766,43.46289287035039,1.0418189161175346,46.88816171531431,1,n,1.1704241000006732,incorrect,c
98,4F4K,99,2,52.75957261980355,38.644981234783366,1.497739976681793,42.55271015348861,1,v,0.7394623999998657,correct,v
99,4F4K,100,1,34.36500321981044,50.58347682608765,1.0216847416141277,53.25777378936567,1,c,1.1108539999995628,correct,c
100,4F4K,101,1,59.95993062207525,51.43992336619072,1.7396510117633464,54.01141554522956,2,n,0.8122671999999511,correct,n
101,4F4K,102,1,50.2780834341886,35.55564735184573,1.422415058962397,39.80159636021646,2,c,0.5222012000003815,incorrect,n
102,4F4K,103,2,47.89694344293849,64.45010682809303,1.3537002360552628,64.73742044335553,2,b,1.4797583000008672,correct,b
103,4F4K,104,2,55.880314846621786,38.80705942427195,1.5981573350605986,42.69793131687359,1,b,0.6437023999997109,incorrect,v
104,4F4K,105,1,32.48634336699131,42.012143420776965,0.9825415351072336,45.580328477193,1,c,0.7581357999997635,correct,c
105,4F4K,106,1,49.33785912058107,35.25508342129927,1.3948749333879733,39.536041037127134,2,n,0.7772172999993927,correct,n
106,4F4K,107,2,37.33342194299393,51.59512311212636,1.0867368649304463,54.14756274493487,2,b,1.3344216999994387,correct,b
107,4F4K,108,2,38.41925337062496,53.54451362742054,1.1115536640818855,55.84531762374316,2,b,0.7821382000001904,correct,b
108,4F4K,109,1,52.98942665244288,66.31813848496215,1.5049158303346133,66.12370003221253,1,n,0.9592941999999312,incorrect,c
109,4F4K,110,1,61.34937107722638,56.02732550997644,1.7906472150939765,57.96934403684283,2,n,0.7212422000002334,correct,n
110,4F4K,111,2,52.81427097310872,65.79570434265187,1.499444505706474,65.74080666693438,2,b,0.6301940000003015,correct,b
111,4F4K,112,2,37.04343175084185,21.01378643084441,1.080203368667526,27.758183165675497,1,v,0.7097793000002639,correct,v
112,4F4K,113,1,62.38788527213026,54.84181468335432,1.8297373331696396,56.96101401673089,2,n,0.6266569999997955,correct,n
113,4F4K,114,2,45.71320191846913,54.04167953390582,1.2936040113096654,56.27432337538619,2,b,0.6301460999993651,correct,b
114,4F4K,115,1,42.05147124152411,53.705425738081,1.1987610694384876,55.98435815112593,1,c,0.7150429000002987,correct,c
115,4F4K,116,1,59.44840458491441,43.64065561892205,1.7212446110912882,47.04839558833537,2,n,0.6679543999998714,correct,n
116,4F4K,117,2,63.48590971690043,43.883310807428366,1.87199592119956,47.26709620666991,1,b,0.4482349999998405,incorrect,v
117,4F4K,118,1,41.95354382394147,33.75559229618157,1.196322464005993,38.21817878889893,2,c,0.5525669999997262,incorrect,n
118,4F4K,119,1,48.69916580302458,62.51160389661111,1.37647172422627,63.250450998441536,1,n,0.7021860999993805,incorrect,c
119,4F4K,120,2,62.566964320460606,80.62625552341802,1.8365636920449344,74.90321774304988,2,b,0.6597614000002068,correct,b
120,4F4K,121,2,30.782016982220657,44.63881638689111,0.9483296244327304,47.947725244587545,2,v,4.327351200000521,incorrect,b
121,4F4K,122,2,52.137759705050456,64.55878668582913,1.4784985116505227,64.81936041338707,2,b,1.2917570999998134,correct,b
122,4F4K,123,2,47.019738764162646,37.36488722733896,1.329231293183092,41.40850283836584,1,b,1.1885271000001012,incorrect,v
123,4F4K,124,2,57.417550577097,47.41689083361752,1.6500691866810429,50.44262328639197,1,b,0.8662368999994214,incorrect,v
124,4F4K,125,2,55.95568760703716,65.62825005416771,1.6006641429654382,65.61727725679074,2,v,0.769777299999987,incorrect,b
125,4F4K,126,2,33.89408827103342,55.19364957737613,1.011728820598986,57.26143324277952,2,b,1.372696299999916,correct,b
126,4F4K,127,1,54.22186799455935,76.67224419197915,1.543982113776322,72.83541239297088,1,n,1.4798774000000776,incorrect,c
127,4F4K,128,1,64.50156909043466,47.98821826991272,1.9119530179814483,50.95333459631291,2,n,0.7940621999996438,correct,n
128,4F4K,129,1,50.41520924942308,56.87688215456505,1.4264767942090792,58.68475234494801,1,n,0.8547788000005312,incorrect,c
129,4F4K,130,2,50.23379465109596,29.134388738084308,1.421105675545671,34.24877187061966,1,b,1.9788734000003387,incorrect,v
130,4F4K,131,1,63.49627858568013,45.99347929386644,1.8723995943027671,49.166285870839474,2,n,1.3281114999999772,correct,n
131,4F4K,132,1,45.93394976441896,34.35802025975357,1.2995557204750483,38.7461719259036,2,c,0.509175399999549,incorrect,n
132,4F4K,133,2,55.02829973693334,32.82269614423783,1.5700918861376376,37.40479687106591,1,v,1.4919879999997647,correct,v
133,4F4K,134,1,27.40929358276825,43.46832944997418,0.8840983706507339,46.89306240683919,1,c,1.4933172000000923,correct,c
134,4F4K,135,2,44.20506475155087,35.2287643738096,1.2536650476702729,39.51280842511166,1,v,1.6012203000000227,correct,v
135,4F4K,136,1,59.68201006903613,44.37677754353336,1.7296262240867,47.71171727501813,2,n,0.6366409000002022,correct,n
136,4F4K,137,1,56.75934842841692,40.35989512961794,1.627638659705796,44.09236997842967,2,n,0.6180945000005522,correct,n
137,4F4K,138,2,41.14855472937053,29.27298599412645,1.1764635656511635,34.36541642748575,1,v,1.595172299999831,correct,v
138,4F4K,139,1,65.39874587189215,46.588371099101536,1.9479577359053095,49.70032094379525,2,n,0.7576109999999971,correct,n
139,4F4K,140,2,49.26807105377253,39.7906252475936,1.392852156106133,43.58058464881473,1,b,1.9228776999998445,incorrect,v
140,4F4K,141,2,71.13559424836023,53.53717140429932,2.1947670584031163,55.83896912223571,1,b,0.963921699999446,incorrect,v
141,4F4K,142,1,34.485439215921765,55.12406966779346,1.0242466516111952,57.20209784641166,1,c,1.9825890000001891,correct,c
142,4F4K,143,1,30.18018304910064,38.921792642837815,0.9365354380328306,42.80077362832382,1,c,1.4800412000004144,correct,c
143,4F4K,144,1,34.44612213549768,50.616459409199216,1.023409594659976,53.28686761652856,1,c,0.7590556000004653,correct,c
144,4F4K,145,2,65.49425963369843,53.39846699918719,1.951830522396498,55.71896836503339,1,b,1.0064786000002641,incorrect,v
145,4F4K,146,1,30.068414092095715,38.23743819028197,0.934361297863435,42.18787781908145,1,c,1.5418908999999985,correct,c
146,4F4K,147,1,55.95199990784585,46.95056245031536,1.6005414030644582,50.02504860912571,2,n,1.5587740999999369,correct,n
147,4F4K,148,1,50.7323609474161,38.30092731522812,1.435915475836514,42.24468157641317,2,n,0.8920720999994955,correct,n
148,4F4K,149,2,54.3042628464714,46.07683743994926,1.5466297673560885,49.24116322310369,1,b,1.2730843999997887,incorrect,v
149,4F4K,150,2,61.41656217497812,50.26060108991255,1.7931508553000373,52.97268287083804,1,v,0.5463628000006793,correct,v
150,4F4K,151,2,49.62920636831943,59.43482344166469,1.40335128831615,60.79861350317362,2,b,1.1339229000004707,correct,b
151,4F4K,152,1,72.86235410181688,56.99119109441838,2.275006430242404,58.78053027758306,2,n,1.1631525000002512,correct,n
152,4F4K,153,2,56.628004278576746,39.033140484764246,1.6231992778442377,42.90061364351306,1,b,1.558770800000275,incorrect,v
153,4F4K,154,2,69.4791670510703,49.78404623091186,2.1204566828273723,52.55099153149188,1,b,1.4009528000005957,incorrect,v
154,4F4K,155,1,44.9760355799984,35.8221729263682,1.2739256387154394,40.03743543268968,2,n,2.0178883999997197,correct,n
155,4F4K,156,1,26.813581491647383,44.31777344099233,0.8732141687418863,47.658564830537934,1,c,0.6538458000004539,correct,c
156,4F4K,157,1,43.34789192941723,58.281176375494965,1.2315171833432963,59.85307511509595,1,c,1.3909708999999566,correct,c
157,4F4K,158,1,40.2484100562516,55.62312418977748,1.154647356163544,57.62682390943352,1,c,0.5513233000001492,correct,c
158,4F4K,159,2,44.6669379107508,59.28118685581538,1.2657637333160168,60.67346981260537,2,v,1.618569799999932,incorrect,b
159,4F4K,160,1,40.938063207338885,55.62985899443972,1.1713253812202749,57.63254197006093,1,n,1.5951684999999998,incorrect,c
160,4F4K,161,2,50.24580840137137,36.51086075931093,1.421460738971064,40.6482989002494,1,v,4.854093899999498,correct,v
161,4F4K,162,1,47.21525134815208,36.137058308010026,1.3346463761467844,40.316482196313935,2,c,2.732199199999741,incorrect,n
162,4F4K,163,1,56.59301449897311,40.91813189846408,1.6220186805637704,44.59474880687277,2,n,0.7833533000002717,correct,n
163,4F4K,164,2,70.9751849770172,56.23528695390162,2.1874583523359585,58.14504018327216,1,b,1.1399959999998828,incorrect,v
164,4F4K,165,2,57.51897609859844,45.31712182083968,1.6535529944386846,48.55824903086041,1,v,0.46160019999933866,correct,v
165,4F4K,166,1,46.03524444544704,55.94855293621829,1.302295942379447,57.90269822375648,1,c,1.2661355000000185,correct,c
166,4F4K,167,1,25.11410145325697,37.10859481430542,0.8428939563084697,41.18007523941528,1,c,0.7627260999997816,correct,c
167,4F4K,168,2,48.12038007229511,41.602261209417215,1.3600044783916625,45.210948340700746,1,b,1.1329534000005879,incorrect,v
168,4F4K,169,2,44.09368389492975,57.1005658107321,1.2507647942362088,58.87206442774445,2,v,0.5296479999997246,incorrect,b
169,4F4K,170,2,56.70608721284575,41.83279483944804,1.6258369894433982,45.41868800601274,1,b,1.6867577000002711,incorrect,v
170,4F4K,171,2,53.325284570819946,59.88276386015212,1.5154629033008538,61.16207428514715,2,b,0.5696490999998787,correct,b
171,4F4K,172,2,77.09259418764572,58.844419477073146,2.4841939693849087,60.316383783817976,1,v,1.3099068999999872,correct,v
172,4F4K,173,2,43.70127284010816,61.04538748306739,1.2406001334429515,62.09534680979911,2,b,0.9759690000000774,correct,b
173,4F4K,174,1,38.41300159682242,48.334328510578864,1.1114091692954724,51.26220231694843,1,c,2.579674100000375,correct,c
174,4F4K,175,1,34.53989921673814,58.78068484601614,1.0254072309820192,60.264115259735846,1,c,2.1048790000004374,correct,c
175,4F4K,176,1,61.55155699616761,50.70819642992403,1.7981915495598009,53.36775978492394,2,n,0.7091132000005018,correct,n
176,4F4K,177,1,64.27167861151014,47.39887793523669,1.902834856659756,50.42650514325217,2,n,0.5221740999995745,correct,n
177,4F4K,178,1,27.564896198381803,42.50943373847522,0.8869636502276831,46.028599508033054,1,c,0.5162646000007953,correct,c
178,4F4K,179,2,52.54207111223456,67.07120482891662,1.490981269018968,66.66884359896136,2,v,2.2991541000001234,incorrect,b
179,4F4K,180,1,72.74575993410647,62.4638132735542,2.269497341069355,63.21320173799628,2,n,1.2723195999997188,correct,n
180,4F4K,181,1,53.64177493582695,69.53770386401725,1.5254694078923052,68.39588886401008,1,n,0.7394403999996939,incorrect,c
181,4F4K,182,1,54.79515091295408,45.263806865175255,1.5624981995662877,48.51028577405256,2,n,1.9969643999993423,correct,n
182,4F4K,183,2,56.20160011143993,69.60511392756158,1.608870273548429,68.44178836796003,2,v,2.0261019999998098,incorrect,b
183,4F4K,184,1,40.9954146145116,52.18940228409336,1.1727231242691585,54.6676123438627,1,c,1.7655334999999468,correct,c
184,4F4K,185,2,51.30596017435152,66.0087265398605,1.453145138809508,65.89739070275313,2,b,1.7227672999997594,correct,b
185,4F4K,186,1,43.353110651908,56.15409158752588,1.2316508351889042,58.07648573749595,1,n,1.8074411000006876,incorrect,c
186,4F4K,187,2,49.67655701943159,34.84127795719684,1.4047337493394476,39.17116397550882,1,v,1.2674990999994407,correct,v
187,4F4K,188,1,50.32583468603011,30.639636846193547,1.4238281607798535,35.52421365315048,2,n,1.3341819999996005,correct,n
188,4F4K,189,1,33.45698276670345,44.54069882937485,1.002574526098682,47.85936336636262,1,c,0.7590501999993648,correct,c
189,4F4K,190,1,52.53824029389128,66.84223809883804,1.4908625027362,66.50395235141234,1,c,2.7677647999998953,correct,c
190,4F4K,191,2,53.39989454461279,68.3158815244729,1.5178159245774696,67.55180093254312,2,b,1.4251591000002009,correct,b
191,4F4K,192,1,77.00326664572687,66.38117805252975,2.4795838272985606,66.1696434545669,2,n,1.4033442999998442,correct,n
192,4F4K,193,1,30.3135979039,42.75748349651294,0.939137260661515,46.25222426606813,1,c,0.7090560000006008,correct,c
193,4F4K,194,1,51.551728842458026,35.50056918012926,1.4605906145656826,39.752901059005154,2,c,0.6786454000002777,incorrect,n
194,4F4K,195,1,48.483477069714034,36.349341881024266,1.370311905914903,40.50484947129775,2,c,1.3341771999994307,incorrect,n
195,4F4K,196,2,40.75466575390412,48.942136144581866,1.16686687156032,51.803561300526255,2,v,1.33941059999961,incorrect,b
196,4F4K,197,1,48.67455350205496,56.84384546921711,1.3757674284295105,58.657049692582056,1,n,2.11707159999969,incorrect,c
197,4F4K,198,2,58.52218189330539,74.11834765912823,1.6884102079295584,71.34676347835222,2,b,1.2249717999993663,correct,b
198,4F4K,199,1,65.38720265698305,55.90244146636124,1.9474902151399105,57.863661466909605,2,n,1.4447712999999567,correct,n
199,4F4K,200,2,58.21121748518307,72.46259896729114,1.6775276250975857,70.32045038606873,2,b,1.1945997000002535,correct,b
200,4F4K,201,2,55.3904499655432,69.56158437235061,1.5819604137952337,68.4121572141526,2,b,2.2737480000005235,correct,b
201,4F4K,202,1,36.34500216716844,56.81003392064001,1.0646284795722556,58.62868727040616,1,c,1.274873800000023,correct,c
202,4F4K,203,2,51.084356192473656,59.85943575249276,1.446464268957807,61.14319799515433,2,v,1.5271711999994295,incorrect,b
203,4F4K,204,2,55.08489350837839,37.54325100147969,1.571940711937611,41.56761322108114,1,b,1.3638550000005125,incorrect,v
204,4F4K,205,2,55.144180167016216,72.23689712025731,1.5738798448858118,70.17693639542411,2,v,0.8109418000003643,incorrect,b
205,4F4K,206,1,61.808717690053214,74.05674273801577,1.80783314646956,71.30942445466151,1,n,1.5466179999993983,incorrect,c
206,4F4K,207,1,63.84098032522866,54.95049932478695,1.885868928926308,57.05391827852044,2,n,0.6545122000006813,correct,n
207,4F4K,208,1,51.08524541843586,63.76160950923137,1.4464910156805062,64.21474672334574,1,c,1.436115399999835,correct,c
208,4F4K,209,1,51.03965243841553,68.67536990152999,1.445120277281591,67.80252023296538,1,c,0.9032974000001559,correct,c
209,4F4K,210,2,63.01064601633214,51.273148907464375,1.853586421036696,53.8649660174751,1,v,2.573596900000666,correct,v
210,4F4K,211,2,39.77950178289343,52.10968124717004,1.1434434783132823,54.59796932261944,2,v,1.4555947999997443,incorrect,b
211,4F4K,212,2,44.536765251749024,55.57226786756035,1.2623421156110377,57.583633406778105,2,b,1.9047069999996893,correct,b
212,4F4K,213,2,50.7033757014849,37.31201849627952,1.4350502654851107,41.36136261837336,1,b,0.982187999999951,incorrect,v
213,4F4K,214,2,60.372351526102925,53.72865079474933,1.7546345063918118,56.0044115948981,1,v,0.9275556000002325,correct,v
214,4F4K,215,1,60.84342550650804,40.46517399490486,1.7719068530518265,44.18707915182908,2,n,3.0226765999996132,correct,n
215,4F4K,216,1,43.53790436316305,57.242210822405816,1.2363927768099363,58.99044475873725,1,c,0.7022060999997848,correct,c
216,4F4K,217,2,39.48305550395111,31.925445582085494,1.1364164853241556,36.62778011184412,1,b,2.022601599999689,incorrect,v
217,4F4K,218,2,53.91194242814337,60.979087685257504,1.5340635752971143,62.04252806793337,2,v,1.5527096000005258,incorrect,b
218,4F4K,219,2,45.8769230698074,35.799813800770025,1.2980155728694864,40.01763803670685,1,b,1.4861751999997068,incorrect,v
219,4F4K,220,2,51.7034135782533,39.43958184628115,1.465204876091537,43.26530418937629,1,b,1.132877500000177,incorrect,v
220,4F4K,221,2,39.21790162668813,54.25067949592604,1.1301678456197284,56.45414603261244,2,b,1.7292096000001038,correct,b
221,4F4K,222,2,65.88004374889306,48.03291043201535,1.9675513829604108,50.993240750589344,1,b,1.9473975000000792,incorrect,v
222,4F4K,223,1,43.78029788127714,58.65356018557498,1.242640462208725,60.15973962222798,1,c,1.7105548999998064,correct,c
223,4F4K,224,2,58.03608154044296,70.07465084529163,1.671429432894464,68.75951825888973,2,v,2.391577200000029,incorrect,b
224,4F4K,225,2,78.83631668316124,63.4950112184825,2.575923056641908,64.01072286924597,1,v,1.2795937999999296,correct,v
225,4F4K,226,1,55.30243142712197,35.648574538850674,1.579067609207958,39.88378687103774,2,n,1.4665437000003294,correct,n
226,4F4K,227,1,56.71262706152655,43.89523773595351,1.6260581058388954,47.27784478687278,2,n,1.2737209999995684,correct,n
227,4F4K,228,2,65.89507634490334,49.93338476912922,1.9681665239480737,52.68325022914116,1,v,1.6095030000005863,correct,v
228,4F4K,229,2,48.51449398270128,54.58451373248784,1.3711960128177274,56.74071285548402,2,b,0.8244517000002816,correct,b
229,4F4K,230,2,68.099596038936,50.52289956965394,2.060490598769952,53.204324660370425,1,v,0.9714299999996001,correct,v
230,4F4K,231,1,51.35287836712165,32.38871864591961,1.4545635719133978,37.028297684599856,2,n,1.746420099999341,correct,n
231,4F4K,232,2,51.150277219869054,35.06482901221643,1.4484484262169075,39.368175113670304,1,v,1.9338132000002588,correct,v
232,4F4K,233,1,51.96809971268236,43.553497304510046,1.4732915883001674,46.96983359267217,2,n,1.1885797000004459,correct,n
233,4F4K,234,2,48.60311898300087,31.76184749816021,1.3737253268321556,36.48669915149512,1,v,2.1184478000004674,correct,v
234,4F4K,235,2,50.08675310544115,61.242610546030406,1.416767078068757,62.25217344702013,2,b,1.1218380000000252,correct,b
235,4F4K,236,1,58.05374046201776,68.19997057606741,1.6720433061027504,67.47054524932724,1,n,1.3634089000006497,incorrect,c
236,4F4K,237,2,56.047074873861625,49.12538830489495,1.603708848809471,51.96650004219113,1,v,1.1099365999998554,correct,v
237,4F4K,238,1,52.342113560644464,68.6999730926143,1.4847946392336089,67.81960771557188,1,n,1.898574799999551,incorrect,c
238,4F4K,239,1,51.088621079352144,34.68963452967068,1.4465925555297958,39.03767044002875,2,n,1.4490827999998146,correct,n
239,4F4K,240,1,54.76739876951135,33.595696901794895,1.5615967582373764,38.07839135870126,2,n,1.3102411999998367,correct,n
240,4F4K,241,1,41.3260386422333,51.4443826104105,1.1808135316124686,54.01532923775834,1,n,3.63013729999966,incorrect,c
241,4F4K,242,2,60.11180699350475,51.47119608905876,1.7451538282908183,54.038859984978096,1,b,1.5284139999994295,incorrect,v
242,4F4K,243,1,45.27169836527238,34.20820909539268,1.281782031576072,38.614679905381024,2,c,1.7822930000002088,incorrect,n
243,4F4K,244,1,54.83269118687752,32.438702989758056,1.563718405691832,37.07159834175549,2,c,1.5283896999999342,incorrect,n
244,4F4K,245,1,45.716600939281335,62.26962623970005,1.2936954473143756,63.061564205854886,1,c,1.1146157000002859,correct,c
245,4F4K,246,2,55.21617423726372,67.46948290592567,1.576237825027463,66.9538566769601,2,v,1.2990168999995149,incorrect,b
246,4F4K,247,1,61.106791784480016,42.56565210037635,1.7816374062129918,46.07928128648973,2,n,2.8346300000002884,correct,n
247,4F4K,248,2,31.892561515490826,45.61034125361273,0.970484344672485,48.821951381585336,2,v,1.57700130000012,incorrect,b
248,4F4K,249,2,47.28093954441785,59.28091523086376,1.3364706788833849,60.6732483465035,2,b,0.9350014999999985,correct,b
249,4F4K,250,1,57.482975653250215,66.28382232248255,1.6523155943035934,66.09866678263086,1,n,2.0505997000000207,incorrect,c
250,4F4K,251,2,63.13177858870834,48.02458904559389,1.8582612699334,50.98581099412444,1,v,1.3098447000002125,correct,v
251,4F4K,252,1,53.43158482406714,44.52279301140856,1.5188164658163512,47.8432367392203,2,n,1.2859248999993724,correct,n
252,4F4K,253,1,51.17806941317076,35.926727859167244,1.4492857589596635,40.13004138826294,2,n,1.73996679999982,correct,n
253,4F4K,254,1,53.92755977407021,61.44092188011802,1.5345618488371469,62.40941819606564,1,n,0.5526427999993757,incorrect,c
254,4F4K,255,1,42.54040870844339,31.95929374692736,1.2110112448567183,36.6569930140991,2,c,1.4630281000008836,incorrect,n
255,4F4K,256,1,40.89016218214987,55.07655882667429,1.1701592355572372,57.161560432375545,1,c,0.6847141999996893,correct,c
256,4F4K,257,2,56.8178155666187,42.93069344502462,1.6296187298775875,46.408381514761295,1,b,1.4009525999999823,incorrect,v
257,4F4K,258,1,37.82656710028189,24.07714074403385,1.0979383231495787,30.119583158419523,2,c,3.10668429999987,incorrect,n
258,4F4K,259,2,44.49977027276503,57.86509518247152,1.2613713831908189,59.50883352027552,2,b,1.1574395000006916,correct,b
259,4F4K,260,2,50.901271279202426,67.72588964607928,1.4409678410510935,67.13611774565062,2,b,1.189931400000205,correct,b
260,4F4K,261,2,50.44016523739828,31.2533793403902,1.4272172495786306,36.04944094247124,1,b,1.3222458000000188,incorrect,v
261,4F4K,262,1,58.97998139395855,46.92308184761039,1.7045600697268912,50.00042234833551,2,n,1.837897399999747,correct,n
262,4F4K,263,1,37.73571237677213,46.80311823570669,1.095865978492616,49.89289585418896,1,c,0.6848677999996653,correct,c
263,4F4K,264,2,73.05641332517858,62.63385800526918,2.2842054212142657,63.34561311722549,1,v,1.2870066999994378,correct,v
264,4F4K,265,2,47.157714181504375,30.51388195668181,1.3330504910509773,35.4169531388068,1,b,1.607324300000073,incorrect,v
265,4F4K,266,2,54.90684087029541,42.84894187908064,1.5661313618279198,46.33467844775848,1,b,0.9116181999997934,incorrect,v
266,4F4K,267,2,33.21747261792556,43.21361699454782,0.997593644080834,46.663446315138856,2,v,1.1520916999998008,incorrect,b
267,4F4K,268,1,58.97217910612767,47.64569901759548,1.7042835374919227,50.64727846254358,2,n,1.8913944000005358,correct,n
268,4F4K,269,1,43.3356817626963,58.98670240255901,1.2312045367848463,60.43292209393268,1,n,1.0744399000004705,incorrect,c
269,4F4K,270,2,41.00813918661629,60.41744415930416,1.173033467909468,61.59311757809259,2,b,2.318743699999686,correct,b
270,4F4K,271,2,55.7120324420506,43.028545017971794,1.5925746219826362,46.49659907983792,1,v,1.7531297000004997,correct,v
271,4F4K,272,1,74.12891354995094,62.61773880671287,2.3357201107727623,63.333076383362446,2,n,1.8443632999997135,correct,n
272,4F4K,273,1,49.21955395039598,61.24023029338272,1.3914476373517484,62.250283367924055,1,c,1.4569578999999067,correct,c
273,4F4K,274,2,65.76710391906965,54.98552517110786,1.962935975440801,57.08383918953623,1,v,2.1562526999996408,correct,v
274,4F4K,275,1,40.95960189233942,56.79271991197781,1.1718501170447286,58.61415970213563,1,c,2.43405840000014,correct,c
275,4F4K,276,2,35.740624597966885,51.339941001558856,1.0513322974690753,53.92363640224958,2,b,1.716885199999524,correct,b
276,4F4K,277,1,31.95840449197342,52.06189374869328,0.9718140090980224,54.55620476058793,1,c,1.3038675999996485,correct,c
277,4F4K,278,1,45.61402220729739,58.45668694656183,1.290938852181207,59.99778072832613,1,c,0.8064986999997927,correct,c
278,4F4K,279,1,45.95219045502797,31.474998433898826,1.300048741301841,36.23979171088346,2,n,1.2990440000003218,correct,n
279,4F4K,280,2,33.17951710310352,46.97273893863726,0.9968065912219444,50.04492021589428,2,b,1.3341954999996233,correct,b
280,4F4K,281,1,68.08621224806915,49.750853198973154,2.0599172273222965,52.52158112697128,2,n,2.1719193999997515,correct,n
281,4F4K,282,1,40.7130876909492,50.56763347775716,1.16585844436762,53.24379649182093,1,c,1.1035860000001776,correct,c
282,4F4K,283,1,46.13089000297972,66.04363694665369,1.3048886477098276,65.92299179383994,1,c,1.1096419999994396,correct,c
283,4F4K,284,2,73.61253710391445,57.5775197558377,2.310773913383611,59.2699497897209,1,v,1.4569695999998657,correct,v
284,4F4K,285,2,54.73516324221253,47.14977692996534,1.5605503411003792,50.2035102415612,1,v,1.2615283000004638,correct,v
285,4F4K,286,2,61.73487420736786,47.50568963729122,1.805059290940528,50.52206732617094,1,v,1.0003686999998536,correct,v
286,4F4K,287,1,48.25173346622652,34.82049888087638,1.3637242956716351,39.152864816771135,2,n,2.062488300000041,correct,n
287,4F4K,288,1,63.45323317942018,48.482789457000266,1.87072435169488,51.39455947581977,2,n,0.7945111999997607,correct,n
288,4F4K,289,1,48.47025130001747,62.032681571286425,1.3699350916078736,62.875926933446735,1,c,0.8790483000002496,correct,c
289,4F4K,290,1,65.88290975636363,52.320127025904185,1.967668646515908,54.78172861319819,2,n,0.8075651999997717,correct,n
290,4F4K,291,2,35.01242585029262,46.15805133421424,1.035532458740194,49.31410047863718,2,v,1.7468900000003487,incorrect,b
291,4F4K,292,2,55.237893614796775,38.93521492490743,1.5769498806363065,42.81280705007352,1,v,1.4993635000000722,correct,v
292,4F4K,293,1,59.28121082453574,47.085466398364986,1.7152707566186522,50.14591101369472,2,n,2.6464507999999114,correct,n
293,4F4K,294,2,48.58274109808339,64.44560497710977,1.3731433392553956,64.73402288976143,2,b,1.0609592000000703,correct,b
294,4F4K,295,1,55.79975663388016,39.345301274808,1.5954824054097176,43.18067407264737,2,n,1.4665046000000075,correct,n
295,4F4K,296,1,63.2661648353545,78.47461233450045,1.8634614127501228,73.81448223352366,1,n,0.8122363000002224,incorrect,c
296,4F4K,297,1,49.58982695671964,39.24330743532126,1.4022025938403324,43.08914309565217,2,n,0.9523485999998229,correct,n
297,4F4K,298,1,61.3134773815202,48.59739000145089,1.7893111954063092,51.49667421439537,2,n,0.5648163000005297,correct,n
298,4F4K,299,1,49.73602360363634,30.106967872223738,1.4064718794036506,35.070741718298024,2,c,1.078572599999461,incorrect,n
299,4F4K,300,2,47.38776092553602,38.20593624417332,1.339442664994567,42.15969749029512,1,b,1.1645217000004777,incorrect,v
300,4F4K,301,2,67.70495553260484,56.8971245329656,2.0436507474818355,58.701721644185824,1,v,0.7104849000006652,correct,v
301,4F4K,302,2,37.46435718378953,52.179400724756526,1.089699778837109,54.65887722952426,2,b,1.2371348999995462,correct,b
302,4F4K,303,2,58.64325252025622,44.33315906377559,1.6926662927974223,47.67242492817675,1,v,1.3051860000005036,correct,v
303,4F4K,304,2,53.91714369348922,38.03954202546303,1.534229504402003,42.010898387749954,1,b,2.295173999999861,incorrect,v
304,4F4K,305,1,62.10848316973318,48.96437199218635,1.81913737578116,51.82333945530615,2,n,0.9774814000002152,correct,n
305,4F4K,306,2,46.81952804821093,65.51858127484556,1.3237088549941105,65.5361667793796,2,b,0.9761313999997583,correct,b
306,4F4K,307,1,39.42204151918353,28.413055992243017,1.1349755710164706,33.64442788795137,2,c,1.614755900000091,incorrect,n
307,4F4K,308,2,40.66186278677687,54.61164512411959,1.164617242529398,56.76396634141022,2,b,1.1035658000000694,correct,b
308,4F4K,309,2,58.55836891421111,69.87635735500513,1.6896811943989576,68.6257587480514,2,b,2.816288500000155,correct,b
309,4F4K,310,1,51.06481422346063,42.46742494833277,1.4458765976217651,45.99072835354885,2,n,1.303956499999913,correct,n
310,4F4K,311,2,45.44855596657858,57.31358050599215,1.2865046565762752,59.05002317328776,2,b,0.7407710999996198,correct,b
311,4F4K,312,1,52.719464070001386,63.25416406502658,1.4964913316267068,63.82563391074842,1,c,0.6363480999998501,correct,c
312,4F4K,313,1,41.15089591077444,26.776978437583804,1.1765208414077888,32.291656565164615,2,c,1.0198717000002944,incorrect,n
313,4F4K,314,1,60.317723271321775,46.24087181897625,1.7526424388461517,49.38846600127134,2,n,0.8365503000004537,correct,n
314,4F4K,315,2,59.49103041918251,45.52482219983276,1.7227709630573111,48.74505633697857,1,b,0.732144800000242,incorrect,v
315,4F4K,316,1,53.191653215075846,32.01630089397508,1.5112576018389805,36.70621151267168,2,n,1.0017587000002095,correct,n
316,4F4K,317,2,41.952854867818814,56.75772183812314,1.1963053250869788,58.58478598363482,2,b,1.6379573999993227,correct,b
317,4F4K,318,1,59.08342525416917,50.23176176134959,1.708230617867894,52.94719389341992,2,c,0.7939386999996714,incorrect,n
318,4F4K,319,1,26.02020361245001,45.50539094214544,0.8589262147125674,48.727582802538514,1,c,0.6619010000003982,correct,c
319,4F4K,320,1,45.548202605695735,59.71997090019218,1.2891731784114455,61.03022755983026,1,c,1.454620999999861,correct,c
320,4F4K,321,2,55.851800776123206,43.23223328890646,1.5972100150313722,46.68022902028166,1,v,4.089974800000164,correct,v
321,4F4K,322,1,51.11042843242777,36.84406098957539,1.447248692290851,40.94455925933097,2,n,1.686225800000102,correct,n
322,4F4K,323,1,27.59893293279983,41.91818835985024,0.8875916422457473,45.49564768909663,1,c,0.8124387999996543,correct,c
323,4F4K,324,1,72.31024331475079,53.34197679757451,2.2490368498060818,55.67005823399219,2,n,2.434075699999994,correct,n
324,4F4K,325,2,37.503740482666245,52.37121228936517,1.0905925569100683,54.82629533684835,2,b,1.1085402999997314,correct,b
325,4F4K,326,2,52.527750074443965,37.47756016409135,1.4905373244680584,41.50900039014914,1,b,1.1217587000001004,incorrect,v
326,4F4K,327,2,56.40654557604308,41.06279262273011,1.6157414611295775,44.725003354356254,1,v,0.8657886000000872,correct,v
327,4F4K,328,1,37.63734899391306,56.44098227113881,1.0936267751322113,58.31846033404207,1,c,1.473769999999604,correct,c
328,4F4K,329,2,44.12013091021026,28.992190718519478,1.2514528417914272,34.12927065729795,1,b,1.2128559999991921,incorrect,v
329,4F4K,330,2,40.29061313076477,55.97663851313136,1.1556611058939257,57.92646606497161,2,v,1.182468300000437,incorrect,b
330,4F4K,331,1,30.35268785685669,46.92000754860673,0.9399009512806262,49.99766724471383,1,c,1.0915073999995002,correct,c
331,4F4K,332,2,58.626707076976025,38.920995273742825,1.6920840263556225,42.80005878087604,1,b,1.8439852000001338,incorrect,v
332,4F4K,333,2,62.16611215784724,42.43639964516103,1.8213186660078804,45.96275915780498,1,v,0.563841300000604,correct,v
333,4F4K,334,2,54.49893285413464,42.80563689492571,1.5529032896484027,46.2956368614888,1,v,0.5587654000000839,correct,v
334,4F4K,335,2,61.37822393803577,41.02210681739899,1.7917218870555696,44.68836672642281,1,v,0.49197430000003806,correct,v
335,4F4K,336,2,46.16820026003866,55.18519846660694,1.3059014318535498,57.25422844868651,2,b,0.8790525000003981,correct,b
336,4F4K,337,2,59.54033811203709,71.9646809384827,1.724538268465457,70.0027117995304,2,b,1.6437019000004511,correct,b
337,4F4K,338,2,60.05311063949082,40.68444773646324,1.7430250690707223,44.384392995183326,1,v,1.0758878999995432,correct,v
338,4F4K,339,2,31.51503981494425,48.75730380700119,0.9628955359720964,51.6390833600259,2,v,1.1876910000000862,incorrect,b
339,4F4K,340,1,42.48035496154208,63.969601129526986,1.2094998990012715,64.37328991072467,1,n,2.4280478999999104,incorrect,c
340,4F4K,341,1,72.49453700755183,52.21558066980008,2.2576723240678485,54.69047305167152,2,n,0.866948500000035,correct,n
341,4F4K,342,2,50.16515308549959,34.00121091885247,1.4190786913643074,38.43320018412256,1,b,1.1898270000001503,incorrect,v
342,4F4K,343,1,48.52520944296904,39.174465897130986,1.371501579130619,43.02737733013083,2,c,1.7651169000000664,incorrect,n
343,4F4K,344,2,57.96917571947166,71.23170936936923,1.6691056444348815,69.52748930572282,2,v,1.0670789999994668,incorrect,b
344,4F4K,345,2,51.83971867291241,65.01131184433387,1.4693637215650617,65.15886276830814,2,b,0.6922715000000608,correct,b
345,4F4K,346,1,38.9527783784871,57.59847117001214,1.1239542802171236,59.28737989061597,1,n,1.8136089999998148,incorrect,c
346,4F4K,347,1,51.35836336101964,28.5071585642428,1.4547294848838568,33.72300372976738,2,n,1.0003999000000476,correct,n
347,4F4K,348,1,50.900204227036895,30.82306118694288,1.4409358681652114,35.68088300388429,2,n,0.7018123999996533,correct,n
348,4F4K,349,2,36.960119643138846,54.79497287137588,1.078333615715764,56.92094544865499,2,b,1.545398600000226,correct,b
349,4F4K,350,1,37.81382587392065,24.889027451862265,1.0976474669264298,30.764357212092435,2,c,1.5452947000003405,incorrect,n
350,4F4K,351,2,45.93696745814734,64.20184057337372,1.2996372716847608,64.5496574963744,2,v,0.9594009000002188,incorrect,b
351,4F4K,352,2,43.84434023878566,61.06089306609033,1.2442964179657845,62.10769241163778,2,b,2.148831600000449,correct,b
352,4F4K,353,2,53.50974210733221,35.00861983889554,1.5212869064991363,39.31861512035508,1,v,1.0489524999993591,correct,v
353,4F4K,354,1,33.33684001305942,56.771908597511455,1.0000729220136388,58.59669416595474,1,c,1.114447900000414,correct,c
354,4F4K,355,2,44.68575183818629,58.32225972279818,1.2662590281344768,59.8869746002783,2,b,1.3158800999999585,correct,b
355,4F4K,356,2,65.25098067366221,56.79422805700836,1.9419814502066164,58.61542523823756,1,v,0.9568403000002945,correct,v
356,4F4K,357,2,60.58012550034484,45.32754281991541,1.7622318725749553,48.56762345217462,1,v,1.2551253000001452,correct,v
357,4F4K,358,2,36.32527034059997,52.41906319080749,1.0641917395518836,54.868025919969206,2,b,0.4919634000007136,correct,b
358,4F4K,359,1,78.88050110882571,60.83362500263252,2.57829087478611,61.92646986789781,2,n,0.880391900000177,correct,n
359,4F4K,360,1,41.10204360502494,34.93547623318058,1.175326273520628,39.25414793113916,2,c,1.1460324999998193,incorrect,n
360,4F4K,361,2,29.290356485986848,41.48723777217388,0.9193656661315044,45.1073135736692,2,b,3.8236111999995046,correct,b
361,4F4K,362,2,79.28301166079073,61.46819476353498,2.599961661675782,62.431008052398816,1,v,0.721261400000003,correct,v
362,4F4K,363,1,33.140247422424125,50.71774223545728,0.995992941128956,53.37617467291376,1,c,0.9944783000000825,correct,c
363,4F4K,364,1,26.18162517760896,41.27408920234396,0.8618141883357245,44.91530117674744,1,c,1.36452780000036,correct,c
364,4F4K,365,1,66.9725424713957,58.32956492729757,2.012761559078263,59.89300069224395,2,n,1.1342734999998356,correct,n
365,4F4K,366,1,74.30065499730415,54.14822988277419,2.344076494123949,56.36603826238945,2,c,0.8379476000000068,incorrect,n
366,4F4K,367,1,68.56446458744811,51.95419721943937,2.0805052625501665,54.46203233451703,2,c,0.4724280999998882,incorrect,n
367,4F4K,368,1,64.74311131665777,46.85454558322276,1.921580398225544,49.93899610588928,2,n,0.5405132999994748,correct,n
368,4F4K,369,2,58.85237451326857,41.94680591665575,1.700042997405787,45.52143986922152,1,v,1.437203700000282,correct,v
369,4F4K,370,2,64.81284284867422,52.275971863204944,1.9243687617298575,54.743194895465,1,v,0.6862202000002071,correct,v
370,4F4K,371,1,34.65801910459759,54.35546389734971,1.0279289668230307,56.54418260791063,1,c,1.1340632999999798,correct,c
371,4F4K,372,2,42.900415739773,59.498979953140505,1.2201110581666998,60.85079937389582,2,b,0.8911942000004274,correct,b
372,4F4K,373,1,33.65021970307632,52.23654760665765,1.006611225114407,54.70877979925044,1,c,2.6404225999995106,correct,c
373,4F4K,374,1,43.81130679352609,32.06912281987716,1.2434419903323946,36.75183675348623,2,c,0.8428518000000622,incorrect,n
374,4F4K,375,2,57.424757507146815,69.13216560249694,1.6503164910107648,68.11826681393289,2,v,1.0442082999998092,incorrect,b
375,4F4K,376,1,46.79691677873228,65.6417250559505,1.3230866090998492,65.62723191735337,1,n,1.4980786999994962,incorrect,c
376,4F4K,377,2,61.01253645179396,73.92652970139044,1.778148844315851,71.23028412005429,2,v,0.9813293999995949,incorrect,b
377,4F4K,378,1,42.81028550205448,61.95332502795704,1.217826460754472,62.81360509450536,1,c,1.2295956000007209,correct,c
378,4F4K,379,2,54.330050873743694,68.13120172065602,1.5474593652693156,67.42224181034597,2,b,1.231119399999443,correct,b
379,4F4K,380,2,45.84075370790452,55.49843056945564,1.297039675482817,57.52088871306355,2,b,0.9706662000007782,correct,b
380,4F4K,381,2,29.07162038940309,42.76484640563558,0.9151934371365688,46.25886227341406,2,b,1.8743618999997125,correct,b
381,4F4K,382,1,35.067705404045014,50.83364200240028,1.0367234939395706,53.478306400657466,1,n,2.2393224999996164,incorrect,c
382,4F4K,383,1,67.07214642058102,50.73928387430051,2.016934722936628,53.39516251405135,2,n,1.6861879999996745,correct,n
383,4F4K,384,1,27.62579604510045,43.97824828636081,0.8880875918548112,47.35265139273673,1,c,1.7664930999999342,correct,c
384,4F4K,385,1,41.7121043454008,52.23507671507937,1.1903312683007647,54.70749561416825,1,c,0.8292116000002352,correct,c
385,4F4K,386,2,78.75936081149196,65.48419936064056,2.571804226143465,65.51070417874563,1,v,1.0602921999998216,correct,v
386,4F4K,387,1,61.81573436116286,74.8328026628322,1.8080969422624056,71.77493617808334,1,n,1.2856864000004862,incorrect,c
387,4F4K,388,2,64.18655118686875,41.11876451028895,1.8994694854345495,44.7754078992843,1,b,1.9120983000002525,incorrect,v
388,4F4K,389,1,60.47197434730047,47.2142483738216,1.7582731719286546,50.26124200523636,2,n,1.75904250000076,correct,n
389,4F4K,390,1,59.38626103109564,70.35653985552398,1.7190217884121484,68.9485947376444,1,n,1.9350471999996444,incorrect,c
390,4F4K,391,1,40.73690820312769,60.4879098952446,1.1664360763063495,61.64969356097738,1,c,0.9032490999998117,correct,c
391,4F4K,392,1,58.19078076002389,46.52018403275952,1.676814878056262,49.63915034353292,2,c,2.191563700000188,incorrect,n
392,4F4K,393,2,24.14683318583463,43.449949235645896,0.8261095391309975,46.87649389850073,2,v,0.909412599999996,incorrect,b
393,4F4K,394,1,65.5469343603223,53.20370838783007,1.9539696120300756,55.55025286672521,2,n,2.526156799999626,correct,n
394,4F4K,395,2,40.174272224300005,52.48970712994965,1.152868662163137,54.92960845785976,2,b,2.3612167000001136,correct,b
395,4F4K,396,1,52.26521351207822,33.7643246630513,1.4824222140325156,38.22581733877973,2,n,1.547950199999832,correct,n
396,4F4K,397,1,41.32356630025523,29.58174298598204,1.1807528264792877,34.62586176340648,2,n,1.983617800000502,correct,n
397,4F4K,398,2,70.13507822394129,52.68046280041261,2.1495763394812832,55.09574108259604,1,v,1.0671607999993284,correct,v
398,4F4K,399,2,54.52366898978626,72.81193572500075,1.5537022673873144,70.54088623511088,2,v,1.2311632000000827,incorrect,b
399,4F4K,400,1,41.44648114951563,55.45403223960989,1.1837746228591255,57.48313921260485,1,n,1.6329254000002038,incorrect,c
