,condition,trial,sub_task,x,y,xt,yt,cat,resp,rt,acc,correct_resp
0,4F4K,1,2,56.46933911048018,61.00756823164327,1.617852601379407,60.918543090859615,2,b,5.0,NA,b
1,4F4K,2,1,71.3100335090875,57.96346671836852,2.202742730604665,58.53997900516361,2,n,1.4422087999992073,correct,n
2,4F4K,3,1,36.28258683212076,56.49089363586612,1.063247604789254,57.35794580201584,1,c,1.6752704000009544,correct,c
3,4F4K,4,2,55.34702870985795,43.27052130606355,1.5805326753494218,46.16530889786507,1,b,1.6922426000000996,incorrect,v
4,4F4K,5,1,44.84077103565124,61.00307726327609,1.2703474426754018,60.91510415777199,1,c,1.4373962999998184,correct,c
5,4F4K,6,1,61.981484410435314,45.45943118686304,1.8143396175353812,48.06010851508624,2,n,1.4980040999998891,correct,n
6,4F4K,7,2,62.95024204192913,56.89726347872471,1.851259656974663,57.6860174097335,1,v,1.8976939999993192,correct,v
7,4F4K,8,1,66.29399338138882,48.13260408948563,1.984560854058062,50.362870710541074,2,n,1.2627823000002536,correct,n
8,4F4K,9,2,50.39353044678239,57.13724684723279,1.425833886205195,57.87910100335565,2,v,2.5675842000000557,incorrect,b
9,4F4K,10,1,42.221832647911945,52.732524304997575,1.203015290451812,54.26376247912745,1,n,2.0260795000012877,incorrect,c
10,4F4K,11,2,39.3290305337228,56.39691836431595,1.1327825259481634,57.28188056590586,2,b,2.410909199999878,correct,b
11,4F4K,12,2,65.39908552640664,49.864719999276446,1.9479714942178457,51.84316229463512,1,v,2.1110595999998623,correct,v
12,4F4K,13,2,54.01174282853206,69.87750070645792,1.5372505093684683,67.22456947972647,2,b,1.2027839000002132,correct,b
13,4F4K,14,2,39.1283283031194,59.12043265122782,1.1280647261180925,59.4548418052917,2,v,1.6256216000001587,incorrect,b
14,4F4K,15,1,45.62942434686789,30.43030254572501,1.291352378343809,35.23863372731969,2,c,2.647322200000417,incorrect,n
15,4F4K,16,1,70.90030076448753,53.23224132045424,2.1840547510111987,54.68082252179997,2,c,2.1595075000004726,incorrect,n
16,4F4K,17,2,30.977190937850985,55.360067324936274,0.9521862679171326,56.43789971132272,2,b,1.0427915999989636,correct,b
17,4F4K,18,1,57.74121481621205,37.01819490451221,1.6612122833311502,40.76859597640942,2,n,1.5466169999999693,correct,n
18,4F4K,19,1,46.299214905971766,62.06477682385805,1.3094640451603436,61.72190893877709,1,c,1.0550309000009293,correct,c
19,4F4K,20,2,40.4202256465486,50.24177023716,1.1587800640164407,52.16377219710481,2,v,1.4010888000011619,incorrect,b
20,4F4K,21,2,55.98660736991349,66.07361988952948,1.601693634336469,64.6473355462052,2,v,1.534395399999994,incorrect,b
21,4F4K,22,2,52.08980556653148,71.9855507070654,1.477024919890611,68.560085224242,2,b,2.446149699999296,correct,b
22,4F4K,23,1,57.21810227685116,50.0789186490799,1.643239843734481,52.02537585642197,2,n,2.5675310999995418,correct,n
23,4F4K,24,1,45.86727090372118,67.92806616655544,1.2977550728129987,65.9296070429871,1,c,0.8549075999999332,correct,c
24,4F4K,25,1,63.36749136064779,46.63135750555803,1.867391913514556,49.07178103992594,2,n,0.6874626000007993,correct,n
25,4F4K,26,2,51.26808363370901,35.34712937288948,1.4520010624868056,39.34402357093917,1,v,1.7043087999991258,correct,v
26,4F4K,27,1,30.3232016125944,46.149893715917386,0.9393248283954316,48.65648956367679,1,c,1.5102260999992723,correct,c
27,4F4K,28,1,40.050321345685255,54.23610437719895,1.1499009854716429,55.51373409770998,1,n,1.6254998999993404,incorrect,c
28,4F4K,29,1,48.83211778923365,34.56260093808435,1.380282464206004,38.67953843875471,2,n,0.8790394999996352,correct,n
29,4F4K,30,2,52.28471889139988,66.93291343040968,1.4830236108271189,65.24741978512938,2,v,2.8574840999990556,incorrect,b
30,4F4K,31,1,60.951345240747074,69.30396671072263,1.7758877035519085,66.84941399797756,1,n,1.2674413999993703,incorrect,c
31,4F4K,32,1,27.267752417591065,45.47759954837874,0.8815000597992547,48.07581212659669,1,c,1.4374182000010478,correct,c
32,4F4K,33,2,56.55632368973308,38.10987987885181,1.6207816107976385,41.70491790649999,1,b,1.467654500000208,incorrect,v
33,4F4K,34,1,60.58873086795939,66.33479780571523,1.762547240886596,64.83078992263154,1,c,2.0564524000001256,correct,c
34,4F4K,35,1,56.39976020265832,63.51946985914156,1.6155134995290488,62.80637418782624,1,c,3.0045357999988482,correct,c
35,4F4K,36,2,37.501937919309256,55.883903582090745,1.0905516787213638,56.8653639857693,2,v,1.8318830000007438,incorrect,b
36,4F4K,37,1,69.51968060585632,60.6287810889029,2.1222438263103665,60.62772589591616,2,n,2.682935400000133,correct,n
37,4F4K,38,2,53.76322389178293,38.4970981894068,1.5293267887077375,42.03791963786851,1,b,1.2384653000008257,incorrect,v
38,4F4K,39,1,58.99746320818305,44.986013095332325,1.7051798310467126,47.65073664397798,2,c,2.6646681999991415,incorrect,n
39,4F4K,40,2,43.58370063268575,57.22928314814168,1.237570762689877,57.95301845478557,2,v,0.8608271000011882,incorrect,b
40,4F4K,41,2,27.78943592578881,49.53684688748694,0.8911147198842378,51.56386336720082,2,v,5.0,incorrect,b
41,4F4K,42,1,44.44727475620663,60.81048313799725,1.259995204325399,60.76742139266898,1,c,1.443428499998845,correct,c
42,4F4K,43,1,38.90280367094039,43.98483598622575,1.1227868794245153,46.78410099704873,1,c,1.1885495000005903,correct,c
43,4F4K,44,2,53.22483098441944,39.88392442858899,1.512300596820837,43.23366417931705,1,b,1.5296744999996008,incorrect,v
44,4F4K,45,2,56.90832382783219,48.74883581585838,1.632688668513061,50.89080920239393,1,v,0.9397597000006499,correct,v
45,4F4K,46,2,66.94470194951646,44.18040136786278,2.0115966535379703,46.95346096327789,1,v,0.9592845000006491,correct,v
46,4F4K,47,1,34.046596130181726,57.24966204849384,1.0149424210945708,57.969375443151264,1,n,0.8189163000006374,incorrect,c
47,4F4K,48,2,51.88168846309843,39.67882878980501,1.470646649769919,43.056561828722366,1,v,0.558770599998752,correct,v
48,4F4K,49,2,47.10269458002618,27.464829131156243,1.3315262195114987,32.846972788645715,1,b,1.1511756999989302,incorrect,v
49,4F4K,50,2,38.533845614432856,52.34923531272545,1.1142055199262295,53.942836214294026,2,v,1.2627476999987266,incorrect,b
50,4F4K,51,1,41.70402201701842,30.98657057373171,1.190131229356108,35.6951777897768,2,c,2.007881300000008,incorrect,n
51,4F4K,52,2,48.63963331420318,32.95277622602911,1.374768784561873,37.32627435282311,1,v,1.4921921000004659,correct,v
52,4F4K,53,1,45.68107853086478,34.04183057855967,1.2927401891041668,38.24018324465193,2,n,1.4130836999993335,correct,n
53,4F4K,54,1,37.49318808440604,49.497197022611566,1.0903532733999632,51.53005688153223,1,c,1.1898913999993965,correct,c
54,4F4K,55,2,60.49538189489552,54.8989183518993,1.7591292131547702,56.059848138254345,1,v,0.9762173000017356,correct,v
55,4F4K,56,1,48.34967516274408,57.17072967744498,1.3665045417826889,57.90600072822792,1,c,1.9606383999998798,correct,c
56,4F4K,57,2,51.54063870842912,43.56443462082616,1.4602538224312858,46.41994730502535,1,b,0.9702961000002688,incorrect,v
57,4F4K,58,1,42.13245284302262,49.098276138110336,1.2007814418387504,51.18957165064448,1,c,2.1306693000005907,correct,c
58,4F4K,59,2,51.50886856447571,29.87208805089229,1.4592894366434033,34.78286020995222,1,v,1.1389493999995466,correct,v
59,4F4K,60,2,54.30734367579269,41.04850702851674,1.5467288538886008,44.24061831527908,1,b,1.7529724999985774,incorrect,v
60,4F4K,61,1,61.92844863063099,53.61567431934654,1.81233977961072,54.99975326738927,2,c,0.698381000000154,incorrect,n
61,4F4K,62,1,53.96507639416834,47.494586217076446,1.5357594831592138,49.81495247089334,2,c,1.273388600000544,incorrect,n
62,4F4K,63,2,51.97338213512862,69.8486999100241,1.47345343073646,67.20584860293053,2,v,2.137127400001191,incorrect,b
63,4F4K,64,2,59.03849122901741,46.99016096981669,1.70663523229622,49.38091879249987,1,v,1.498081199999433,correct,v
64,4F4K,65,2,51.60618289842676,40.72934817332715,1.4622454368574471,43.96446373003331,1,v,1.5101966999991419,correct,v
65,4F4K,66,2,41.95100101276731,61.53056939973065,1.1962592086064971,61.317521005336665,2,b,0.872961099999884,correct,b
66,4F4K,67,2,72.22167563666984,53.70228695198632,2.244898581120264,55.071661945680304,1,v,1.3849213000012242,correct,v
67,4F4K,68,1,45.44567202605468,61.09980607167384,1.2864275073889515,60.98912528343829,1,n,1.3342044000000897,incorrect,c
68,4F4K,69,1,51.97140180382107,31.890696161672267,1.473392755421219,36.441982922618784,2,c,2.4170310999998037,incorrect,n
69,4F4K,70,2,40.58158055725253,51.06892808059095,1.1626746268205683,52.86478199583825,2,b,2.8475687999998627,correct,b
70,4F4K,71,1,52.21559896068237,60.325848408352,1.480893579429962,60.39404765051687,1,n,2.347892399999182,incorrect,c
71,4F4K,72,2,56.39742285281268,71.03288202199235,1.6154349813039488,67.96511845226983,2,b,2.0443189999987226,correct,b
72,4F4K,73,1,41.68423636512102,54.02847645616892,1.189641673113336,55.342022388995375,1,c,0.9714674999995623,correct,c
73,4F4K,74,1,47.28508192658868,35.348344536943344,1.3365858053085928,39.34505510256256,2,c,2.597865700001421,incorrect,n
74,4F4K,75,2,42.3197179773759,52.03926402027378,1.2054664836411515,53.68266633238324,2,v,2.434099199999764,incorrect,b
75,4F4K,76,1,37.62718695669635,58.11348203250067,1.0933957013111322,58.659312509901326,1,n,1.4563866999997117,incorrect,c
76,4F4K,77,2,53.55702596946921,31.51125356790598,1.5227834326523746,36.127867116814286,1,v,1.1400006000003486,correct,v
77,4F4K,78,2,43.2856962426912,34.79250832394376,1.22992546343637,38.87395205420963,1,b,1.7955461999990803,incorrect,v
78,4F4K,79,2,54.96428174742936,66.44842101961262,1.5680031442411615,64.91031234660694,2,b,1.0017669000008027,correct,b
79,4F4K,80,2,53.161263529797424,64.61846627123418,1.5103028858392855,63.60870577624641,2,v,3.6720908999996027,incorrect,b
80,4F4K,81,2,47.17454630761896,38.353002354282125,1.3335171593480282,41.91394982230642,1,v,1.394017900000108,correct,v
81,4F4K,82,1,53.08887529769292,69.44586729979953,1.5080311809444835,66.9426920855666,1,c,2.9802370999987033,correct,c
82,4F4K,83,1,40.11346014470223,54.91956564483132,1.1514117215817885,56.076808884045,1,n,1.0732717999999295,incorrect,c
83,4F4K,84,2,36.67433039933634,53.24928424140877,1.0719442770103302,54.69501865953153,2,v,1.6702873000012914,incorrect,b
84,4F4K,85,2,60.990884588876185,48.94161539091514,1.7773484346359871,51.05568789495484,1,v,0.8364856999996846,correct,v
85,4F4K,86,2,52.50241462357732,32.28429875791433,1.4897522627275142,36.76884758563996,1,b,1.3888250999989395,incorrect,v
86,4F4K,87,1,58.00042495659597,43.26558445527033,1.6701905978048528,46.16103151068996,2,c,1.000276799999483,incorrect,n
87,4F4K,88,2,42.744998516548094,29.49357605270033,1.2161742556045885,34.47521209647413,1,b,2.3855203000002803,incorrect,v
88,4F4K,89,2,40.2850698761406,27.66001015989305,1.155527901972328,33.002030191981554,1,b,1.267435599998862,incorrect,v
89,4F4K,90,2,47.13669990098978,37.44526995330598,1.3324681023309848,41.1344197528754,1,v,0.831725699999879,correct,v
90,4F4K,91,1,39.86197443813993,52.2795719756106,1.1454061327891598,53.884413799347534,1,n,1.692301099999895,incorrect,c
91,4F4K,92,2,31.213696799922158,53.3785327637854,0.9568806551114218,54.80261720608518,2,v,1.7483002000008128,incorrect,b
92,4F4K,93,1,52.04453486418807,38.22429047704793,1.4756351356932813,41.80326460534164,2,c,0.9995075999995606,incorrect,n
93,4F4K,94,1,73.38635718505358,60.09444127920434,2.299931216622482,60.214895461593656,2,n,1.8332676000009087,correct,n
94,4F4K,95,1,75.3151349301929,63.73024890276045,2.394051268573492,62.96141340693986,2,c,2.2872795000002952,incorrect,n
95,4F4K,96,1,41.73740131909463,30.87650659676425,1.1909575898570102,35.60466321167435,2,n,3.278894900000523,correct,n
96,4F4K,97,2,50.46636980118701,65.65214762717767,1.4279951644379212,64.34936223380811,2,b,1.8246349000000919,correct,b
97,4F4K,98,1,33.54035174559585,44.53551316059772,1.0043141059408378,47.26090412581885,1,n,1.813622800000303,incorrect,c
98,4F4K,99,1,51.97506279256572,39.5273433556248,1.4735049263125035,42.92580587361683,2,c,2.6343553999995493,incorrect,n
99,4F4K,100,1,32.374872400964506,55.29538141963871,0.9802666673532744,56.38496684620714,1,n,1.686131899999964,incorrect,c
100,4F4K,101,2,62.52533937147118,43.0488765167421,1.8349747118561,45.97326629627632,1,v,1.5283918999994057,correct,v
101,4F4K,102,1,66.71925078826024,55.597076290919176,2.002188108219577,56.631570611554125,2,c,2.5370710999995936,incorrect,n
102,4F4K,103,2,60.96110348495864,52.47544554439988,1.7762480978922408,54.048608389362926,1,v,2.641296899999361,correct,v
103,4F4K,104,2,25.76170561285964,39.99206185927414,0.8543216026357445,43.32707388913088,2,b,2.7192552000014985,correct,b
104,4F4K,105,2,48.89116914336154,56.728940110087954,1.381978407074573,57.55029516605333,2,v,1.3950452999997651,incorrect,b
105,4F4K,106,1,40.61455586448817,59.15152390541848,1.1634721488133202,59.47924982288003,1,c,1.407036100001278,correct,c
106,4F4K,107,2,46.51350019109216,42.706125150867685,1.3153119540404667,45.67628256471806,1,b,1.0304986999999528,incorrect,v
107,4F4K,108,2,51.37808218855727,42.349609803389,1.4553261066428276,45.36738490718027,1,v,1.284602100000484,correct,v
108,4F4K,109,1,50.18107454734418,31.146738285920577,1.41954859416071,35.82705422301495,2,c,2.7435261999999057,incorrect,n
109,4F4K,110,2,42.57233570514834,24.446047299717986,1.2118155060830376,30.496498128674368,1,b,1.7460148000009212,incorrect,v
110,4F4K,111,2,43.66320604552863,57.01831509654131,1.2396184918071878,57.78347402189411,2,v,0.9160863999986759,incorrect,b
111,4F4K,112,2,49.23944503596973,31.510630522478564,1.3920232918326252,36.12735215525045,1,b,0.8183529999987513,incorrect,v
112,4F4K,113,2,41.01013179597295,53.46082811738104,1.173082073730313,54.87107116691129,2,v,1.1582209000007424,incorrect,b
113,4F4K,114,2,48.67883054049514,62.48371504483645,1.3758897925816755,62.036768336178,2,b,2.3442470000009052,correct,b
114,4F4K,115,2,37.952564367242,54.25914776783355,1.100818736687273,55.53277286414982,2,v,3.9503960000001825,incorrect,b
115,4F4K,116,1,50.68026838954066,39.99888310007474,1.4343608851025835,43.3329668256947,2,n,1.6743845000000874,correct,n
116,4F4K,117,1,43.57078524165952,56.529874502052174,1.2372384354057595,57.38947608369455,1,c,1.4071108999996795,correct,c
117,4F4K,118,2,56.639553566708656,38.19396439998936,1.6235891533257345,41.777192755353695,1,b,1.4508720000012545,incorrect,v
118,4F4K,119,2,47.316613581086415,59.60880421784908,1.3374624683683387,59.8371299336566,2,v,1.290684699999474,incorrect,b
119,4F4K,120,2,57.546231166266026,35.09157477628652,1.6544904165068686,39.12724252222736,1,v,1.4980716000009124,correct,v
120,4F4K,121,1,64.4313594220561,45.16004452558315,1.9091636625073256,47.80126251693462,2,c,2.4266550000011193,incorrect,n
121,4F4K,122,1,42.6561203725864,29.65420406244622,1.213928635771341,34.605626880218665,2,n,1.2662581000004138,correct,n
122,4F4K,123,1,45.58665221860908,27.641107787215606,1.290204332523285,32.98699820124042,2,n,1.0246970000007423,correct,n
123,4F4K,124,2,42.41707579035143,62.67588903975114,1.2079094211268917,62.180519849396575,2,v,0.9993125000000873,incorrect,b
124,4F4K,125,1,54.8590509013779,43.18715879819786,1.5645757692051363,46.09308115227636,2,c,1.0671524999997928,incorrect,n
125,4F4K,126,2,62.45295800613784,45.68642025257652,1.832214917152603,48.25626406404749,1,b,2.0249600000006467,incorrect,v
126,4F4K,127,1,58.405730744093134,43.86844763955333,1.6843266122044631,46.68329536206374,2,c,1.0671631000004709,incorrect,n
127,4F4K,128,2,57.41007712114578,39.69837271684406,1.6498127757098235,43.07343470575894,1,b,3.6786178999991535,incorrect,v
128,4F4K,129,2,64.10154187730438,48.0114735450367,1.8961147233419189,50.25894411560158,1,v,1.304174700000658,correct,v
129,4F4K,130,1,46.08845388479794,38.31466446237979,1.3037376771509812,41.8809763861298,2,n,0.9518591000014567,correct,n
130,4F4K,131,2,24.53134079722313,39.47217194771113,0.83274126667753,42.87819595593586,2,v,1.5346183000001474,incorrect,b
131,4F4K,132,2,40.814060583458776,56.6516164495018,1.16830893673229,57.4878672460252,2,b,2.458372099999906,correct,b
132,4F4K,133,1,41.97754246884003,29.646848565955043,1.1969196231163943,34.59965034696235,2,n,1.2613347999995312,correct,n
133,4F4K,134,2,49.5620742292618,60.07354514622952,1.4013936137327636,60.19869060959749,2,v,1.4059032000004663,incorrect,b
134,4F4K,135,2,59.47271740382678,75.14891373002332,1.722115042217186,70.42976956239336,2,v,0.7516200999998546,incorrect,b
135,4F4K,136,1,44.63909326274992,24.260273965557406,1.2650310515712788,30.35496574787646,2,n,0.781963800000085,correct,n
136,4F4K,137,2,70.53642216831287,60.33996729707412,2.167591154720462,60.40496022788198,1,b,1.4616657000005944,incorrect,v
137,4F4K,138,1,52.71277226842764,65.25582315419392,1.4962831062004072,64.06702603634787,1,c,1.2310575999999855,correct,c
138,4F4K,139,2,77.36856958977208,59.431135484617535,2.498491115077774,59.69832880333657,1,v,1.103593899999396,correct,v
139,4F4K,140,2,47.62245178143907,28.4600922678262,1.345995469004453,33.64125807833084,1,b,1.1474245999997947,incorrect,v
140,4F4K,141,2,55.91913560628897,70.5588403270244,1.599447976433676,67.66376428302449,2,v,0.4724286000000575,incorrect,b
141,4F4K,142,1,70.16585905632893,48.53568056508769,2.15095265797526,50.70834510181758,2,c,0.7515290999999706,incorrect,n
142,4F4K,143,2,58.10334355866493,42.519755756691424,1.6737688540306668,45.514802154077785,1,b,1.3209254000012152,incorrect,v
143,4F4K,144,2,50.70082026388908,61.37893491484597,1.434974010617729,61.20215429757848,2,v,0.8791516999990563,incorrect,b
144,4F4K,145,1,31.71066041355944,53.11374341485791,0.966820395222165,54.58206681823911,1,n,0.8972064000008686,incorrect,c
145,4F4K,146,2,59.07411627345565,43.42960747003348,1.707899979449746,46.30314056330189,1,b,1.6086442999985593,incorrect,v
146,4F4K,147,1,44.81046703593285,33.376276567905315,1.269547180375887,37.68084655244399,2,n,1.928987600000255,correct,n
147,4F4K,148,1,41.744495317461634,50.93850022668647,1.1911332875784792,52.75446804384716,1,n,3.1258662000000186,incorrect,c
148,4F4K,149,1,52.85332570430896,66.22030618596527,1.5006627296403734,64.75048289465452,1,c,5.0,incorrect,c
149,4F4K,150,1,61.27869993931921,51.82296014274882,1.7880176752331147,53.50079032271839,2,c,1.7894008000002941,incorrect,n
150,4F4K,151,1,53.19021840613876,63.93476254513125,1.5112125126100473,63.11132355473472,1,n,1.394887700000254,incorrect,c
151,4F4K,152,2,37.06977329626648,54.1860446809107,1.0807952197459865,55.47236129627744,2,b,1.2842701999998098,correct,b
152,4F4K,153,1,31.89093131797308,50.29637244204963,0.9704514467770254,52.2101477309404,1,n,0.565410500001235,incorrect,c
153,4F4K,154,2,76.52985047340633,65.10975164733661,2.4552935391226,63.96244927422071,1,v,1.194605999999112,correct,v
154,4F4K,155,2,26.696904774600817,39.41261629914096,0.8710981234985257,42.82680991248185,2,b,1.0064629999997123,correct,b
155,4F4K,156,2,62.310607526312005,68.72109206142437,1.826799406082868,66.46313042770095,2,b,1.494498799998837,correct,b
156,4F4K,157,1,30.534023193153573,50.202623140647816,0.9434517848327196,52.13051479133708,1,n,1.3585032999999385,incorrect,c
157,4F4K,158,2,56.58609994428007,67.67217513620965,1.6217854767966684,65.75552395760575,2,v,1.9593196000005264,incorrect,b
158,4F4K,159,2,69.07483351491263,51.10685359762432,2.1027028790252915,52.8968426343014,1,v,1.0292902999990474,correct,v
159,4F4K,160,2,37.68475025197731,46.92784088529034,1.0947052742002308,49.32724812999902,2,b,0.7518673000013223,correct,b
160,4F4K,161,2,63.14230777751355,51.714828336358806,1.8586681776720133,53.409771480121975,1,v,1.0440710999992007,correct,v
161,4F4K,162,2,55.21405692221748,63.66562762177254,1.5761684274382288,62.91393868051198,2,v,1.3038305999998556,incorrect,b
162,4F4K,163,2,42.50293761520134,29.770232260734723,1.210068005164724,34.69996040163804,1,b,0.878899100000126,incorrect,v
163,4F4K,164,2,53.841501739843,32.731393662893346,1.5318181654011067,37.14135739096251,1,v,1.771169400000872,correct,v
164,4F4K,165,2,53.01100170426709,60.577903036376505,1.505591148137205,60.5885469893011,2,b,0.9300280000006751,correct,b
165,4F4K,166,1,68.84821059618785,50.04397652980917,2.092817221721349,51.99566535122694,2,n,0.7092968999986624,correct,n
166,4F4K,167,1,47.2689800387975,65.08830288133314,1.336138352074987,63.94707019112701,1,c,0.861850700001014,correct,c
167,4F4K,168,1,43.64722551352102,56.82270836031638,1.239206627802551,57.6259319539405,1,c,0.8263549000002968,correct,c
168,4F4K,169,1,35.83466693189426,49.431372080613805,1.053390247538713,51.47391852847189,1,c,0.7818998000002466,correct,c
169,4F4K,170,1,49.24223159534748,60.700094713537005,1.3921039547828589,60.68259499138726,1,c,0.7698548999997001,correct,c
170,4F4K,171,1,43.89751575823334,58.28225435690331,1.24567306448561,58.79331812121922,1,n,1.0443086000013864,incorrect,c
171,4F4K,172,2,37.55560638585209,51.25088844747774,1.0917694185553497,53.01853630151122,2,b,1.1035997999988467,correct,b
172,4F4K,173,1,37.72104323789007,58.26560877346859,1.095531750712574,58.780113263869474,1,c,0.854889500000354,correct,c
173,4F4K,174,1,37.99711401278569,47.97017678950476,1.1018389898714886,50.22350182005623,1,n,2.051730499999394,incorrect,c
174,4F4K,175,1,45.4978946835748,60.529716094492514,1.2878252488003596,60.55141508003842,1,c,0.6182327999995323,correct,c
175,4F4K,176,1,47.24479215496807,33.18214902053545,1.3354664796683322,37.51818156700699,2,n,1.1217813000002934,correct,n
176,4F4K,177,2,58.59244951858835,68.75141888561987,1.6908790726297696,66.48335205575059,2,v,0.7151499000010517,incorrect,b
177,4F4K,178,2,39.84953647970064,52.76887153970715,1.1451099231688768,54.29414987650728,2,v,0.7995922999998584,incorrect,b
178,4F4K,179,2,63.4827462870613,48.36678198188845,1.871872782223925,50.5636508448967,1,b,0.9032584999986284,incorrect,v
179,4F4K,180,1,60.4884189593372,52.96143572573384,1.7588745269674677,54.45500380042659,2,n,1.061114300000554,correct,n
180,4F4K,181,2,40.462602318499634,33.32826865411003,1.1598016288653687,37.64059862447228,1,b,0.9896216000015556,incorrect,v
181,4F4K,182,2,47.87843030065985,61.67736350429128,1.3531792024119464,61.42896163780257,2,v,1.6498714000008476,incorrect,b
182,4F4K,183,1,58.88520039103392,47.573824783202944,1.701203834296964,49.8830685166144,2,n,0.8559664999993402,correct,n
183,4F4K,184,2,45.40319809685477,30.114945171713032,1.2852918098159605,34.980851275542015,1,v,1.485930599999847,correct,v
184,4F4K,185,1,46.623022314102,29.51283035721302,1.3183109230102172,34.49083371901685,2,n,2.330894000000626,correct,n
185,4F4K,186,1,35.202097791863075,47.568684718183576,1.039624785068055,49.87865050726548,1,c,1.2918490999982168,correct,c
186,4F4K,187,2,60.81244486114085,47.61221820089602,1.7707657150194256,49.916066114356525,1,v,1.1885700000002544,correct,v
187,4F4K,188,2,37.7993380026758,48.94401417301418,1.0973168319792532,51.057738624304136,2,v,1.6004776999998285,incorrect,b
188,4F4K,189,1,49.67304330452311,62.99142330762392,1.4046311153080957,62.41560810466994,1,c,1.086682600000131,correct,c
189,4F4K,190,2,59.10864168514964,50.03903629860557,1.7091265821661707,51.99146434191963,1,b,1.364683600000717,incorrect,v
190,4F4K,191,1,20.457950143017943,40.44237765862594,0.7651096923745493,43.71627560470157,1,n,0.9336260000000038,incorrect,c
191,4F4K,192,2,45.19725666189784,57.87246857700983,1.2797994041815604,58.46749170707911,2,v,1.4555903000000399,incorrect,b
192,4F4K,193,2,67.14371788851537,53.93687136775823,2.0199387351957427,55.26616895755938,1,v,0.903494000000137,correct,v
193,4F4K,194,2,30.2544178573556,43.61185507689244,0.9379822555858784,46.46102791426344,2,b,1.6862498999998934,correct,b
194,4F4K,195,1,45.6893779648086,31.71706317581403,1.2929633118855923,36.2981208947028,2,n,0.7833250000003318,correct,n
195,4F4K,196,1,49.85064202581309,58.14210524784781,1.4098280950017137,58.68205801398494,1,c,0.7698276000010082,correct,c
196,4F4K,197,2,52.43690877883944,60.45939214377456,1.4877243695868854,60.49718077340183,2,v,1.2879063000000315,incorrect,b
197,4F4K,198,2,52.793295741548825,32.273161847155805,1.4987906390854595,36.75958496061268,1,b,1.3706676000001607,incorrect,v
198,4F4K,199,2,51.41326210627883,36.322153843195245,1.456391133888492,40.17382563160408,1,v,1.1220529000001989,correct,v
199,4F4K,200,2,51.25925264769695,43.18369452239534,1.4517344484739911,46.09007956752895,1,v,0.8365807999998651,correct,v
200,4F4K,201,2,47.63664342657909,61.33391063091141,1.3463927402574012,61.16784994601631,2,v,2.6947705000002316,incorrect,b
201,4F4K,202,2,51.85297824038548,69.01814633519429,1.4697689176687851,66.66062151340766,2,b,1.0914068999991287,correct,b
202,4F4K,203,2,40.89790231357363,57.971688976525,1.170347589608569,58.54652496369381,2,b,0.776448700000401,correct,b
203,4F4K,204,2,36.892818849570055,60.72375200155553,1.0768255641668638,60.70078506439357,2,b,0.6072899999999208,correct,b
204,4F4K,205,1,57.699273423525554,47.54223718599055,1.6597640940579146,49.85591699105272,2,n,0.7695014999990235,correct,n
205,4F4K,206,2,65.69188448130977,54.797787423724046,1.9598680604050849,55.97672861497284,1,b,3.1248782000002393,incorrect,v
206,4F4K,207,1,45.69243529523828,32.76758300500989,1.2930455151570903,37.17156494065049,2,n,0.6475908999982494,correct,n
207,4F4K,208,2,52.14614590155602,44.904332395207966,1.478756363653915,47.580074030445495,1,v,2.268819300001269,correct,v
208,4F4K,209,1,63.67797940096542,50.345747521358696,1.879487580274893,52.25207182237579,2,n,0.8732149000006757,correct,n
209,4F4K,210,1,54.45657752128832,42.98990514891652,1.5515361654032231,45.92216968592177,2,c,1.291707899999892,incorrect,n
210,4F4K,211,2,42.77118321263461,63.654009027894375,1.216836637266257,62.90539753549518,2,v,0.697252900001331,incorrect,b
211,4F4K,212,1,40.09623067884487,58.49425206858126,1.1509992715138964,58.96126772928208,1,c,1.320952699999907,correct,c
212,4F4K,213,1,36.82094579359355,52.28274211510812,1.0752173877639557,53.8870730187744,1,c,0.7638776999992842,correct,c
213,4F4K,214,1,54.81504689425876,44.14178420674896,1.5631447783470147,46.92002079663526,2,n,1.141355300000214,correct,n
214,4F4K,215,2,29.039956299335746,41.44649789151908,0.9145910389506804,44.5851421384688,2,b,0.9397607000009884,correct,b
215,4F4K,216,2,45.741436197969946,55.85056441693158,1.294363729063774,56.83822256311916,2,b,0.46772520000013174,correct,b
216,4F4K,217,1,54.99532367615827,44.08959864662917,1.569015615067704,46.87482930340055,2,n,1.5465500999998767,correct,n
217,4F4K,218,1,54.02344699348542,61.85092022847672,1.5376246928796795,61.56040820472213,1,c,0.6498099000000366,correct,c
218,4F4K,219,2,41.49964773801241,27.032179466094405,1.1850840900715265,32.50453475069701,1,b,2.4766041999992012,incorrect,v
219,4F4K,220,1,42.55057340262075,49.86003660897703,1.2112672419930677,51.8391759927964,1,c,0.7333410999999614,correct,c
220,4F4K,221,1,68.03635063244133,58.40673621387629,2.057782523126174,58.89198678283816,2,c,2.0091921999992337,incorrect,n
221,4F4K,222,1,71.09268454000865,54.61586968226764,2.1928095800438765,55.82702215568431,2,n,0.7091396999985591,correct,n
222,4F4K,223,1,70.09797916804378,57.86804492568199,2.14791868146373,58.46396599029478,2,n,0.5769932000002882,correct,n
223,4F4K,224,1,50.71873967600513,65.19883104709565,1.4355088155766595,64.02625672562442,1,c,0.510237500000585,correct,c
224,4F4K,225,1,52.29702492807093,60.39803363354079,1.483403160441508,60.44981809696921,1,c,0.6849074000001565,correct,c
225,4F4K,226,2,42.24642434790299,49.95869967102205,1.203630633732115,51.92313348561649,2,v,1.290705600000365,incorrect,b
226,4F4K,227,2,71.92158655066605,56.12664344580697,2.230933633554816,57.062710408664685,1,b,1.93522750000011,incorrect,v
227,4F4K,228,2,36.88862237449517,46.421838794580445,1.0767316009725918,48.89112167754645,2,b,0.8244434999996884,correct,b
228,4F4K,229,1,39.539619595794726,27.67543617114613,1.137753944384224,33.01430006616857,2,c,1.1096667000001617,incorrect,n
229,4F4K,230,1,76.08390162893689,57.86591527541271,2.432630242856941,58.46226856342417,2,c,1.261417600000641,incorrect,n
230,4F4K,231,1,46.63340092395676,36.05577120250384,1.318595467786886,39.94671064689816,2,c,1.0624360000001616,incorrect,n
231,4F4K,232,1,49.12547669107016,65.39467137245532,1.3887282347510834,64.16617392329125,1,n,1.249305600000298,incorrect,c
232,4F4K,233,2,36.633749027207706,27.85185596997968,1.071040081340907,33.154779780562016,1,v,1.7893833999987692,correct,v
233,4F4K,234,1,54.40820083423628,65.7914952943062,1.5499761592250871,64.44814003668829,1,n,2.712823699999717,incorrect,c
234,4F4K,235,2,47.02638967681927,50.82016924173504,1.329415141030587,52.6543115985842,2,b,1.3645653999992646,correct,b
235,4F4K,236,2,45.59814790430172,55.94178704286407,1.290512787656488,56.91246589116349,2,b,1.4557165000005625,correct,b
236,4F4K,237,2,66.11409003578083,57.5971856113407,1.9771505114951835,58.24774963582674,1,v,0.564841699999306,correct,v
237,4F4K,238,1,60.238695260818375,44.9235805949434,1.7497646144488284,47.5967265814973,2,c,2.741001399999732,incorrect,n
238,4F4K,239,1,46.971284728025296,59.68932026327464,1.3278926696419937,59.89992742237329,1,c,1.9409842999993998,correct,c
239,4F4K,240,1,56.39085293007837,46.761604224003335,1.615214299362987,49.18403558542721,2,c,0.9957325999985187,incorrect,n
240,4F4K,241,1,32.550109196657445,52.462780673450574,0.9838452229395136,54.03799867945076,1,c,1.7468944000011106,correct,c
241,4F4K,242,1,51.839298945688,63.68568689207015,1.4693508970405231,62.92868091203675,1,n,0.7819478999990679,incorrect,c
242,4F4K,243,2,77.09524331604408,66.56891923933182,2.484330820137231,64.99445465595066,1,v,1.2856762000010349,correct,v
243,4F4K,244,2,49.138811836756375,56.72720964878236,1.389113377708966,57.54889861501829,2,v,1.4859258999986196,incorrect,b
244,4F4K,245,1,40.54834364875419,52.221108568618135,1.1618713310854554,53.83536225199573,1,c,0.830490500000451,correct,c
245,4F4K,246,1,58.71295473569281,38.83353124489695,1.6951214506420913,42.32757967029985,2,n,0.7334334999995917,correct,n
246,4F4K,247,2,51.09065752030969,63.69538810343809,1.4466538151020707,62.93580889205634,2,b,2.068556799998987,correct,b
247,4F4K,248,1,63.75150738176899,48.54804105230019,1.8823634609990632,50.71893031618113,2,n,0.9154973999993672,correct,n
248,4F4K,249,2,52.19491785714629,38.02732781586428,1.4802568559084317,41.63398066710084,1,v,1.541920300000129,correct,v
249,4F4K,250,2,50.39588478084171,62.30227515603329,1.4259036924641555,61.90065245071531,2,v,1.0550662000005104,incorrect,b
250,4F4K,251,1,47.01950990002549,61.123355698947336,1.3292249672588914,61.00713109576093,1,n,1.7664810000005673,incorrect,c
251,4F4K,252,2,46.17655209060983,33.553529939057825,1.3061282493236763,37.82956526294687,1,v,1.5527323999995133,correct,v
252,4F4K,253,2,35.75182126244803,43.30077458122541,1.0515771056604883,46.19152080546911,2,v,0.8911864000001515,incorrect,b
253,4F4K,254,1,46.6403073326275,29.352364030378247,1.318784851119,34.36073503554525,2,c,0.9700518999998167,incorrect,n
254,4F4K,255,2,61.07067955636207,45.395519984526345,1.780300018679874,48.00486336594543,1,v,1.6862082000006922,correct,v
255,4F4K,256,1,74.24590508214744,52.361653047343424,2.341409299242058,53.95324722965943,2,c,0.47995690000061586,incorrect,n
256,4F4K,257,1,23.80129710367768,37.16800045045527,0.8201950336193472,40.8968432283725,1,c,2.628236200000174,correct,c
257,4F4K,258,1,50.626024743698274,33.44242118019517,1.4327438884917123,37.736321687510014,2,n,1.188701900000524,correct,n
258,4F4K,259,1,58.59660109400676,66.41766047001173,1.6910250518175796,64.88880100182439,1,n,0.6595600999989983,incorrect,c
259,4F4K,260,1,46.21735741825204,28.50895299223646,1.3072369994316713,33.68047995693315,2,n,1.8640028999998322,correct,n
260,4F4K,261,2,36.20953308116279,48.43858870407266,1.061633640877084,50.62517932232901,2,v,1.7165194999997766,incorrect,b
261,4F4K,262,1,40.02441007898789,26.10043976745446,1.149281574618649,31.773206268262093,2,c,0.8804039999995439,incorrect,n
262,4F4K,263,1,36.39120583979089,49.6928198612463,1.0656518431133613,51.6967861110236,1,n,2.086840600000869,incorrect,c
263,4F4K,264,2,47.813892175436095,35.91482377240307,1.3513644098551962,39.82666113161127,1,b,1.546832899999572,incorrect,v
264,4F4K,265,1,49.60644872742586,67.25730980593251,1.4026873349200462,65.47132289819416,1,c,0.7386298000001261,correct,c
265,4F4K,266,2,55.96527149572741,34.055811457274295,1.6009831732927065,38.251959445962754,1,v,1.0428826000006666,correct,v
266,4F4K,267,1,58.97011282912556,44.71943535345738,1.704210311076252,47.42008709756978,2,c,3.42347399999926,incorrect,n
267,4F4K,268,1,66.51152993886647,45.42149316227132,1.9935584406208628,48.027315496955865,2,c,0.7880335999998351,incorrect,n
268,4F4K,269,1,41.42537443733094,58.9231741094827,1.183255176117282,59.29976499936223,1,c,0.7940490000000864,correct,c
269,4F4K,270,2,68.41908643930284,53.78395002008276,2.074225280759321,55.139415444128005,1,b,3.016859299999851,incorrect,v
270,4F4K,271,2,39.394094460556005,52.23229912212807,1.1343161798143688,53.84475280550948,2,v,0.9336374000013166,incorrect,b
271,4F4K,272,1,51.0476309162851,68.32114932256897,1.4453600538731233,66.19519788597104,1,c,2.881981199998336,correct,c
272,4F4K,273,1,43.54046612530252,59.9968603144512,1.2364586416354115,60.13918328399003,1,c,1.4797964000008506,correct,c
273,4F4K,274,2,54.82583940284799,40.28151821620396,1.5634956247730587,43.57720886634174,1,b,0.6970135999999911,incorrect,v
274,4F4K,275,2,68.70801039497152,51.712294776640114,2.086724746943022,53.40763811001644,1,b,1.1970317999985127,incorrect,v
275,4F4K,276,1,59.06725019033885,42.350931633323526,1.7076561494139482,45.36853013085697,2,n,2.1307420000011916,correct,n
276,4F4K,277,1,55.02957311388308,38.10371384134118,1.5701334613541,41.69961870930742,2,n,0.9211422999997012,correct,n
277,4F4K,278,2,55.48417782957856,70.40203595027586,1.585046686796926,67.56331685526686,2,v,1.0975584000007075,incorrect,b
278,4F4K,279,2,44.66426515363989,30.01554622545992,1.2656933861204198,34.89975948512122,1,b,0.9471364999990328,incorrect,v
279,4F4K,280,1,30.29002385962921,48.5815440208298,0.9386770004431476,50.74761869720571,1,n,2.822491599999921,incorrect,c
280,4F4K,281,1,59.35532759657463,42.4377858316229,1.7179163957727388,45.44378111150259,2,c,1.0440793000016129,incorrect,n
281,4F4K,282,1,48.48481114838775,32.6352099200176,1.3703499207939074,37.06111187227284,2,c,0.8183611000004021,incorrect,n
282,4F4K,283,2,35.86237099714081,51.50467391534328,1.053997269792313,53.232693344666885,2,v,2.0092564999995375,incorrect,b
283,4F4K,284,1,64.67806292144114,44.93392669940707,1.918982942385637,47.60567730045613,2,n,2.4158181000002514,correct,n
284,4F4K,285,2,49.88962654938347,41.90150734079164,1.4109714501517936,44.97919365100304,1,b,3.96301830000084,incorrect,v
285,4F4K,286,2,63.85641528348296,46.58227398271331,1.8864743163265687,49.02946741623484,1,v,3.271561199999269,correct,v
286,4F4K,287,2,45.61272582330222,61.09989082287522,1.2909040521050568,60.98919009419546,2,v,2.056469199998901,incorrect,b
287,4F4K,288,1,49.18165678652964,64.32878646048923,1.390351539865947,63.39868473298115,1,n,0.9761950000010984,incorrect,c
288,4F4K,289,2,47.869558767190455,51.44899159224953,1.352929593166715,53.185734989691085,2,b,1.7179252000005363,correct,b
289,4F4K,290,2,56.50902567076197,33.54447882440524,1.6191882995822693,37.8219668079214,1,b,2.4341660999998567,incorrect,v
290,4F4K,291,2,40.86326435851453,53.03597543109736,1.169504919810741,54.51720691925556,2,v,2.0142860999985714,incorrect,b
291,4F4K,292,2,73.91682676429478,65.30642051213044,2.3254417511085705,64.1031854264633,1,v,0.6558257000015146,correct,v
292,4F4K,293,1,37.481984447301386,56.37472048618159,1.0900992800230236,57.26390254570936,1,c,0.7030359000000317,correct,c
293,4F4K,294,2,54.62275429608499,39.54575935212716,1.5569068484586142,42.94169929098726,1,b,1.7834493999998813,incorrect,v
294,4F4K,295,1,36.84859628057025,48.64858488896923,1.0758357894136887,50.80501331886396,1,c,2.77495959999942,correct,c
295,4F4K,296,2,75.95107821317337,61.41238547784846,2.4259206241231244,61.22762606328438,1,b,1.4982049999998708,incorrect,v
296,4F4K,297,2,55.2266392551804,70.89093739696997,1.5765808736597562,67.87524858410377,2,v,0.7832787000006647,incorrect,b
297,4F4K,298,2,48.03122882636134,61.7997601030298,1.3574855723070611,61.52169629065699,2,v,0.9021999000015057,incorrect,b
298,4F4K,299,2,37.5359698918798,49.21532732270043,1.0913237079941105,51.2895425525747,2,b,0.522531099999469,correct,b
299,4F4K,300,1,72.41167609292005,60.94948424405885,2.2537856041391118,60.87404876798967,2,n,1.5271798000012495,correct,n
300,4F4K,301,1,52.23415258155052,67.02625419747606,1.481465035729266,65.3119947078125,1,n,0.8865193000001454,incorrect,c
301,4F4K,302,2,47.642935555436026,32.939238775179035,1.3465689153454077,37.31495808599923,1,v,1.2558387000008224,correct,v
302,4F4K,303,2,55.042673177701126,39.15161299008959,1.5705612367975403,42.60170184926994,1,b,2.4873187000011967,incorrect,v
303,4F4K,304,2,55.24310576765407,38.79624636948888,1.5771208055170702,42.29546391572968,1,v,1.6039297000006627,correct,v
304,4F4K,305,1,39.59493833438111,56.98140663294743,1.1390634794947867,57.753772974602285,1,c,0.9701350999985152,correct,c
305,4F4K,306,2,63.245124901153176,46.17042507280564,1.862646302234617,48.67420933176476,1,v,1.637622599999304,correct,v
306,4F4K,307,2,31.290537318967477,42.81381453817114,0.9584108325559104,45.76959216727129,2,b,0.976193599999533,correct,b
307,4F4K,308,2,47.80622016889667,61.72685000567384,1.351148837277417,61.46647568222822,2,v,1.2360022000011668,incorrect,b
308,4F4K,309,1,44.50332836593347,60.48578070884514,1.2614647135789725,60.517537932180936,1,c,0.619409099999757,correct,c
309,4F4K,310,2,56.87062099899127,41.85391487326493,1.6314091287200612,44.93797036035912,1,b,0.9216090999998414,incorrect,v
310,4F4K,311,2,58.28470796280717,42.00106595612471,1.680093168411804,45.06543289900036,1,b,0.8233067000001029,incorrect,v
311,4F4K,312,2,71.42161390702377,52.66603392518752,2.207859576429552,54.20815365859991,1,v,0.8779104999994161,correct,v
312,4F4K,313,2,46.20355666028363,37.96401923656422,1.3068619040892435,41.57959331546229,1,b,0.7394870000007359,incorrect,v
313,4F4K,314,1,65.92841498672198,55.83020932804799,1.969531443350407,56.82164713814062,2,c,0.7355516999996325,incorrect,n
314,4F4K,315,1,34.30110187263061,54.46197782356647,1.0203280375500452,55.70019246197725,1,n,1.000395799999751,incorrect,c
315,4F4K,316,1,55.16643311487474,44.54367488943537,1.5746083059196805,47.267968809786666,2,n,0.9289536999986012,correct,n
316,4F4K,317,1,39.015854808524736,54.891481928261584,1.1254294680315442,56.05373870670373,1,c,0.8851200999997673,correct,c
317,4F4K,318,1,66.28259502667747,47.68570457588837,1.984090524972739,49.97921246234917,2,c,1.4616986000000907,incorrect,n
318,4F4K,319,1,57.787288435614165,71.96861354582487,1.6628046102594292,68.54963323765989,1,n,0.48591920000035316,incorrect,c
319,4F4K,320,1,54.43816835523468,46.97606416908573,1.5509423388531227,49.368779363124666,2,n,0.6423864999997022,correct,n
320,4F4K,321,1,43.43742097248666,59.43540415874908,1.2338120394580303,59.70166734726916,1,n,3.9450137999992876,incorrect,c
321,4F4K,322,2,43.21915674491904,50.94864245174671,1.2282248539156375,52.763049264428666,2,v,0.7386569999998756,incorrect,b
322,4F4K,323,1,64.7059829856702,46.493989030798616,1.9200973916988264,48.9533451921371,2,c,0.8743062000012287,incorrect,n
323,4F4K,324,2,76.33712050257454,62.11056932664941,2.445473133629048,61.75642305474424,1,b,0.8660751000006712,incorrect,v
324,4F4K,325,1,68.27541635417133,55.417830037925775,2.068037706637296,56.48514021185433,2,c,1.4134856000000582,incorrect,n
325,4F4K,326,2,49.23893462400619,40.91824783845556,1.3920085173678007,44.12789549305676,1,b,2.1656255000016245,incorrect,v
326,4F4K,327,1,43.54397506442761,56.60415934796709,1.236548864785968,57.44952744167944,1,c,1.0491117000001395,correct,c
327,4F4K,328,1,63.32355218623637,54.82079686238519,1.8656864764705985,55.99564668324618,2,c,0.692235400001664,incorrect,n
328,4F4K,329,1,44.17922473126653,52.14187569072528,1.252991599139517,53.76885327853438,1,c,1.5274856000014552,correct,c
329,4F4K,330,1,56.49831453309268,71.1403776446323,1.618827694943385,68.03296821127066,1,n,2.9195367000011174,incorrect,c
330,4F4K,331,2,61.794879505319614,48.19900690826325,1.807313004736384,50.41982203541109,1,v,2.006692799999655,correct,v
331,4F4K,332,2,60.73148173156296,44.4026506748141,1.7677869957559944,47.14589052309061,1,b,1.3936228999991727,incorrect,v
332,4F4K,333,2,47.75250931183923,28.15292755788752,1.3496406006482085,33.395169538034416,1,b,0.7286852000015642,incorrect,v
333,4F4K,334,1,57.22757667573033,69.20751711277819,1.643563617845251,66.7858417864017,1,c,1.6618988999998692,correct,c
334,4F4K,335,2,71.45372325438095,63.285981497969175,2.20933424572719,62.63400103521311,1,v,0.8560635000012553,correct,v
335,4F4K,336,1,51.49296716871624,62.2243474404315,1.458806987431696,61.84207459839489,1,n,1.680346399998598,incorrect,c
336,4F4K,337,1,51.30274002030464,74.18403092047365,1.453047837694523,69.8771390066008,1,n,0.9298897000007855,incorrect,c
337,4F4K,338,1,43.3070025533694,59.23283708843113,1.2304705054434584,59.54303937005498,1,c,0.9579597000010835,correct,c
338,4F4K,339,1,51.08630036988663,40.12360237345946,1.446522747844757,43.44072749215509,2,n,0.8560677000004944,correct,n
339,4F4K,340,2,36.24508427860492,55.12855067608445,1.0624187610938378,56.24830148591242,2,v,0.7637693000015133,incorrect,b
340,4F4K,341,1,69.4395595260696,62.53463171230866,2.1187109612002133,62.074897351163166,2,c,0.5466102000009414,incorrect,n
341,4F4K,342,2,48.819572588504286,33.44097156565205,1.3799224367224554,37.73510562981367,1,b,0.9264868999998725,incorrect,v
342,4F4K,343,1,39.131735487686974,57.03891994756336,1.1281446527992964,57.80005009205911,1,n,1.2845885000006092,incorrect,c
343,4F4K,344,2,39.69444548389197,50.000748605670935,1.1414228618444275,51.95890206364393,2,v,1.859227799999644,incorrect,b
344,4F4K,345,2,59.852470829788224,54.01001066993348,1.7357679910469233,55.32673645402478,1,v,1.72864699999991,correct,v
345,4F4K,346,2,52.82318420975162,66.29170245249033,1.4997224468230506,64.80058265433222,2,v,0.9043925000005402,incorrect,b
346,4F4K,347,2,40.95445718851488,57.32457746660299,1.1717247579258316,58.02947453700824,2,b,1.498070599998755,correct,b
347,4F4K,348,2,54.19414662284424,36.77176304782678,1.543092342199054,40.55780643286276,1,b,1.2747484000010445,incorrect,v
348,4F4K,349,1,46.11758383985038,68.39459593227494,1.304527642948285,66.24457598163032,1,c,1.8986334999990504,correct,c
349,4F4K,350,1,48.79653177260101,66.59476333405844,1.379261446233761,65.01247545651987,1,c,0.8679614999982732,correct,c
350,4F4K,351,2,47.65859039135559,68.65280594729157,1.347007339538389,66.41754865620976,2,v,1.6703816999997798,incorrect,b
351,4F4K,352,1,67.91681464236207,48.32612241125102,2.052673883988421,50.52880331786124,2,n,0.9279587000000902,correct,n
352,4F4K,353,1,19.732847754463744,36.99651936981094,0.7536598447895654,40.75004645101211,1,c,2.2930911000003107,correct,c
353,4F4K,354,1,64.80285876581904,48.05067312172766,1.923969278908206,50.29258146629477,2,n,1.5550302999999985,correct,n
354,4F4K,355,1,22.83769388595868,40.3336587897665,0.8039238833512012,43.62228116511896,1,c,0.9822332999992796,correct,c
355,4F4K,356,1,62.699457130463685,44.03989726028781,1.8416306047608368,46.83178709189859,2,n,1.5729423000011593,correct,n
356,4F4K,357,2,63.4101121726181,47.160358414568414,1.8690476696581837,49.5274429424269,1,v,0.5756168000007165,correct,v
357,4F4K,358,1,66.12757903891055,48.63524284590559,1.9777051719621916,50.79359229722966,2,n,1.2555558000003657,correct,n
358,4F4K,359,1,41.3886366505407,62.83417885706152,1.1823515844006576,62.29860023302431,1,c,1.529684699999052,correct,c
359,4F4K,360,1,58.03764947349001,43.4235838119584,1.6714839294878392,46.297921837581264,2,n,0.8607431000000361,correct,n
360,4F4K,361,1,68.4823174481084,46.612918375254615,2.076954373519932,49.05588580967174,2,c,1.1654149000005418,incorrect,n
361,4F4K,362,2,35.02490087611602,48.75912660261288,1.0358011219610843,50.89961409657823,2,v,0.4603189999997994,incorrect,b
362,4F4K,363,1,30.00950123043463,45.00664142399156,0.933217351439598,47.66858097988071,1,n,1.297222099999999,incorrect,c
363,4F4K,364,1,56.44167922904146,33.11203232859345,1.6169223269347506,37.45948396282969,2,n,0.783245499998884,correct,n
364,4F4K,365,1,38.03320909754223,45.97501300522414,1.1026663144253337,48.505522588877206,1,c,0.4602183999995759,correct,c
365,4F4K,366,2,48.70861149674175,33.8684391507428,1.3767421141614395,38.09422354437322,1,b,1.261319299999741,incorrect,v
366,4F4K,367,2,57.30389509109688,42.63526669285597,1.6461740189029783,45.61488640007802,1,v,0.77730530000008,correct,v
367,4F4K,368,2,32.46329234916791,44.60262886868813,0.9820706839315532,47.31899648030529,2,b,0.8608710000007704,correct,b
368,4F4K,369,1,47.00920103793999,57.801759620680265,1.3289400561472715,58.41111430393918,1,n,1.103555800000322,incorrect,c
369,4F4K,370,2,51.78390203381274,62.19783656604177,1.4676592580925378,61.82213060836428,2,v,1.0260004000010667,incorrect,b
370,4F4K,371,1,37.92643947168625,53.13658718213444,1.1002208771918554,54.601111671775215,1,n,1.5040262999991683,incorrect,c
371,4F4K,372,1,53.189250023366526,65.5880465408878,1.5111820817001225,64.30383738437841,1,c,0.855023699999947,correct,c
372,4F4K,373,1,72.23553753735047,53.80887401334844,2.2455457666795744,55.16008524261012,2,n,1.2189018999997643,correct,n
373,4F4K,374,2,52.64943777060445,67.13870731254192,1.4943137926583705,65.38963142853699,2,v,0.8258707000004506,incorrect,b
374,4F4K,375,1,51.90702563819671,34.97226410770588,1.4714216960928748,39.0261412673251,2,n,0.715466200001174,correct,n
375,4F4K,376,1,66.48849779769641,53.99178652733403,1.992603874526031,55.31164825689596,2,n,1.1899637000005896,correct,n
376,4F4K,377,2,36.47092103176646,46.37884313861387,1.0674197653250208,48.85403600578256,2,b,0.7879979999997886,correct,b
377,4F4K,378,2,26.237904041692914,41.7972469849752,0.8628233478704744,44.88888805076556,2,b,0.6123536000013701,correct,b
378,4F4K,379,1,50.348767893314026,69.78077527765025,1.4245073216379334,67.16164707672912,1,c,1.103639099999782,correct,c
379,4F4K,380,1,33.37999048735243,52.11950970803946,1.000970679047103,53.75007248010077,1,n,0.879063700000188,incorrect,c
380,4F4K,381,2,35.70078006821976,58.4568663184634,1.050461583475674,58.93168055520185,2,b,0.8123838999999862,correct,b
381,4F4K,382,2,37.06766759694736,47.94738502498584,1.0807478962326538,50.20393881088274,2,b,0.614476900000227,correct,b
382,4F4K,383,2,65.29261723736158,51.85818955945047,1.943663561373696,53.530430341498885,1,v,0.707855999999083,correct,v
383,4F4K,384,2,40.71490293053812,56.976810278879086,1.1659024526774684,57.75007336754918,2,v,1.357639100000597,incorrect,b
384,4F4K,385,1,40.942765400691925,54.56513922836569,1.1714399182682786,55.78523153338653,1,n,0.9275997000004281,incorrect,c
385,4F4K,386,2,60.41973021974846,38.35171714287943,1.7563640456216827,41.91284437780954,1,v,1.6740391999992426,correct,v
386,4F4K,387,1,26.368605541877606,48.79581916562701,0.8651715716759476,50.93100542396618,1,n,0.582986900000833,incorrect,c
387,4F4K,388,2,56.709765093388384,48.60072675302672,1.625961337196555,50.76404294800832,1,v,0.8439980000002834,correct,v
388,4F4K,389,1,36.58824605399635,49.25759877788958,1.0700271342440726,51.32563241184097,1,c,0.4967264000006253,correct,c
389,4F4K,390,1,24.38526068107,42.4663764421512,0.8302155277513453,45.46855263568949,1,c,0.5344485999994504,correct,c
390,4F4K,391,1,56.34831627468144,46.02342429060074,1.6137862337970743,48.54732007601984,2,n,0.4738072000000102,correct,n
391,4F4K,392,1,29.97442067573882,46.57781539558064,0.9325368366348106,49.02562350559222,1,c,0.52236030000131,correct,c
392,4F4K,393,2,49.87318726435284,67.57499787902916,1.4104891985943837,65.68917068692974,2,v,1.0017404000009265,incorrect,b
393,4F4K,394,2,49.41430713104017,68.02460854844585,1.3970941179166207,65.99504243280018,2,b,0.7504249000012351,correct,b
394,4F4K,395,1,58.43732918983239,51.58373158793533,1.6854336984023102,53.29933617343921,2,n,0.6437015999999858,correct,n
395,4F4K,396,2,52.43955920491624,40.3065317742949,1.4878063663779193,43.598830997787566,1,b,1.346360799998365,incorrect,v
396,4F4K,397,1,75.998850254134,54.8909958017307,2.428331710829628,56.05333931276795,2,n,0.6072779000005539,correct,n
397,4F4K,398,1,47.56048788902896,41.72535078221125,1.3442622667707125,44.82661897547282,2,c,0.6356100000011793,incorrect,n
398,4F4K,399,2,57.55827729101662,44.86434634146926,1.6549049052334155,47.545478643586335,1,b,0.48592160000043805,incorrect,v
399,4F4K,400,2,66.96879044726073,55.91751347508969,2.0126045272357165,56.89271684965231,1,v,0.6969449999996868,correct,v
