,condition,trial,sub_task,x,y,xt,yt,cat,resp,rt,acc,correct_resp
0,2F4K,1,2,43.6023432263817,55.86498525990799,1.2380506146502368,57.900298784924274,2,v,5.0,NA,b
1,2F4K,2,2,41.73669420893487,58.40107403497247,1.1909400782139443,60.02426259577425,2,v,1.2976729999998042,incorrect,b
2,2F4K,3,2,29.126095954755414,47.40187692934743,0.9162307442685588,50.48378545400581,2,b,2.009193100000175,correct,b
3,2F4K,4,1,42.604085206925575,52.69610386794135,1.2126158257823043,55.17265101962965,1,c,2.8406170999999176,correct,c
4,2F4K,5,1,53.21175615021604,39.69904058881783,1.5118894830802678,43.54001639716467,2,c,2.2132009000001744,incorrect,n
5,2F4K,6,1,51.44384151207888,71.1063217426677,1.457317519650266,69.5352607037844,1,n,1.6263798999998471,incorrect,c
6,2F4K,7,1,56.038298542484085,69.11802477555663,1.6034162007654102,68.19600549199518,1,c,4.429403900000125,correct,c
7,2F4K,8,2,42.952458536320144,57.078169705842015,1.2214321765093257,58.92358889256303,2,v,2.6282351999998355,incorrect,b
8,2F4K,9,1,38.74407674253986,47.30367417000153,1.1190870804264337,50.39573324177689,1,n,3.8663142999998854,incorrect,c
9,2F4K,10,1,54.11819385713334,64.50390358835368,1.540657115992723,64.85927365169199,1,c,1.2370066000003135,correct,c
10,2F4K,11,1,42.10465858167981,29.07813968834588,1.2000876322108127,34.22590645750824,2,n,2.1905226000003495,correct,n
11,2F4K,12,2,67.86628103952701,51.710044480147886,2.050518032830789,54.309986000789166,1,v,2.2529427999998006,correct,v
12,2F4K,13,2,78.69237692758016,63.31432825965723,2.568224477611325,63.95152680039296,1,v,1.6829422999999224,correct,v
13,2F4K,14,2,39.94644535772914,64.31941891475192,1.14741983349385,64.71969629741041,2,b,3.0470037000000048,correct,b
14,2F4K,15,2,51.84991559859135,60.22056335102753,1.469675317172766,61.50981539322844,2,v,0.9153446000000258,incorrect,b
15,2F4K,16,2,42.9679001073354,57.40603525319568,1.2218244394528144,59.19790158677824,2,b,1.4316513000003397,correct,b
16,2F4K,17,1,76.03826154218322,60.252079705803176,2.430322628621252,61.53524095243746,2,c,1.4310380000001715,incorrect,n
17,2F4K,18,2,58.57180370324123,40.75661285164238,1.6901533041851178,44.49282523272678,1,v,2.4280187000003934,correct,v
18,2F4K,19,2,50.842194188291664,40.67309772347644,1.4391987370143835,44.41751730886025,1,b,1.279464900000221,incorrect,v
19,2F4K,20,1,37.26662347490016,46.495088533776894,1.0852283971861592,49.66972040651319,1,n,2.239847599999848,incorrect,c
20,2F4K,21,2,56.16625766302249,40.03772639814944,1.6076883080524662,43.84493807270764,1,v,1.3098184000000401,correct,v
21,2F4K,22,1,51.42932029892344,44.301397267294064,1.4568775342822522,47.6932303515375,2,c,5.0,correct,n
22,2F4K,23,2,39.42946166643896,54.83127186772568,1.135150708562231,57.01872090999733,2,b,4.084036300000207,correct,b
23,2F4K,24,2,60.98921545597457,40.58192156193798,1.7772867463543505,44.33531257986691,1,b,1.8742121000000225,incorrect,v
24,2F4K,25,1,30.89827654769038,48.20170768253123,0.9506250319452084,51.199826248848034,1,n,4.623443699999825,incorrect,c
25,2F4K,26,1,36.26891227924385,53.72796101932696,1.062945308707246,56.068777016418736,1,c,1.1086427000000185,correct,c
26,2F4K,27,2,41.850541828105605,25.76044483517425,1.1937628434092418,31.48393275840135,1,v,2.4279805000001033,correct,v
27,2F4K,28,1,45.19163097556782,52.35788674956975,1.2796496983455663,54.87742179941184,1,c,4.896535200000017,correct,c
28,2F4K,29,1,37.4055976507931,49.235613550125294,1.0883691203285646,52.12207835098037,1,n,0.9813015999998242,incorrect,c
29,2F4K,30,1,44.733740127917685,35.03943594632432,1.267523244038641,39.3797746006637,2,n,3.51935420000018,correct,n
30,2F4K,31,1,59.61380205025918,49.49903885907084,1.7271747547893164,52.35637643249309,2,n,1.7896633999998812,correct,n
31,2F4K,32,1,52.96558027127743,36.35037533818014,1.5041697703702075,40.54191427379445,2,n,1.3340997999998763,correct,n
32,2F4K,33,1,32.48839448987982,51.43140994704962,0.9825834432656496,54.06518618823258,1,c,3.7434367999999267,correct,c
33,2F4K,34,1,50.781600399418345,32.25492521854982,1.4373864707132709,36.94194407692235,2,n,1.989571000000069,correct,n
34,2F4K,35,1,36.70432033742269,54.27042018571969,1.072612974849777,56.53694420291328,1,c,1.7711448999998538,correct,c
35,2F4K,36,1,64.05434754440101,44.65987193818014,1.894254829777204,48.016704320032105,2,c,2.5007847000001675,incorrect,n
36,2F4K,37,1,66.9731447693737,47.48677120315292,2.012786767936154,50.55988181454487,2,n,4.104524699999729,correct,n
37,2F4K,38,2,56.65056625907548,39.36640960491123,1.6239610018762094,43.24077569117424,1,v,5.0,correct,v
38,2F4K,39,2,50.8470213712202,72.1489801321227,1.4393432087994915,70.21200808127638,2,v,2.49475080000002,incorrect,b
39,2F4K,40,2,55.39076388394304,37.04385279623078,1.581970740470418,41.15970423498239,1,v,1.5490801999999348,correct,v
40,2F4K,41,2,40.47920314620112,59.20707999091301,1.1602020667279451,60.68654982601369,2,b,3.8585980000002564,correct,b
41,2F4K,42,1,55.887530460379246,49.02950889258553,1.598397147721682,51.93856196570179,2,c,3.6053525999996054,incorrect,n
42,2F4K,43,2,55.624615767988246,41.99507299965016,1.5896823034543013,45.61049590818648,1,v,5.0,incorrect,v
43,2F4K,44,2,59.92871030232212,77.14282583793545,1.7385219824174685,73.1935739584999,2,b,2.0138463000002957,correct,b
44,2F4K,45,1,48.5973944962249,65.41131664012384,1.3735618119336703,65.53921043158876,1,n,3.2533338000002914,incorrect,c
45,2F4K,46,2,57.874064904005394,44.74519186201395,1.6658077932862727,48.09367263771017,1,b,1.4736109000000397,incorrect,v
46,2F4K,47,1,53.38207692779683,70.22963234434012,1.5172536674318269,68.95249665181858,1,c,4.10761279999997,correct,c
47,2F4K,48,2,70.58996628485053,51.80612916998637,2.1700059351157863,54.39430087173325,1,b,4.793349399999897,incorrect,v
48,2F4K,49,2,70.02415283508039,48.4506529103053,2.144623779238281,51.42225383326212,1,v,1.6012206000000333,correct,v
49,2F4K,50,2,29.46531611502973,41.94429181591495,0.9227165787804672,45.5646420844213,2,v,1.8444275000001653,incorrect,b
50,2F4K,51,1,62.61172683387618,47.793815927484864,1.838273980297852,50.83492211613921,2,n,3.0409073999999237,correct,n
51,2F4K,52,1,54.97983519812667,65.87358696667621,1.56851035754304,65.88129806703252,1,c,1.7528062000001228,correct,c
52,2F4K,53,2,46.31257626657291,63.39596775128951,1.309827919401689,64.01440275553158,2,v,4.349665599999753,incorrect,b
53,2F4K,54,1,45.92393941325262,36.011439401142326,1.2992852338883405,40.24069606293647,2,n,1.0313171000002512,correct,n
54,2F4K,55,2,52.11270394283469,34.06445096374728,1.4777283851053482,38.52101548665455,1,v,4.356421599999976,correct,v
55,2F4K,56,1,45.46458634951375,55.41087409979938,1.2869335746645294,57.51407202616395,1,c,2.914569300000039,correct,c
56,2F4K,57,2,46.08422149073177,36.80362693166488,1.30362294003796,40.94548054547964,1,b,2.171631400000024,incorrect,v
57,2F4K,58,1,47.42503587910349,64.90026376194537,1.3404812840332254,65.15762976674459,1,c,1.2855454999998983,correct,c
58,2F4K,59,2,55.9071941475742,71.35003328488378,1.5990508577720826,69.69504935186919,2,v,1.8985118000000512,incorrect,b
59,2F4K,60,1,52.01166045815572,68.22580336722028,1.4746267302442075,67.57498465124857,1,c,2.2024505999997928,correct,c
60,2F4K,61,2,52.36604374567676,36.25474599460099,1.485533678005735,40.456876618233885,1,b,3.8299340000003212,incorrect,v
61,2F4K,62,2,26.465714370422308,37.867933002370776,0.8669203962023674,41.89618717725568,2,v,4.027823100000205,incorrect,b
62,2F4K,63,2,59.27501947569359,41.259877004520334,1.7150499374771184,44.94682149599162,1,b,4.314204199999949,incorrect,v
63,2F4K,64,1,48.74465047838262,66.23161973664254,1.3777742445530508,66.14421176841664,1,c,1.1095331999999871,correct,c
64,2F4K,65,1,69.23010699630035,56.53921766099498,2.10950310326298,58.47057148974776,2,c,1.0731151999998474,incorrect,n
65,2F4K,66,1,33.96829577451719,49.6051723455679,1.0132912261812337,52.45069076405157,1,n,1.413237400000071,incorrect,c
66,2F4K,67,1,64.56555331686221,44.02985141904869,1.9144985924431135,47.448115401443616,2,n,1.0791784000002735,correct,n
67,2F4K,68,2,50.74265002545028,64.60172636394653,1.43622273052146,64.9331025280259,2,b,3.435455400000137,correct,b
68,2F4K,69,1,49.11234480934393,37.01305427227037,1.38834906677648,41.13222698940902,2,n,2.7132517999998527,correct,n
69,2F4K,70,1,46.23147684143633,32.68032263794122,1.3076208672984988,37.31129596118061,2,n,0.8925383000000693,correct,n
70,2F4K,71,2,52.20706870401645,39.98800298928627,1.480630919304491,43.80015785476935,1,b,4.338208600000144,incorrect,v
71,2F4K,72,1,51.75715412655837,29.660986954814412,1.466843162580274,34.718176812984474,2,n,1.0489865999998074,correct,n
72,2F4K,73,1,59.28706115292513,48.32426870389637,1.7154794391330457,51.309359607730144,2,c,1.2005776000000878,incorrect,n
73,2F4K,74,1,37.52328299653194,52.16486089153236,1.0910358366885728,54.7086142794383,1,n,1.0673618000000715,incorrect,c
74,2F4K,75,2,49.60344731307673,59.91290210264273,1.40259979220871,61.26104888184629,2,b,5.0,incorrect,b
75,2F4K,76,2,51.89803513415609,68.10309088919911,1.4711466361704295,67.48862873925886,2,v,4.377586600000086,incorrect,b
76,2F4K,77,2,60.99582276932659,42.59992571814067,1.7775309538315212,46.15674672530815,1,v,3.0763930999996774,correct,v
77,2F4K,78,2,45.06039685004221,41.50533823349156,1.2761623755413782,45.168353837821016,1,b,3.3686216999999488,incorrect,v
78,2F4K,79,1,45.52900063988977,38.43333075538328,1.2886585224989295,42.40278178670476,2,n,2.0622926999999436,correct,n
79,2F4K,80,2,45.75190515929239,30.117265306983995,1.2946455374536214,35.105545591253744,1,v,1.2429279999996652,correct,v
80,2F4K,81,1,60.98740904900309,74.8050182137154,1.7772199870716117,71.85270442039167,1,c,2.4399030999998104,correct,c
81,2F4K,82,2,49.76386091431387,61.46149057430725,1.4072862662483907,62.50260204041787,2,b,1.2700229000001855,correct,b
82,2F4K,83,1,40.52019731300477,60.39705884348919,1.161191502333467,61.65206236505364,1,c,2.0927459999998064,correct,c
83,2F4K,84,2,62.78531582165737,46.06033830588488,1.8449215545149071,49.27870425129572,1,b,1.0796528000000762,incorrect,v
84,2F4K,85,1,56.27239472497772,65.63299396067933,1.6112404881394335,65.70362241785615,1,n,2.834607799999958,incorrect,c
85,2F4K,86,1,58.58017191246158,72.98517691987277,1.690447436764258,70.74162461242578,1,c,1.4250888999999916,correct,c
86,2F4K,87,2,36.04857465795557,52.19018853794974,1.0580862544529888,54.73077699173495,2,b,3.482491200000368,correct,b
87,2F4K,88,1,64.79589781952643,44.97895408137198,1.923690806801458,48.30450570599263,2,n,2.277154800000062,correct,n
88,2F4K,89,1,51.51418386782586,68.70824915970218,1.4594507388137583,67.91229212841215,1,c,1.2566869000002043,correct,c
89,2F4K,90,2,65.47505986190207,50.76993001835926,1.951051413443492,53.48233263323225,1,b,3.1572222999998303,incorrect,v
90,2F4K,91,1,55.65951265096552,43.88187870788248,1.5908362914129062,47.31452100814594,2,n,1.436314399999901,correct,n
91,2F4K,92,2,46.94671429363309,38.891448666743294,1.3272143856273095,42.813934732065945,1,v,3.775229799999579,correct,v
92,2F4K,93,2,51.85234565831907,70.3904554207411,1.4697495841994574,69.06032687381901,2,b,3.0539088999998967,correct,b
93,2F4K,94,2,51.03973834076222,42.08012725359256,1.4451228586864704,45.68730045274654,1,v,3.5082424000001993,correct,v
94,2F4K,95,1,57.77119510148077,74.96209526800588,1.6622482433429822,71.94588347843431,1,c,2.453128299999662,correct,c
95,2F4K,96,2,48.72809664311122,35.47615519079227,1.3773000586256825,39.76602843259125,1,v,3.5992528000001585,correct,v
96,2F4K,97,2,57.76224717993259,68.89100117967726,1.6619389829076536,68.03914108851369,2,b,1.4554824000001645,correct,b
97,2F4K,98,1,29.722861070628905,48.27137284423221,0.927671440491369,51.26209281006089,1,n,2.543298799999775,incorrect,c
98,2F4K,99,1,46.35917039636575,65.16069548817701,1.3110976236556997,65.35252394322772,1,c,2.464385200000379,correct,c
99,2F4K,100,2,56.390319105099294,47.36495117210941,1.61519636964958,50.45067977400692,1,v,1.49945469999966,correct,v
100,2F4K,101,2,50.01419176149069,60.10342202051626,1.4146309716539058,61.41521826852338,2,v,2.8224810000001526,incorrect,b
101,2F4K,102,1,54.43322573907647,39.54526470878324,1.550782943030909,43.40164713379399,2,c,2.4643581999998787,incorrect,n
102,2F4K,103,2,39.7797644368338,35.39277308558767,1.143449723515771,39.69220953518876,1,b,3.6781535000000076,incorrect,v
103,2F4K,104,2,69.57386681297253,55.760045016834425,2.124636455768011,57.81119568922057,1,b,2.5558155999997325,incorrect,v
104,2F4K,105,1,67.64347850785728,52.69222051783817,2.0410398569187884,55.16926531573757,2,c,1.3340825999998742,incorrect,n
105,2F4K,106,2,60.37797817595505,72.46987480661672,1.7548398157183849,70.4166475933464,2,v,4.13240339999993,incorrect,b
106,2F4K,107,2,48.86185394167645,58.95118387051489,1.3811362201490072,60.4769907754498,2,v,2.245914999999968,incorrect,b
107,2F4K,108,1,45.31357883920387,30.25923535639878,1.282898796090188,35.22642236118601,2,n,1.9621143999997912,correct,n
108,2F4K,109,2,59.92325045418903,46.63546927223003,1.7383246116582924,49.79588628493121,1,v,1.6101920000000973,correct,v
109,2F4K,110,1,51.858510134891205,65.88360878791794,1.469937998604739,65.88868169833242,1,c,1.9363612999995894,correct,c
110,2F4K,111,2,51.44282446396316,65.96046324711621,1.457286699283056,65.94525823007835,2,b,1.123559799999839,correct,b
111,2F4K,112,1,44.66172635438227,62.00424547815856,1.2656265683276344,62.931299465004656,1,c,3.603900899999644,correct,c
112,2F4K,113,2,38.73921712093676,51.73007218072798,1.1189739990441594,54.32756479593139,2,b,1.5161811000002672,correct,b
113,2F4K,114,2,77.54951035673415,56.994947748529015,2.5079095390661696,58.85380514140426,1,v,2.1548571999996966,correct,v
114,2F4K,115,2,51.51007356433152,64.29115344711909,1.4593260029074155,64.69827178326045,2,b,1.3158430000003136,correct,b
115,2F4K,116,1,32.03053279406046,41.82309422364306,0.9732726934109268,45.45521081261812,1,n,0.8417261999998118,incorrect,c
116,2F4K,117,1,44.03599158700591,28.89432819255313,1.2492651791652007,34.07127117131011,2,c,2.372381099999984,incorrect,n
117,2F4K,118,1,46.58023879695632,60.711374298892885,1.3171385984112511,61.90453908249047,1,c,1.1535315000000992,correct,c
118,2F4K,119,1,66.01769647147965,46.33986834344044,1.973191385719525,49.53016338971312,2,n,1.5162034999998468,correct,n
119,2F4K,120,2,40.51867881767732,60.78972289761791,1.161154836870934,61.967302823857935,2,b,1.5585528999999951,correct,b
120,2F4K,121,1,35.590544004324855,50.88047494327865,1.0480563739360491,53.57989861433981,1,c,4.089213799999925,correct,c
121,2F4K,122,1,62.92586930752055,43.83950651211623,1.8503216452658493,47.27626327357169,2,n,0.8850217999997767,correct,n
122,2F4K,123,2,43.75022617423758,55.74305866075253,1.2418636527445135,57.79676430786191,2,b,1.4255358999998862,correct,b
123,2F4K,124,2,37.142345583002,52.76102586219444,1.0824274772598408,55.22923916618527,2,b,0.903480099999797,correct,b
124,2F4K,125,1,51.46434577281327,67.72812899435273,1.4579390146040117,67.22336539569916,1,c,1.1704878000000463,correct,c
125,2F4K,126,1,39.19035162079904,28.74253512826551,1.1295205734057336,33.94379766833567,2,n,0.7150624999999309,correct,n
126,2F4K,127,1,50.41518765469866,62.03332340101494,1.426476153650289,62.95416908870271,1,c,1.079036300000098,correct,c
127,2F4K,128,1,70.07405643881292,57.448965952698025,2.1468504453441866,59.23374719920128,2,c,0.9688285999995969,incorrect,n
128,2F4K,129,1,64.77358857519927,48.4719444719028,1.9227985988020504,51.44126709811332,2,n,0.8546445000001768,correct,n
129,2F4K,130,2,58.39593405386382,42.64222638961618,1.6839835221202852,46.19495301866909,1,v,1.813626199999817,correct,v
130,2F4K,131,2,38.18902512645387,57.45317896180333,1.1062448614166156,59.23726399578072,2,b,1.1330011000000013,correct,b
131,2F4K,132,1,38.94357006313391,56.447514271000216,1.1237390843302433,58.393235966025735,1,n,2.082074399999783,incorrect,c
132,2F4K,133,2,54.65977513518105,36.438518845427865,1.5581058583869636,40.62032942325944,1,b,0.7762127999999393,incorrect,v
133,2F4K,134,2,36.8788398708885,47.43027244923594,1.076512592951942,50.50924063225709,2,v,1.1398724000000584,incorrect,b
134,2F4K,135,1,48.90249313755356,61.66664870071866,1.3823038679175994,62.6650517722648,1,c,2.6108188999996855,correct,c
135,2F4K,136,2,41.92396258850083,55.69411072025323,1.1955868030352617,57.75516554551723,2,b,2.6478123000001688,correct,b
136,2F4K,137,1,43.29143263982193,34.048179531767964,1.2300721838765425,38.506727897597614,2,n,1.937818999999763,correct,n
137,2F4K,138,2,46.69609792567797,60.67928702281566,1.3203157044639084,61.87881477652317,2,b,2.2520117999997638,correct,b
138,2F4K,139,2,53.02303933804988,61.37290621278351,1.5059680681973495,62.43230804744636,2,b,0.7020590000001903,correct,b
139,2F4K,140,2,65.66241762225384,51.92295262957968,1.9586675267271447,54.496742238334654,1,b,1.988552400000117,incorrect,v
140,2F4K,141,1,59.64287838833413,51.80176062826647,1.7282193643743229,54.390468604136586,2,n,1.6922395999999935,correct,n
141,2F4K,142,1,74.21590839830317,60.31578091607695,2.339949268975097,61.58659840241554,2,n,0.9518685000002733,correct,n
142,2F4K,143,1,32.29911157571149,50.70000386826302,0.9787235690330915,53.42058406183547,1,c,1.8256264000001465,correct,c
143,2F4K,144,2,50.312118352596414,33.25278667820757,1.42342210995784,37.81019982169699,1,v,2.611460999999963,correct,v
144,2F4K,145,2,76.56281707744142,55.34539915764344,2.456977272092648,57.45824719634594,1,b,2.4219105000001946,incorrect,v
145,2F4K,146,2,54.0779150518496,35.0441227798709,1.5393672415847646,39.38391481541752,1,v,1.8175145999998676,correct,v
146,2F4K,147,1,60.92845057232147,41.7968887524606,1.7750424379446343,45.43155073158752,2,n,1.8560428000000684,correct,n
147,2F4K,148,2,32.47890377246907,55.216790862576495,0.9823895457048104,57.348494661567806,2,b,2.512966399999641,correct,b
148,2F4K,149,2,41.5980112989838,57.34673182360181,1.1875105568947748,59.14835740650619,2,b,1.431176399999913,correct,b
149,2F4K,150,1,40.39244007704237,44.51760697233303,1.1581107320373674,47.88834622289557,1,n,1.3818003999999746,incorrect,c
150,2F4K,151,1,62.51633790026986,70.51052041975315,1.8346312728247172,69.14055946043223,1,c,1.5942964999999276,correct,c
151,2F4K,152,2,38.221374813227314,56.58057428517499,1.1069892747506764,58.50542456060244,2,b,1.4857891999999993,correct,b
152,2F4K,153,2,38.83754987130472,56.11229684567261,1.1212643866758172,58.10992483878573,2,b,0.9274857000000338,correct,b
153,2F4K,154,2,64.18397848074251,49.536817813536224,1.8993678704862185,52.38995388055156,1,b,2.2337225999999646,incorrect,v
154,2F4K,155,1,40.9435404838328,51.15846847239733,1.1714587989871244,53.82497101594777,1,c,3.599398800000017,correct,c
155,2F4K,156,1,32.81802685266512,47.71763535489993,0.9893417093981884,50.76670965163476,1,n,1.825565799999822,incorrect,c
156,2F4K,157,2,72.26412004415766,56.45036537006287,2.246880818156386,58.39564145855934,1,v,2.0699079000000893,correct,v
157,2F4K,158,1,48.212953606682014,41.23899143207111,1.3626250255381025,44.92797472599408,2,n,1.31570180000017,correct,n
158,2F4K,159,1,59.68004083620443,36.85271172321775,1.729555398993777,40.98923421847577,2,n,3.5312349000000722,correct,n
159,2F4K,160,2,49.4198078683896,44.94211775295014,1.397253933132997,48.27128736943316,1,b,2.251944099999946,incorrect,v
160,2F4K,161,1,38.92986312730924,45.01779050262097,1.1234188331862198,48.33952565503349,1,n,3.4290031000000454,incorrect,c
161,2F4K,162,2,51.74522416375312,35.30156208420311,1.4664793182446303,39.61149816184641,1,v,1.9531025000001137,correct,v
162,2F4K,163,2,34.57620876517051,52.52014500122193,1.026181742540741,55.01914569995424,2,b,1.4919089999998505,correct,b
163,2F4K,164,1,26.610328466367715,40.594288359929806,0.8695312931159497,44.34646181339962,1,c,3.150173800000175,correct,c
164,2F4K,165,1,39.48012117244705,51.08577594606095,1.136347145910073,53.76092653169791,1,c,1.189046800000142,correct,c
165,2F4K,166,2,44.62488105332447,31.503563511032358,1.2646572463810866,36.29261448135304,1,v,3.7190537999999833,correct,v
166,2F4K,167,2,39.522604811414695,57.47872623048133,1.1373514640283793,59.25858598633512,2,b,1.321958099999847,correct,b
167,2F4K,168,1,44.93049342959416,58.87228954625731,1.2727197736873903,60.41224834612615,1,c,4.5742755000001125,correct,c
168,2F4K,169,2,59.17326993461021,48.077987203535656,1.7114250328802805,51.08920373057335,1,b,1.073064499999873,incorrect,v
169,2F4K,170,2,51.86644983146397,39.88139116488959,1.4701807073862092,43.704160409328296,1,v,1.8855806000001394,correct,v
170,2F4K,171,2,52.711530435959006,70.20256956036532,1.4962444679109634,68.93431077268318,2,v,1.8991916999998466,incorrect,b
171,2F4K,172,2,76.21666942748885,54.20111675768386,2.439355597891693,56.47725001357336,1,v,1.1823742000001403,correct,v
172,2F4K,173,2,38.565816574204014,59.34963712898743,1.1149465094480282,60.803002038543625,2,b,1.2308837999999014,correct,b
173,2F4K,174,1,44.1736489800886,34.8697921194094,1.252846330094009,39.22999143680783,2,n,3.385682999999972,correct,n
174,2F4K,175,1,36.26900984166702,42.83056579331964,1.0629474651635091,46.36506498103206,1,n,1.3280402999998842,incorrect,c
175,2F4K,176,2,63.677686631226166,53.17397100377512,1.8794761380352325,55.58853944351157,1,b,5.0,incorrect,v
176,2F4K,177,1,60.79858149526597,46.61387270033669,1.7702553112092725,49.77647968057833,2,n,4.5894100000000435,correct,n
177,2F4K,178,1,51.55174189211991,67.9593904053972,1.4605910109117377,67.38721654057356,1,c,1.1292117999996663,correct,c
178,2F4K,179,2,33.93381215620023,50.23848390013984,1.0125648892485182,53.01242463539649,2,b,1.4554962000001979,correct,b
179,2F4K,180,1,53.47675133414002,36.4133702140897,1.5202436253085236,40.597953115085446,2,n,1.0669051999998374,correct,n
180,2F4K,181,2,37.84908664608658,53.37121151809614,1.0984525869759578,55.75976031305193,2,b,1.9839676000001418,correct,b
181,2F4K,182,1,45.19555615616471,31.08207687683927,1.2797541499659857,35.93014605326604,2,n,4.327531200000067,correct,n
182,2F4K,183,2,42.237085927899614,52.48112677687319,1.2033969270205689,54.98508023587591,2,b,1.1641187000000173,correct,b
183,2F4K,184,2,45.10903617851794,56.06707806312971,1.2774537728277011,58.07163481607322,2,b,1.3279846000000362,correct,b
184,2F4K,185,2,55.75360919387764,60.77024748978569,1.5939521004384534,61.95170779678552,2,v,3.422341499999675,incorrect,b
185,2F4K,186,1,30.45212960773161,48.31484852383664,0.9418465204200772,51.30094262783238,1,c,1.752885200000037,correct,c
186,2F4K,187,2,73.09858281465976,57.99227679811823,2.286209296297452,59.6859054824671,1,v,1.2248356999998578,correct,v
187,2F4K,188,2,52.61621986874408,65.47203367880792,1.493281956522152,65.58430953544799,2,b,1.9364710999998351,correct,b
188,2F4K,189,2,51.26881266111212,61.16316680704868,1.45202307455223,62.26551538712607,2,b,1.6370013999999173,correct,b
189,2F4K,190,1,61.53943710974913,44.0378987155402,1.797738415724006,47.45538029099593,2,n,2.2944196999997075,correct,n
190,2F4K,191,2,40.55374736739257,32.25508448484427,1.1620018946144115,36.94208213241574,1,v,1.6390344999999797,correct,v
191,2F4K,192,1,43.20730424443472,26.02179397975222,1.2279221757727887,31.69593334562989,2,n,1.5031057000001056,correct,n
192,2F4K,193,2,38.110063587190375,50.67436616981633,1.1044299430741202,53.39793835795519,2,b,1.5759250999999495,correct,b
193,2F4K,194,1,74.30716698136209,55.309678536403474,2.344393933816028,57.42777688560974,2,n,2.013840099999925,correct,n
194,2F4K,195,2,37.70324122936811,46.51054951706113,1.0951262792369614,49.6836181431,2,b,1.479186000000027,correct,b
195,2F4K,196,1,57.40081847593784,45.80094157773674,1.649495170941494,49.04521031441432,2,n,2.518962300000112,correct,n
196,2F4K,197,1,41.60928043690542,26.213975376450367,1.1877888649492363,31.852286852713476,2,n,2.0137385999996695,correct,n
197,2F4K,198,2,42.90004749766073,60.92531688802583,1.2201017153491192,62.075762694101705,2,b,1.2301501000001736,correct,b
198,2F4K,199,2,44.89545271013773,25.476307008508076,1.2717927425813975,31.254275845295712,1,v,1.8863799000000654,correct,v
199,2F4K,200,1,54.12888764518278,34.74774797335866,1.54099975166049,39.12232713807781,2,n,1.8135541000001467,correct,n
200,2F4K,201,1,43.81581516499176,52.715206527586126,1.243558567176661,55.18930430684024,1,c,3.823920199999975,correct,c
201,2F4K,202,1,56.968115006202,48.438525679841824,1.6347198897054245,51.41142353601613,2,n,2.6828967999999804,correct,n
202,2F4K,203,1,37.01884627838681,51.348736208313206,1.079651266068214,53.99246820107414,1,c,1.0004030000000057,correct,c
203,2F4K,204,1,58.58015356985304,42.94451032213153,1.6904467919874595,46.46798256398486,2,n,1.570807000000059,correct,n
204,2F4K,205,1,56.99457366135886,37.73072525258903,1.6356195474166264,41.77340148859043,2,n,2.908447100000103,correct,n
205,2F4K,206,1,65.00712429312662,49.811422390403806,1.93215887731198,52.63383084068767,2,n,2.355145900000025,correct,n
206,2F4K,207,1,69.81004492145787,53.18898075054604,2.135096604790179,55.60157826264598,2,n,2.895375200000217,correct,n
207,2F4K,208,1,53.79214848383801,35.0043421000834,1.5302469095500686,39.34877723692949,2,n,1.4250927000002775,correct,n
208,2F4K,209,1,38.98504484542013,30.26396772868049,1.1247086642389963,35.23045441910688,2,c,2.0623665999996774,incorrect,n
209,2F4K,210,1,39.99471345102549,54.65370874901416,1.14857208472857,56.86644805078459,1,c,0.8720908999998755,correct,c
210,2F4K,211,2,40.97341136604996,53.11073931922542,1.172186673766344,55.53359431585314,2,b,4.283628099999987,correct,b
211,2F4K,212,1,51.71007754407928,65.5541528401124,1.4654079283963577,65.64522533685552,1,c,3.1016396999998506,correct,c
212,2F4K,213,2,51.97809010039531,32.63621825243456,1.4735976879831592,37.27294639850421,1,v,1.5905029000000468,correct,v
213,2F4K,214,2,39.7842982254255,53.64278828932272,1.1435575301598742,55.99507998351257,2,b,1.3098368000000846,correct,b
214,2F4K,215,1,36.22606077062362,55.68431043603229,1.061998569698129,57.7468343443069,1,n,3.297175199999856,incorrect,c
215,2F4K,216,2,59.664878571325495,50.24126027070479,1.7290101726772842,53.014883112672194,1,b,1.6132606999999552,incorrect,v
216,2F4K,217,1,62.13424035856134,44.199428602560864,1.820111977078144,47.60119424895213,2,n,2.688245299999835,correct,n
217,2F4K,218,1,62.76543692588688,41.92253324321338,1.8441590768647027,45.54499523782461,2,n,3.0606402000003072,correct,n
218,2F4K,219,1,39.198947803903366,53.3479826497823,1.129722496194348,55.73960932287448,1,c,0.9228871999998773,correct,c
219,2F4K,220,2,64.18630229386987,52.5628689110742,1.899459654595328,55.05643559772001,1,v,2.0987460000001192,correct,v
220,2F4K,221,2,39.71624307027116,50.46213096063845,1.1419403496492804,53.21034489474872,2,b,0.9592769999999291,correct,b
221,2F4K,222,2,44.19787212778442,36.89341273808885,1.253477555515706,41.02552181032309,1,v,1.7953628000000208,correct,v
222,2F4K,223,1,61.73117919883401,49.17277797301095,1.8049206035589336,52.06614768907716,2,n,2.385527099999763,correct,n
223,2F4K,224,1,34.221144830238565,56.79612433559488,1.0186329885166112,58.68683578714416,1,c,1.1393885000002228,correct,c
224,2F4K,225,2,33.39197916763433,41.980735062880086,1.0012202497405336,45.5975490480974,2,v,2.7557017999997697,incorrect,b
225,2F4K,226,2,25.122883421577644,37.0584737400593,0.8430478962002533,41.17274972802321,2,b,0.6121960000000399,correct,b
226,2F4K,227,1,44.40201614637964,37.51506765049124,1.2588099474836807,41.58053942831992,2,n,2.0137559999998302,correct,n
227,2F4K,228,2,41.69658010355953,50.37111876529504,1.1899470705124615,53.1298314303391,2,b,0.9691562000002705,correct,b
228,2F4K,229,1,42.86317947324619,29.78069099206322,1.219166684036729,34.81963558540896,2,n,1.8863721000002442,correct,n
229,2F4K,230,2,56.03839418625542,73.95839246067665,1.603419389733015,71.34298248567084,2,b,1.771362599999975,correct,b
230,2F4K,231,1,62.5586914730019,51.13999881110483,1.836247776954515,53.8087013204785,2,n,1.408646399999725,correct,n
231,2F4K,232,1,61.8930097433572,49.17674427005162,1.8110047023365967,52.06967861556559,2,n,1.334085999999843,correct,n
232,2F4K,233,1,41.10233100655434,62.11441840705656,1.1753332976990238,63.01789682172403,1,c,0.8367283000002317,correct,c
233,2F4K,234,1,41.95263924770848,57.519231724569856,1.1962999612318204,59.29237986607268,1,c,0.9031635999999708,correct,c
234,2F4K,235,1,39.17496055376291,26.535179124604557,1.12915913017502,32.11446792589786,2,n,0.8910049000000981,correct,n
235,2F4K,236,1,41.30474567025618,56.78046451171424,1.1802908127454192,58.67366994475059,1,c,0.8000287999998363,correct,c
236,2F4K,237,1,62.81330947978233,45.50912947040908,1.845995817681121,48.78238409413153,2,n,0.903613100000257,correct,n
237,2F4K,238,2,34.32927978001844,40.715058701550205,1.0209260669239086,44.4553534761779,2,v,1.4614964000002146,incorrect,b
238,2F4K,239,1,48.51484371727469,39.513605240277776,1.37120598491265,43.37316584881725,2,n,2.1487311999999292,correct,n
239,2F4K,240,1,71.37551642006706,54.926510592150464,2.205744201857069,57.10029553807612,2,n,0.7407956999995804,correct,n
240,2F4K,241,1,51.64998948661191,38.38301353207184,1.463578050460279,42.35765866387323,2,n,2.3298577999998997,correct,n
241,2F4K,242,2,50.41468599505941,54.12078082860605,1.4264612731295994,56.40800933808099,2,b,1.2188770000002478,correct,b
242,2F4K,243,2,28.22305794394688,37.510867029819366,0.8991861618694906,41.57678440681528,2,b,1.1459536000002117,correct,b
243,2F4K,244,1,46.787326912346586,64.849626806034,1.3228227912088777,65.11962984059222,1,c,1.1572791999997207,correct,c
244,2F4K,245,2,46.214511157382425,66.66373079481917,1.3071596311596432,66.45912019928352,2,b,0.9210281000000577,correct,b
245,2F4K,246,2,50.30685315435474,37.38496280647384,1.4232662726717846,41.464264713002734,1,v,1.38259620000008,correct,v
246,2F4K,247,2,57.36802489118895,44.73718801734572,1.648370724982795,48.08645263049279,1,v,1.5709842999999637,correct,v
247,2F4K,248,2,46.83003273760266,60.020634811898425,1.323998036050313,61.34827442156673,2,b,1.0791481000001113,correct,b
248,2F4K,249,2,58.6161251154462,39.75786967954119,1.691711731497301,43.59296447960071,1,v,0.8182639000001473,correct,v
249,2F4K,250,1,65.68992065694047,51.24286348847062,1.959788027730896,53.899290180890006,2,n,1.1328496000000996,correct,n
250,2F4K,251,2,69.72444543119092,51.93707057310636,2.1312995316619467,54.50911673950512,1,v,1.5105948000000353,correct,v
251,2F4K,252,1,70.78545333915183,51.765131608661015,2.1788450474027368,54.35833176516935,2,n,1.619313499999862,correct,n
252,2F4K,253,1,48.0875974279271,33.94088812956637,1.3590776848117438,38.41255549318946,2,n,1.8014196999997694,correct,n
253,2F4K,254,1,53.80476392142957,45.22634997094768,1.5306483928748134,48.5275525692164,2,n,1.182346300000063,correct,n
254,2F4K,255,2,60.39954387050052,45.47391320292156,1.755626943112795,48.75065559951701,1,v,4.0833598999997776,correct,v
255,2F4K,256,2,58.70519966592761,47.64258815792454,1.6948481137655669,50.69949406703771,1,v,0.9942153999995753,correct,v
256,2F4K,257,1,69.29602644266447,53.14054111585397,2.112396700796312,55.55949386077703,2,n,1.2066451999999117,correct,n
257,2F4K,258,2,30.91658021496252,39.07953989864456,0.9509869220648828,42.98290393912146,2,b,1.0790913000000728,correct,b
258,2F4K,259,1,62.36130889363046,47.91796133671109,1.8287264260233411,50.94604246243202,2,n,1.0852940999998282,correct,n
259,2F4K,260,1,35.55351348206432,45.717244393748416,1.047249651755747,48.96984283715172,1,c,1.2309198000002652,correct,c
260,2F4K,261,2,49.53287383467551,33.088212476911764,1.400542938627125,37.66656010066822,1,v,1.649916100000155,correct,v
261,2F4K,262,1,53.533860970538825,36.73733882120261,1.522050080540043,40.88640706283259,2,n,2.579636599999958,correct,n
262,2F4K,263,2,74.48366666277566,61.57069314307212,2.3530141558009867,62.5891323776173,1,v,1.6815096999998786,correct,v
263,2F4K,264,1,47.07234763621013,60.726231907567744,1.330686229007988,61.91644651872407,1,c,1.1100954999997157,correct,c
264,2F4K,265,1,39.58581446456773,59.37229560300372,1.1388473905615042,60.82149198390115,1,c,2.9499627000000146,correct,c
265,2F4K,266,2,56.0262777233628,44.39692459199749,1.6030154514702737,47.779443672133,1,b,1.9460532000002786,incorrect,v
266,2F4K,267,2,24.36522853597591,36.49319762156736,0.8298697678912831,40.66898962514158,2,b,1.3826545000001715,correct,b
267,2F4K,268,1,57.3223479563155,47.38452952882764,1.6468058043154636,50.46823319310781,2,n,3.143271299999924,correct,n
268,2F4K,269,2,53.22810843209437,58.63173485461855,1.5124036675635153,60.21445796555958,2,b,1.9409502000003158,correct,b
269,2F4K,270,1,66.81390195389895,60.43772151957255,2.006132726861062,61.68478631820548,2,c,1.0549051000002692,incorrect,n
270,2F4K,271,2,50.77034223196552,72.94275057253085,1.4370500078488762,70.71503874920603,2,b,1.7831971999999041,correct,b
271,2F4K,272,2,30.985111891537898,46.6705017181236,0.952343116959286,49.82736387383226,2,b,1.1521507000002202,correct,b
272,2F4K,273,1,33.10865931897465,51.76267434808452,0.9953389318633606,54.35617558636029,1,c,1.667826200000036,correct,c
273,2F4K,274,2,34.92980328362752,46.55946722686498,1.033754850357167,49.72758606485,2,b,0.7930661000000327,correct,b
274,2F4K,275,2,43.20375333507042,35.39333936277989,1.2278315104709423,39.69271075231445,1,v,1.0127831999998307,correct,v
275,2F4K,276,2,57.37736655214275,44.87022079775478,1.6486909593160606,48.20644670367577,1,v,1.1155398000000787,correct,v
276,2F4K,277,1,54.20848177743816,39.52348516269687,1.5435523929499733,43.38205372676566,2,n,1.491779100000258,correct,n
277,2F4K,278,1,51.317230267278205,39.21759456482551,1.4534857305380728,43.10697913752786,2,n,0.849014200000056,correct,n
278,2F4K,279,1,52.05916255644118,34.841106566200786,1.4760840542627467,39.20467879510432,2,n,2.233740300000136,correct,n
279,2F4K,280,2,56.42912835515088,35.275881132138615,1.6165003845355663,39.58878076078699,1,v,1.5040174000000661,correct,v
280,2F4K,281,2,73.99801981941725,56.227592194936825,2.3293712551462766,58.207475560853055,1,v,2.955698299999767,correct,v
281,2F4K,282,1,35.34938627724078,51.15973837287288,1.042813806075833,53.826089588295126,1,n,2.353688300000158,incorrect,c
282,2F4K,283,1,53.46171215063895,41.206326412125335,1.5197682722875627,44.89849931758144,2,n,1.1944972000001144,correct,n
283,2F4K,284,2,70.26414083349681,58.447163577904064,2.155353081021194,60.062308437144885,1,v,2.385526000000027,correct,v
284,2F4K,285,2,47.44015220802772,39.02547142991825,1.340902710748035,42.93432315493146,1,v,1.2855483999996977,correct,v
285,2F4K,286,1,39.58179215066911,56.05664059835814,1.1387521394518092,58.06279421262737,1,c,1.8863996000000043,correct,c
286,2F4K,287,2,52.941239723543816,31.988217747937803,1.5034086313005075,36.71100061757424,1,v,2.7739145000000462,correct,v
287,2F4K,288,2,58.74208502249906,46.0654444140721,1.696148576916733,49.28329910154167,1,v,0.9713230000002113,correct,v
288,2F4K,289,1,64.72406077629076,53.64283069252687,1.920819324803949,55.995116686078525,2,n,1.461556499999915,correct,n
289,2F4K,290,1,48.988515100484335,64.24710480476013,1.384778713311257,64.66486320152633,1,c,1.771045999999842,correct,c
290,2F4K,291,2,65.90887095162765,48.80119774219675,1.968731175037456,51.73507428810076,1,v,2.5493219999998473,correct,v
291,2F4K,292,2,45.083569662074446,32.051600530026775,1.2767774618086676,36.7658395952344,1,v,1.9968714999999975,correct,v
292,2F4K,293,2,29.469587637990717,44.96692612458871,0.9227985416345328,48.29365931650071,2,b,1.425111200000174,correct,b
293,2F4K,294,1,28.256477542042944,44.26679683383428,0.8998112603834243,47.6620013407282,1,n,2.664700200000425,incorrect,c
294,2F4K,295,1,54.04077152726758,40.58960921224719,1.5381787274279644,44.34224332131201,2,n,0.8182682000001478,correct,n
295,2F4K,296,2,41.717454640203925,63.480554090284656,1.1904637074643991,64.07945968242888,2,b,1.582895400000325,correct,b
296,2F4K,297,2,64.02939601679493,43.58327385496583,1.8932722459851572,47.04488878344281,1,v,1.0001823999996304,correct,v
297,2F4K,298,2,62.72568522463327,49.91604444311343,1.8426353001534783,52.72665718716004,1,v,1.4250832000002447,correct,v
298,2F4K,299,1,54.41313108340995,66.89953561612536,1.5501350734834376,66.62984527056969,1,c,1.0978648999998768,correct,c
299,2F4K,300,1,34.981398297874044,48.183025674486494,1.0348645488808814,51.18312543577654,1,n,1.53432870000006,incorrect,c
300,2F4K,301,2,36.69236048868486,51.49689376878581,1.072346251248805,54.122757448826384,2,b,2.598090300000422,correct,b
301,2F4K,302,2,63.14098265218132,70.22904710707627,1.8586169623919335,68.95210350254021,2,v,0.7847458999999617,incorrect,b
302,2F4K,303,1,57.20243101503365,74.91114939751216,1.6427044406387163,71.91571009731958,1,n,2.9316969999999856,incorrect,c
303,2F4K,304,1,54.60892943215495,44.800118517652486,1.5564593332633334,48.14321803505286,2,n,2.129129400000238,correct,n
304,2F4K,305,1,65.43504512954844,48.61872368397995,1.949428652023632,51.57229489650781,2,c,2.019906699999865,incorrect,n
305,2F4K,306,1,43.10151552732066,54.645510390564326,1.2252239436219654,56.859411606547134,1,c,1.3462318000001687,correct,c
306,2F4K,307,1,66.90541609015922,56.5654359884924,2.00995399802141,58.492668571407904,2,n,1.2187635000000228,correct,n
307,2F4K,308,1,50.08085882977375,62.00477930168436,1.416593438379271,62.931719404520265,1,c,1.0366383000000496,correct,c
308,2F4K,309,2,56.04323406021214,42.276073804056814,1.6035807697485214,45.86425476467997,1,v,1.6497730000000956,correct,v
309,2F4K,310,1,35.31257557403054,55.5832260524506,1.0420158823187555,57.66085698503465,1,c,3.29578870000023,correct,c
310,2F4K,311,1,35.15166456101704,20.311122020188645,1.0385350713392694,27.245008590898557,2,n,0.9276608999998643,correct,n
311,2F4K,312,2,66.62890953728837,78.51444758648857,1.9984303414130136,73.93355321251057,2,b,1.9349403000001075,correct,b
312,2F4K,313,2,41.56889317136358,64.29413825619679,1.1867917434936048,64.70053468699915,2,b,3.2176832000000104,correct,b
313,2F4K,314,2,54.04630702067645,64.21519783173477,1.538355793294902,64.64064762139193,2,b,0.9999196999997366,correct,b
314,2F4K,315,1,40.71493881467308,56.30327098623344,1.1659033226620883,58.27144552173139,1,c,3.672075799999675,correct,c
315,2F4K,316,2,40.611202578560906,51.97916583798975,1.163391023170288,54.54600666863732,2,b,2.7010512000001654,correct,b
316,2F4K,317,2,50.41335264550818,65.31930252762112,1.426421723292438,65.47076875327258,2,b,0.9471773000000212,correct,b
317,2F4K,318,2,42.05874831119627,52.33152338309826,1.1989424825778556,54.85437951280245,2,b,0.8061523999999736,correct,b
318,2F4K,319,1,59.01183235081136,49.9963038977681,1.705689411362132,52.7978338030067,2,n,1.6739334999997482,correct,n
319,2F4K,320,1,58.09796714892951,38.16511702695163,1.6735817383085247,42.16234116183736,2,n,1.667920000000322,correct,n
320,2F4K,321,1,25.92193256074976,37.071481158278914,0.8571728005302441,41.18435623485525,1,n,2.06969590000017,incorrect,c
321,2F4K,322,1,45.51133728044793,56.75548825774328,1.288185286125869,58.65266692061568,1,c,2.6297349999999824,correct,c
322,2F4K,323,1,47.00262883757039,64.36674997588457,1.3287584488784994,64.75554863049187,1,c,0.9578308999998626,correct,c
323,2F4K,324,2,42.33362779382418,54.71839202806687,1.2058152110359956,56.92194625417721,2,b,0.9325816999999006,correct,b
324,2F4K,325,1,59.37129975641622,46.24161551499754,1.718487065075294,49.4417967716226,2,n,0.8849841000001106,correct,n
325,2F4K,326,2,57.18147282094459,66.76962651059735,1.6419886840201423,66.53588835974614,2,b,0.775695799999994,correct,b
326,2F4K,327,2,52.53436616450212,60.72751784915408,1.490742403309158,61.91747700424009,2,b,0.9092863000000762,correct,b
327,2F4K,328,1,53.24082225489133,64.76914594183057,1.5128035644303948,65.05916341025623,1,c,1.4552343000000292,correct,c
328,2F4K,329,1,52.45004486377172,65.44116079247485,1.4881308077287418,65.56138422069718,1,c,0.8857330000000729,correct,c
329,2F4K,330,1,32.624917976214235,42.55237056499928,0.9853768883532646,46.11379490477928,1,n,1.37657739999986,incorrect,c
330,2F4K,331,2,61.52747733880885,50.76924847985732,1.7972913801609582,53.48173091836048,1,b,1.5282925999999861,incorrect,v
331,2F4K,332,1,73.26764205494916,57.11907907731906,2.2942605816169466,58.95786957684941,2,c,1.771068699999887,incorrect,n
332,2F4K,333,1,37.400260178629054,52.86963298336757,1.0882483293639984,55.323844534023095,1,c,1.4069378999997753,correct,c
333,2F4K,334,2,52.45469316432853,43.58612758124048,1.4882746554592283,47.04746584996803,1,v,3.3432959000001574,correct,v
334,2F4K,335,2,51.01614494947201,44.321254154287935,1.444414039725511,47.71115190048435,1,b,2.895242600000074,incorrect,v
335,2F4K,336,1,23.106264591245747,41.85004100796044,0.8084261744218498,45.47954068488819,1,n,3.114159799999925,incorrect,c
336,2F4K,337,2,53.38381463347037,37.20980978958238,1.5173084937367716,41.30782581252774,1,v,1.0549019999998563,correct,v
337,2F4K,338,1,38.74916256958731,49.771377186939525,1.1192054377538223,52.598287466858125,1,c,2.06993889999967,correct,c
338,2F4K,339,1,32.85972740609387,42.54447831267628,0.9901999778788718,46.10666666310324,1,c,1.5858478999998624,correct,c
339,2F4K,340,1,58.30634326968129,51.23241958974712,1.6808492015609442,53.89009525615664,2,n,2.834549000000152,correct,n
340,2F4K,341,1,59.96240080023231,42.02759213445336,1.7397403728169911,45.63986043952042,2,n,0.9228680999999597,correct,n
341,2F4K,342,2,55.47916866058646,74.037052667632,1.5848815925880335,71.39087080365728,2,b,1.3878712999999152,correct,b
342,2F4K,343,2,55.93256068349892,39.89478322525196,1.5998945512706222,43.71621794780605,1,v,2.1912907000000814,correct,v
343,2F4K,344,1,49.5365443469024,62.07104255237336,1.40064984076566,62.983820044196776,1,c,1.655740700000024,correct,c
344,2F4K,345,1,65.21548110080101,78.2880542105321,1.940548422346279,73.81383967225308,1,c,2.543315099999745,correct,c
345,2F4K,346,1,43.22799521987319,59.10290713702928,1.228450611236756,60.6013209475252,1,c,1.6451851000001625,correct,c
346,2F4K,347,1,29.258775586984875,42.70770396426611,0.918762111077041,46.25409334743932,1,c,1.570822700000008,correct,c
347,2F4K,348,1,61.19142533951734,44.64421617859736,1.7847756800521757,48.00258009452859,2,n,2.816380400000071,correct,n
348,2F4K,349,1,62.50761872617832,44.41023531567578,1.834298665746959,47.79145587263891,2,n,1.3416419000000133,correct,n
349,2F4K,350,2,37.141752854960345,46.91332710685626,1.0824141359545736,50.04546363313133,2,b,1.3458241000003,correct,b
350,2F4K,351,1,57.86788738956307,45.23489325299207,1.6655938210228285,48.5352533770576,2,n,2.554449400000067,correct,n
351,2F4K,352,1,45.66940113896563,33.38909615310452,1.2924263181741422,37.92929723316082,2,c,2.2701704000000973,incorrect,n
352,2F4K,353,1,42.61966403270869,31.566791832087407,1.2130087194376202,36.34710197028246,2,n,1.327187800000047,correct,n
353,2F4K,354,2,49.01789083732396,35.96557680348475,1.385624865564181,40.19997580906601,1,v,2.968056499999875,correct,v
354,2F4K,355,1,48.26418145639485,55.62002107710222,1.3640773395941377,57.69216264108266,1,n,2.2459570999999414,incorrect,c
355,2F4K,356,1,55.02457980764216,47.77392073968569,1.5699704383318294,50.81710965275684,2,n,1.2673580000000584,correct,n
356,2F4K,357,2,38.99700223932541,56.62410113118885,1.1249883544630477,58.54209046407492,2,b,1.2068481000001157,correct,b
357,2F4K,358,2,46.66410170857015,59.47822286290421,1.3194375343146805,60.90786088563871,2,b,1.6436018999997941,correct,b
358,2F4K,359,2,50.86519850311325,37.51943580686887,1.4398873586544716,41.58444427846359,1,v,1.880300299999817,correct,v
359,2F4K,360,1,40.5350169322645,55.38390435306366,1.1615493964258832,57.491081402657535,1,n,1.1823753000003308,incorrect,c
360,2F4K,361,1,53.3887547298091,40.5433414858081,1.5174643694056271,44.30053234272507,2,n,3.706823400000303,correct,n
361,2F4K,362,1,62.49399850086424,71.30674912834408,1.8337792207617,69.66674125259769,1,c,1.3098417999999583,correct,c
362,2F4K,363,2,40.941982996507264,52.68146146228505,1.1714208595203317,55.1598845202467,2,v,3.131955399999697,incorrect,b
363,2F4K,364,1,47.338610255864445,28.515803515420384,1.3380743743265415,33.75377680277022,2,n,1.620836899999631,correct,n
364,2F4K,365,2,30.26536030886748,53.02709330801926,0.9381957101179896,55.46086968807565,2,b,2.0553185000003396,correct,b
365,2F4K,366,2,73.14110161537329,62.89193719145372,2.288231550348564,63.624885415113866,1,b,1.5222672999998395,incorrect,v
366,2F4K,367,1,31.08127933324309,42.4745245627691,0.9542494665151012,46.04348538889349,1,n,3.0349185999998554,incorrect,c
367,2F4K,368,1,29.30243899640695,39.01104079220414,0.9195966846179324,42.9213583859388,1,n,1.7663462000000436,incorrect,c
368,2F4K,369,2,46.46136374805556,56.29968144341925,1.313886735435069,58.26841244847733,2,v,1.7703652000000147,incorrect,b
369,2F4K,370,2,27.562723559915344,46.111890391597285,0.8869235792266748,49.3250920799554,2,b,1.2976472999998805,correct,b
370,2F4K,371,2,25.1778469226152,41.2790398290296,0.8440119950433281,44.96411408901288,2,b,0.5205383000002257,correct,b
371,2F4K,372,1,59.59403789908139,51.03267278388968,1.7264650594984772,53.71412312874282,2,n,1.4615429000000404,correct,n
372,2F4K,373,2,40.38953106645553,62.04597423145013,1.158040678677702,62.96411576572545,2,b,1.3765541000002486,correct,b
373,2F4K,374,2,57.968543518358416,45.13254757128334,1.6690837020947344,48.44299292556907,1,v,2.4705022000002828,correct,v
374,2F4K,375,2,61.59120203904669,43.017613361171854,1.7996745817834787,46.53401075021604,1,v,1.4331156999996892,correct,v
375,2F4K,376,2,40.29159462981045,51.766706508635245,1.1556846928298123,54.3597136784741,2,b,1.1337456000001112,correct,b
376,2F4K,377,1,55.82183072647312,45.51052004153401,1.5962149284229867,48.78363690107597,2,n,2.774103400000058,correct,n
377,2F4K,378,1,60.32720542955285,44.75258304906716,1.7529880518339531,48.10033991637959,2,n,1.6315005000001293,correct,n
378,2F4K,379,1,60.90995449187349,49.07343663015333,1.7743598609502664,51.977689862150925,2,n,2.0880842000001394,correct,n
379,2F4K,380,1,57.51671315413422,45.94925605454504,1.653475185675574,49.1787309737931,2,n,2.7678335000000516,correct,n
380,2F4K,381,1,56.3606719623825,43.64032198420169,1.6142009160387465,47.09640552369517,2,n,2.2565710999997464,correct,n
381,2F4K,382,2,44.61272031110803,65.76051087885246,1.2643374859469227,65.79789212867338,2,b,1.4556722000002082,correct,b
382,2F4K,383,1,55.0333504108089,44.30388269950243,1.5702567949705484,47.69547356323528,2,c,4.0772077000001445,incorrect,n
383,2F4K,384,1,39.61955534297291,29.91834947900817,1.1396467111431223,34.93645969175906,2,n,1.2066124999996646,correct,n
384,2F4K,385,1,60.81988969865519,44.06871916178216,1.771039870329006,47.48320372198974,2,n,1.1809978999999657,correct,n
385,2F4K,386,1,66.67619349388622,51.94137198349391,2.00039624885372,54.51288673136133,2,n,1.3826656999999614,correct,n
386,2F4K,387,1,49.26764917693044,69.81780799065265,1.3928399371102609,68.6744981666899,1,c,0.7576370000001589,correct,c
387,2F4K,388,2,40.87305873455991,57.72003074823525,1.1697431351755831,59.45968161832934,2,b,0.7939455999999154,correct,b
388,2F4K,389,2,49.05210862136678,40.88225153530779,1.386611142285958,44.6061350323572,1,v,1.8620970000001762,correct,v
389,2F4K,390,1,33.05206363334531,47.47885039714172,0.9941682321746595,50.55278278410519,1,c,1.387840700000197,correct,c
390,2F4K,391,1,52.97519201732396,40.48565920760997,1.5044704397916335,44.24853552542585,2,n,2.045634600000085,correct,n
391,2F4K,392,1,50.355793520664726,60.89305089876716,1.4247154485478433,62.04997224541199,1,c,1.4341233000000102,correct,c
392,2F4K,393,1,50.3360243256536,32.90307850799118,1.4241298842752306,37.50517971388973,2,n,2.5321082999998907,correct,n
393,2F4K,394,2,51.87677823998072,73.1553228818506,1.470496496737068,70.84793521215897,2,b,1.440295999999762,correct,b
394,2F4K,395,2,63.00708615478006,44.3670841151722,1.8534492139355847,47.75251362821297,1,v,2.8710136999998213,correct,v
395,2F4K,396,2,66.12228218353457,81.46712014124103,1.9774873496003345,75.4053571112273,2,b,0.9456469000001562,correct,b
396,2F4K,397,2,38.84855700800875,22.912252514112907,1.1215210588607494,29.22307313129904,1,v,2.0562950000003184,correct,v
397,2F4K,398,1,46.33223684859946,61.389574092325,1.310363526234713,62.44554134570557,1,c,2.950804299999618,correct,c
398,2F4K,399,2,45.51537870803673,55.789039392800326,1.2882935486381484,57.83582343956721,2,b,1.497259799999938,correct,b
399,2F4K,400,1,49.04383247869147,35.86808628996106,1.3863725304400234,40.11344772803746,2,n,2.343030099999851,correct,n
