,condition,trial,sub_task,x,y,xt,yt,cat,resp,rt,acc,correct_resp
0,4F4K,1,1,57.6373430637417,41.99272347183615,1.6576280162377408,45.15120702781641,2,n,5.0,NA,n
1,4F4K,2,1,47.22341601008738,34.15024946509132,1.3348729908070986,38.3240676168728,2,n,1.692224699999315,correct,n
2,4F4K,3,2,62.34955908571391,52.3541016915448,1.8282796671687696,54.17267437675968,1,v,2.019970899999862,correct,v
3,4F4K,4,2,51.73732791261716,35.424703034936215,1.4662385451492923,39.41852854271304,1,v,1.8730450000002747,correct,v
4,4F4K,5,2,51.67299535088871,67.94910848404979,1.464278384188792,66.34881936835166,2,v,1.315970799999377,incorrect,b
5,4F4K,6,2,58.44264513491618,68.96092049491698,1.6856200198622997,67.03775374028213,2,b,1.7347161000006963,correct,b
6,4F4K,7,2,66.84961618285077,51.53805540909276,2.007623147763732,53.47634801563983,1,b,1.3234872000002724,incorrect,v
7,4F4K,8,1,57.31011894371247,47.154923008230185,1.6463870827981404,49.68244590871395,2,c,2.5371940000004543,incorrect,n
8,4F4K,9,2,30.685220760904823,45.84046797616116,0.9464227265701844,48.53208770973077,2,v,5.0,incorrect,b
9,4F4K,10,2,73.18846599135581,59.93746592479549,2.2904863730265697,60.41060542467063,1,v,1.7215210000003935,correct,v
10,4F4K,11,1,62.11443594226115,51.35534843601903,1.8193625705924223,53.31993552039626,2,n,3.332086600000366,correct,n
11,4F4K,12,1,45.94794535682721,57.10217919741601,1.2999339854281953,58.13498391556551,1,n,4.770537200000035,incorrect,c
12,4F4K,13,2,38.16493809918994,25.467241607776412,1.105690909043607,31.16840319126669,1,b,1.631706000000122,incorrect,v
13,4F4K,14,2,46.36322717866998,57.84345520804911,1.3112082304403356,58.7372940843614,2,v,2.0869835999992574,incorrect,b
14,4F4K,15,1,46.32703463845548,56.513452825349006,1.310221782812733,57.65317077991256,1,c,2.6342876999997316,correct,c
15,4F4K,16,2,34.97156812006647,55.70656687150702,1.034653030939063,56.98808180406368,2,b,1.2249007000000347,correct,b
16,4F4K,17,2,31.497936679725196,55.39177416629673,0.9625531433543972,56.72718343169845,2,b,0.6861770999994405,correct,b
17,4F4K,18,1,50.130836320932346,33.767003477781266,1.418066402211073,37.99662906752235,2,c,2.6767997999995714,incorrect,n
18,4F4K,19,2,29.286098422072243,46.94093180350614,0.9192842654678334,49.49545239470289,2,b,2.291880900000251,correct,b
19,4F4K,20,2,57.764751021773066,39.404030875719634,1.6620255155547108,42.87896590933845,1,v,1.3766556999999011,correct,v
20,4F4K,21,1,32.44076622416281,45.6875427008219,0.9816107724614114,48.398013638449854,1,n,1.4302035000000615,incorrect,c
21,4F4K,22,2,51.086475134103246,65.77358645357158,1.4465280046911533,64.81786936596967,2,v,1.503958899999816,incorrect,b
22,4F4K,23,2,45.19905453391457,66.87733580506973,1.2798472512694437,65.60287455649723,2,b,1.1460252999995646,correct,b
23,4F4K,24,1,50.09687918914766,29.54309810683869,1.4170654324433023,34.45093562200585,2,c,1.9896171000000322,incorrect,n
24,4F4K,25,1,60.28978824825511,47.25987894561985,1.7516246376883775,49.77411510215221,2,c,2.5129697000002125,incorrect,n
25,4F4K,26,1,59.44419359204972,41.55982810040487,1.7210938966734044,44.7706755524941,2,n,0.7090507000002617,correct,n
26,4F4K,27,1,48.60718881627202,59.538107953561145,1.3738415898565162,60.09484444325517,1,n,1.2070963999995001,incorrect,c
27,4F4K,28,2,76.08480217681786,57.63892835756261,2.432675797609546,58.571605789581966,1,v,1.34527960000014,correct,v
28,4F4K,29,1,34.40298320469254,54.36249254257056,1.0224919579062914,55.868830089806586,1,n,1.8431666999995286,incorrect,c
29,4F4K,30,1,55.71226446523543,74.7913709289324,1.5925823058336956,70.69575272057666,1,n,1.6575906999996732,incorrect,c
30,4F4K,31,1,44.2295108171349,53.70110609508704,1.254302499828465,55.31322398754502,1,c,1.115691500000139,correct,c
31,4F4K,32,2,37.55830237480957,51.89111303543451,1.0918306265179547,53.77807530106526,2,b,1.321194000000105,correct,b
32,4F4K,33,2,55.053113891923154,38.87356702821208,1.570902256086195,42.414801408028936,1,v,1.5333064000005834,correct,v
33,4F4K,34,1,31.954887601571837,56.11407665325185,0.9717429413055886,57.32464692797425,1,c,1.655809599999884,correct,c
34,4F4K,35,1,32.36768527680825,45.87216882131623,0.9801201754418736,48.55987530150007,1,c,1.0900767000002816,correct,c
35,4F4K,36,1,29.5590461775885,46.307189776451,0.9245167642363302,48.94099290889702,1,c,1.183893800000078,correct,c
36,4F4K,37,1,62.470576045737175,76.73897817052764,1.8328862845818457,71.79058849515016,1,n,0.9447549999995317,incorrect,c
37,4F4K,38,1,36.41950325970263,52.94094377857605,1.0662790873470165,54.67098839564815,1,c,0.8598352000008163,correct,c
38,4F4K,39,1,46.35668437019015,37.41099308312885,1.3110298476114584,41.13899365856493,2,c,2.2748189999992974,incorrect,n
39,4F4K,40,1,46.307406799996784,64.02560825581443,1.309687125660729,63.54137373587344,1,n,2.9134806000001845,incorrect,c
40,4F4K,41,1,44.8289985115795,58.17207525879556,1.270036496182123,59.00270099143221,1,c,3.926777200000288,correct,c
41,4F4K,42,1,70.84351112581308,58.41632827949975,2.181477107008121,59.19931239927012,2,c,1.753205999999409,incorrect,n
42,4F4K,43,2,60.33451466410333,42.76084916186668,1.7532545109452682,45.82663938393658,1,v,1.1037415999999212,correct,v
43,4F4K,44,1,43.28587401178167,50.359894515237656,1.2299300099925494,52.46470596871756,1,n,2.3491111000003,incorrect,c
44,4F4K,45,2,43.54463945062861,58.98553586646227,1.2365659484728404,59.655270702348055,2,b,1.0245588000007047,correct,b
45,4F4K,46,1,46.247266125354784,56.05965806321,1.3080502675457149,57.27978031229511,1,n,4.175820100000237,incorrect,c
46,4F4K,47,2,32.19573314823102,53.21262207192493,0.9766218726935286,54.9009533292449,2,b,1.2795357000004515,correct,b
47,4F4K,48,2,44.37566041889114,58.209247923934825,1.2581202432564438,59.03265954503805,2,b,2.195268400000714,correct,b
48,4F4K,49,1,54.46593197624333,43.6286402931532,1.5518380002289485,46.58973854515351,2,c,1.330320699999902,incorrect,n
49,4F4K,50,1,45.76837591919555,55.62390987754697,1.2950890292654953,56.91965194082469,1,n,1.6619139999993422,incorrect,c
50,4F4K,51,2,27.000030808280748,43.22040978428034,0.8766062829050693,46.23077838248285,2,v,2.373351900000671,incorrect,b
51,4F4K,52,2,40.49135870785853,61.03212287051474,1.1604953655171155,61.26750537463289,2,b,0.7940202999998291,correct,b
52,4F4K,53,1,53.43894150020405,59.85184897626924,1.5190488287597603,60.343049094332514,1,n,1.067150099999708,incorrect,c
53,4F4K,54,2,55.76121697699673,44.84694568724374,1.5942042826554947,47.66034774070204,1,v,1.7057403999997405,correct,v
54,4F4K,55,2,60.49551977520165,51.65835624325118,1.7591342568323718,53.57923634749852,1,v,0.9350115999995978,correct,v
55,4F4K,56,2,55.61066143738149,64.72740205316462,1.5892210888455176,64.05864742140061,2,v,1.2482419999996637,incorrect,b
56,4F4K,57,1,45.08752470004704,49.311909716560365,1.2768824717558265,51.55929096866715,1,c,1.2491614999999001,correct,c
57,4F4K,58,2,50.54093398042646,63.83229541060821,1.4302110147990317,63.39779089468259,2,v,0.8743288000005123,incorrect,b
58,4F4K,59,2,66.51601503776918,56.43212936059122,1.993744378538917,57.586382785999,1,b,2.3175494999995863,incorrect,v
59,4F4K,60,2,51.03059771477645,60.63985626254008,1.4448482045450497,60.96191737693118,2,v,0.8122584000002462,incorrect,b
60,4F4K,61,2,39.96604910833952,28.415261380108618,1.1478876728573006,33.527235100541084,1,b,1.050327599999946,incorrect,v
61,4F4K,62,1,40.77412883360128,57.82056554686206,1.167339225426392,58.7187701278622,1,c,2.4089679999997315,correct,c
62,4F4K,63,1,36.05445238559661,42.960586745128126,1.058215585795946,46.00229125440464,1,c,1.658170099999552,correct,c
63,4F4K,64,2,57.96295083009939,48.62806760023063,1.66888960448328,50.966019762549166,1,v,0.8728991999996651,correct,v
64,4F4K,65,2,57.46769947248188,39.69801020555032,1.651790804329604,43.13647423030498,1,v,3.203710499999943,correct,v
65,4F4K,66,1,60.871531201739,47.40657008563199,1.772942731630532,49.902184409944894,2,c,2.3358878999997614,incorrect,n
66,4F4K,67,1,63.64051443430847,47.00822015022322,1.8780239129886869,49.55426454328196,2,n,0.9518564999998489,correct,n
67,4F4K,68,2,49.03653275084592,31.02033363979566,1.3861621039708694,35.67653585001087,1,b,1.0853704000001017,incorrect,v
68,4F4K,69,2,37.946733963775394,52.81362529337439,1.100685281699063,54.5630571169062,2,v,1.5596968999998353,incorrect,b
69,4F4K,70,2,53.22661040442639,40.12176597959482,1.5123565560010388,43.50795977898212,1,v,3.1509960000003048,correct,v
70,4F4K,71,1,26.90105935324984,48.34587117105416,0.8748040354293445,50.72068947213305,1,c,1.3947299999999814,correct,c
71,4F4K,72,1,67.32619235420742,48.98646291770304,2.027617851208197,51.277173338228536,2,c,3.2362663999992947,incorrect,n
72,4F4K,73,1,40.83835899315808,60.66535106083382,1.1688993987794078,60.98182945004037,1,c,3.10657429999992,correct,c
73,4F4K,74,2,60.37541078038189,71.09790921444284,1.7547461317259168,68.44192452635421,2,v,1.6789976999998544,incorrect,b
74,4F4K,75,1,61.001127814593126,42.411844962169766,1.777727053534954,45.519729369146745,2,c,2.4157226999996055,incorrect,n
75,4F4K,76,2,46.75053576280991,39.52990834120961,1.3218111520678246,42.98920479483919,1,v,1.1413972999998805,correct,v
76,4F4K,77,2,63.62658526557587,50.79247443997133,1.8774800241608176,52.83696256055642,1,v,2.0870656999995845,correct,v
77,4F4K,78,1,72.68200707037268,64.35784252817828,2.2664906538556018,63.78703876257965,2,n,1.248470599999564,correct,n
78,4F4K,79,2,54.3805830044584,38.52227666961828,1.5490862687025508,42.10780212091591,1,v,1.3963149000001067,correct,v
79,4F4K,80,2,52.78900330229651,39.47394794891308,1.4986568648544254,42.94019252113093,1,b,2.0092392999995354,incorrect,v
80,4F4K,81,2,56.24723612794274,40.56171130606743,1.610397774731171,43.89396728744122,1,v,2.3852866000006543,correct,v
81,4F4K,82,2,23.03826552125901,39.70985686209827,0.8072838668784276,43.14685493421144,2,b,2.2266123999997944,correct,b
82,4F4K,83,2,52.36407170908831,37.65461679289484,1.485472761458202,41.35104853656581,1,v,1.9713884000002508,correct,v
83,4F4K,84,1,56.07203945758216,69.24505243965437,1.6045415885698335,67.22848215597733,1,n,2.458366100000603,incorrect,c
84,4F4K,85,1,36.62716246232924,42.92001562620844,1.07089339770296,45.96661252414689,1,c,4.363090200000443,correct,c
85,4F4K,86,2,71.07089761761613,62.36531171400432,2.191816360748556,62.29324354721221,1,v,1.5697558000001663,correct,v
86,4F4K,87,2,50.77390131047636,32.27326294529983,1.4371563663568865,36.72872695523355,1,v,1.206722500000069,correct,v
87,4F4K,88,1,62.47705460130708,46.97153036448491,1.8331332235786009,49.52219797264377,2,c,2.2809266000003845,incorrect,n
88,4F4K,89,2,42.45598739661345,32.86849175276178,1.208887189438935,37.23230575425252,1,v,4.461040399999547,correct,v
89,4F4K,90,2,51.28743429852948,70.85805243925324,1.4525854446076574,68.28785625315837,2,v,1.830442000000403,incorrect,b
90,4F4K,91,2,40.92279473871122,61.22174200849808,1.170953545756094,61.41461931710512,2,v,1.3780649999998786,incorrect,b
91,4F4K,92,1,52.96061402406551,43.37484131301429,1.5040144424662858,46.36657805168027,2,n,1.5101561000001311,correct,n
92,4F4K,93,1,62.53064443218897,50.7328532247429,1.835177149424984,52.785709989177775,2,n,0.8781644000000597,correct,n
93,4F4K,94,1,54.448924149858655,46.629147964372805,1.5512892621275296,49.22279341561966,2,n,1.9592555999997785,correct,n
94,4F4K,95,2,35.6708098300549,58.595504025487536,1.049807125503646,59.34317807361739,2,b,1.1884915000000547,correct,b
95,4F4K,96,2,49.049388981690846,67.49634459661895,1.3865327270435297,66.03569900327695,2,b,0.7528161000000182,correct,b
96,4F4K,97,1,67.62558942468559,52.51555777062323,2.04028074552522,54.30998389842809,2,n,1.5512778000002072,correct,n
97,4F4K,98,1,71.11969715457141,54.69426762232271,2.194041652467505,56.14637050347161,2,n,1.5648220000002766,correct,n
98,4F4K,99,2,52.77257924675758,38.70434956908341,1.4981451180160523,42.26687845818751,1,v,1.8621444999998857,correct,v
99,4F4K,100,2,63.820947332442366,41.984523040420015,1.885083487866387,45.143997417548974,1,b,3.561708700000054,incorrect,v
100,4F4K,101,2,34.86065681684318,56.31723155757117,1.032269523343451,57.4919267577357,2,b,0.9324989999995523,correct,b
101,4F4K,102,2,36.47572246032436,49.13404456730436,1.067526344930457,51.40515850156496,2,b,0.7953863000002457,correct,b
102,4F4K,103,2,33.14363629092327,49.01601556380446,0.9960631307658138,51.30280868886367,2,v,2.4462039000000004,incorrect,b
103,4F4K,104,2,49.71462749773454,26.95068219274691,1.4058462518052997,32.344774395551035,1,b,1.0321272999999564,incorrect,v
104,4F4K,105,2,51.5968262805592,39.02780574105296,1.4619609621661949,42.54969366239813,1,v,1.2543784999998024,correct,v
105,4F4K,106,2,62.42995592193249,52.94195603987842,1.8313387510263124,54.67184610788397,1,v,0.6192809000003763,correct,v
106,4F4K,107,1,40.77704730973216,54.07504625850893,1.1674100710649176,55.62773265882055,1,c,1.1777289999999994,correct,c
107,4F4K,108,2,42.32493258911798,53.85327863818159,1.2055972052488475,55.44132742862073,2,v,2.354207499999575,incorrect,b
108,4F4K,109,2,57.27837638276053,64.11245283445002,1.6453007139492015,63.60572444582695,2,b,2.2580244999999195,correct,b
109,4F4K,110,1,59.297389206934405,45.65416602873361,1.715847905090791,48.36874566514119,2,n,3.980509300000449,correct,n
110,4F4K,111,2,74.24110805076737,62.9566817289579,2.341175751886849,62.741638069329206,1,v,3.222660299999916,correct,v
111,4F4K,112,1,41.29753688191763,47.83632380705591,1.1801138974157608,50.27701812297867,1,c,2.9559556000003795,correct,c
112,4F4K,113,2,28.76053857768276,39.69891604823404,0.9092923732650634,43.13726797046888,2,v,1.1277985999995508,incorrect,b
113,4F4K,114,1,48.487993612149445,33.60733824087954,1.3704406100902506,37.860459473018935,2,c,2.1656299000005674,incorrect,n
114,4F4K,115,1,57.57653610918317,68.58467663488162,1.6555333612263974,66.78333657993856,1,n,2.171796799999356,incorrect,c
115,4F4K,116,1,50.783551762083725,35.21028507162588,1.4374447973683782,39.23382539375094,2,n,1.863561999999547,correct,n
116,4F4K,117,1,64.26586342617396,46.99061538421778,1.9026047733495624,49.53887856307953,2,n,4.090907200000402,correct,n
117,4F4K,118,1,56.18153464027965,47.11526824108216,1.6081991128710744,49.64780332612398,2,n,5.0,correct,n
118,4F4K,119,2,46.98917243078992,35.589907241579986,1.3283866902120487,39.560985476688025,1,b,1.976547500000379,incorrect,v
119,4F4K,120,1,36.1087511897218,55.6139146264711,1.0594111044057688,56.911373420082285,1,n,1.6133397999992667,incorrect,c
120,4F4K,121,1,52.35862477435195,70.82994825703845,1.485304517690671,68.26974444850042,1,n,2.3852888999999777,incorrect,c
121,4F4K,122,1,66.31119002861419,54.51177135772765,1.985270648462604,55.9938056324606,2,c,1.1338741000008667,incorrect,n
122,4F4K,123,2,36.88145520486569,49.751736041939004,1.0765711399720823,51.93986941492211,2,v,3.6846744000004037,incorrect,b
123,4F4K,124,2,39.009791095947854,22.757193118515747,1.1252875700475016,29.08069643165842,1,b,1.3948229999996329,incorrect,v
124,4F4K,125,2,37.47230687168215,57.90529951120309,1.0898799310304,58.78731874956623,2,v,1.241644599999745,incorrect,b
125,4F4K,126,1,51.12098449443625,70.62535928344471,1.4475664085793156,68.137521935281,1,n,5.0,incorrect,c
126,4F4K,127,2,57.48242345002658,40.17848101893512,1.6522966212968258,43.55770374944934,1,v,1.6558332999993581,correct,v
127,4F4K,128,1,62.56314398951072,56.20078196051702,1.836417798375852,57.39608273485214,2,c,1.1341457999997147,incorrect,n
128,4F4K,129,2,47.82607349328512,31.7729820572922,1.351706758389983,36.30728566498523,1,b,2.2019907000003514,incorrect,v
129,4F4K,130,2,38.362101345059614,50.76769552503302,1.1102334306199324,52.81566385212764,2,v,1.3354527000001326,incorrect,b
130,4F4K,131,1,77.13813812053755,61.48341869698079,2.486547763200173,61.61698140791994,2,c,3.58003379999991,incorrect,n
131,4F4K,132,1,67.42976562883261,53.07098869982519,2.031989530486552,54.78112521253264,2,c,1.7589396000003035,incorrect,n
132,4F4K,133,1,61.62755930829587,45.3272782343567,1.8010357009038418,48.081997119000654,2,n,1.7650707999991937,correct,n
133,4F4K,134,2,35.33686749578725,52.17263574366204,1.0425423753430658,54.01816224492811,2,v,2.6343120000001363,incorrect,b
134,4F4K,135,1,34.42774580117326,49.93696165026002,1.0230185988452196,52.09989480219538,1,n,2.0942031000004135,incorrect,c
135,4F4K,136,1,35.70307282156378,50.73846500041932,1.0505116669649932,52.79053483035653,1,c,4.30325670000002,correct,c
136,4F4K,137,1,47.87162669935206,62.058418966005455,1.352987772338896,62.05892495876944,1,n,1.2492705999993632,incorrect,c
137,4F4K,138,1,48.38150830588226,32.24878325657425,1.3674094011073594,36.708065860484055,2,n,5.0,incorrect,n
138,4F4K,139,1,37.46969020050698,50.58681995287152,1.0898206299362811,52.66010020886892,1,n,1.9545991000004506,incorrect,c
139,4F4K,140,2,41.51517617646209,52.49336112911658,1.1854668212020258,54.29111618092396,2,v,0.873142800000096,incorrect,b
140,4F4K,141,1,50.86197633759301,59.5426124643494,1.4397908850441823,60.09841515492764,1,n,3.0470272000002296,incorrect,c
141,4F4K,142,2,32.2589012786424,20.759917900575168,0.9779055517315872,27.59806616834724,1,v,2.44736820000071,correct,v
142,4F4K,143,2,59.18469207861676,69.11346347157499,1.7118315733684215,67.14030163443813,2,b,2.429031299999224,correct,b
143,4F4K,144,1,62.68723285607975,46.7060408908668,1.8411625279438195,49.290059620378926,2,n,2.768685500000174,correct,n
144,4F4K,145,2,50.07646464222518,66.48021688444393,1.4164640036889016,65.32236796080257,2,b,1.1171023000006244,correct,b
145,4F4K,146,1,46.01975398039658,66.03199395299822,1.3018765206614258,65.00314851510868,1,n,2.216881100000137,incorrect,c
146,4F4K,147,1,50.09950643581394,65.07340566174496,1.4171428517597902,64.311340994622,1,n,2.179141999999956,incorrect,c
147,4F4K,148,1,32.55392400831928,47.598131025420415,0.9839232713071476,50.0693337498636,1,n,1.728892099999939,incorrect,c
148,4F4K,149,2,37.73626328023458,51.77198862801247,1.095878532493347,53.67634790036095,2,v,1.4438743999999133,incorrect,b
149,4F4K,150,2,50.66938238364733,35.71303911211648,1.4340362282604011,39.66724464466656,1,v,1.0185542999997779,correct,v
150,4F4K,151,2,22.79432049946845,37.12570720987317,0.8031991318170243,40.890935983936565,2,v,0.8607830000000831,incorrect,b
151,4F4K,152,2,33.898865853283034,51.22449870800982,1.0118293378454266,53.2078072659152,2,b,1.206748300000072,correct,b
152,4F4K,153,1,38.51348537929762,54.128996915569296,1.113733888345165,55.67302866703806,1,c,1.8951586000002862,correct,c
153,4F4K,154,2,27.038514881158576,49.19403269492855,0.8773080711795368,51.45715657257207,2,v,1.1097214000001259,incorrect,b
154,4F4K,155,1,57.074160553523406,44.09773658358125,1.6383286782190094,47.002114877280334,2,n,2.039546599999994,correct,n
155,4F4K,156,1,64.08936874122271,47.83585396082927,1.8956348144052837,50.27660862935407,2,n,0.8124347000002672,correct,n
156,4F4K,157,2,51.39356436001603,36.37920076427002,1.4557947136943277,40.24327821009325,1,v,4.243569899999784,correct,v
157,4F4K,158,2,57.637119481264605,69.53828002608492,1.6576203095005737,67.42403884346349,2,b,3.988756199999443,correct,b
158,4F4K,159,1,71.83839216656435,56.451941508312345,2.2270775026215697,57.60265891248234,2,n,2.8215675999999803,correct,n
159,4F4K,160,1,35.766486941533884,48.31708296262948,1.0518978479607133,50.695646364902935,1,c,3.2472477999999683,correct,c
160,4F4K,161,2,33.33131137638635,20.98609659609312,0.9999579554711856,27.76342359877387,1,b,2.7130092999996123,incorrect,v
161,4F4K,162,1,60.53125775342645,53.53952504706695,1.7604420439791195,55.17702840804253,2,n,2.603989199999887,correct,n
162,4F4K,163,2,41.271600258365815,60.18106511695825,1.1794775900230576,60.60239970455776,2,v,3.011672499999804,incorrect,b
163,4F4K,164,2,50.358065479516696,65.69836121228306,1.42478275947454,64.76376317434398,2,v,2.5129965999994965,incorrect,b
164,4F4K,165,2,50.96785048400515,65.69863363209821,1.4429642075705975,64.7639592511486,2,b,0.7077807000005123,correct,b
165,4F4K,166,2,56.03899151938023,42.1124588906972,1.6034393062386316,45.25647938364124,1,v,1.511507199999869,correct,v
166,4F4K,167,1,39.45375693699576,57.14710597363832,1.1357243383411664,58.171628275053,1,n,4.825218500000119,incorrect,c
167,4F4K,168,1,47.31683081421748,65.55041812773791,1.3374685100155546,64.65713269344701,1,n,1.777140899999722,incorrect,c
168,4F4K,169,1,46.78452295772811,58.38299964639021,1.322745664161824,59.172517906025234,1,c,0.6656639000002542,correct,c
169,4F4K,170,1,58.12298586272564,46.26282803658435,1.674452644942472,48.90214611951156,2,c,2.255670999999893,incorrect,n
170,4F4K,171,1,38.923402759741,59.14178636633537,1.1232679237234386,59.77987853761168,1,n,1.5344136000003346,incorrect,c
171,4F4K,172,1,35.205140416872226,47.29455629132632,1.0396905638019622,49.80439579772047,1,c,2.012772699999914,correct,c
172,4F4K,173,2,61.41041415610967,42.32050040192982,1.7929216255534066,45.43940667794863,1,v,0.9821704999994836,correct,v
173,4F4K,174,1,40.356912171754814,62.66920631725652,1.1572554566196551,62.52418471891618,1,n,2.0624475000004168,incorrect,c
174,4F4K,175,2,43.89020622062584,26.815346920048544,1.245483739606188,32.23653634738272,1,v,3.550760999999511,correct,v
175,4F4K,176,1,33.94368005936135,51.10499216821594,1.0127726861261583,53.10532044129054,1,c,1.3526283999999578,correct,c
176,4F4K,177,1,59.75625187876649,66.43996609164417,1.7322985092788918,65.29381455527223,1,n,1.2122957000001406,incorrect,c
177,4F4K,178,1,29.08260185685171,41.88494364232296,0.9154024483461892,45.0564528296657,1,c,2.488623799999914,correct,c
178,4F4K,179,2,35.11211379629492,53.358494169483535,1.0376812948509389,55.02423163583264,2,v,1.6137110999998185,incorrect,b
179,4F4K,180,2,60.9970776037361,56.40094759702827,1.7775773365259118,57.56075958419852,1,v,3.647839700000077,correct,v
180,4F4K,181,1,63.786320716487104,55.22324641688524,1.8837266404566624,56.58719015894325,2,c,0.8972303000000466,incorrect,n
181,4F4K,182,2,50.62015841981958,62.06238701596797,1.432569123344082,62.06196162523208,2,v,5.0,incorrect,b
182,4F4K,183,2,57.984848249186,46.3453233084772,1.669649696438346,48.97438232502241,1,v,0.6498109999993176,correct,v
183,4F4K,184,2,54.16073842403496,45.90773905268664,1.542020722104006,48.59105233882342,1,v,0.733336600000257,correct,v
184,4F4K,185,2,45.00111852536735,59.90246061678487,1.2745902727730762,60.38299357152001,2,v,1.2031276999996408,incorrect,b
185,4F4K,186,1,60.25708639758777,77.17969798795164,1.7504339100432709,72.02901216551192,1,n,2.7364613999998255,incorrect,c
186,4F4K,187,1,47.24956663461168,62.46379934943448,1.3355990747186817,62.36820741847141,1,c,3.3929217999993853,correct,c
187,4F4K,188,1,72.2190245068181,56.6312325034172,2.244774826201299,57.7497997582004,2,c,1.8625739999997677,incorrect,n
188,4F4K,189,1,47.85219166948975,33.06396093775875,1.3524410862224543,37.3981677060463,2,n,1.3766772999997556,correct,n
189,4F4K,190,2,73.57170931949713,65.85864919129695,2.3088129221961555,64.87895939304907,1,v,1.5101503000005323,correct,v
190,4F4K,191,2,63.05095843258548,71.86171549516637,1.855140884168944,68.92643108832097,2,v,1.7225680000001375,incorrect,b
191,4F4K,192,2,38.607513191725545,49.814706058496256,1.115913650607878,51.99428922249013,2,v,3.1015715000003183,incorrect,b
192,4F4K,193,1,70.92656340791228,63.52292031660932,2.1852478246974925,63.167033001129646,2,c,1.9536645999996836,incorrect,n
193,4F4K,194,1,61.28934536301448,45.79415522167901,1.7884135242261523,48.49148853293821,2,n,2.6160943999993833,correct,n
194,4F4K,195,1,28.543476189295088,48.52123925612951,0.905197362235206,50.873180914178505,1,n,2.7000800000005256,incorrect,c
195,4F4K,196,2,33.88092740591584,45.99268471313867,1.0114519761309586,48.665496597014986,2,v,2.713226900000336,incorrect,b
196,4F4K,197,1,50.372717008101645,41.20649192118658,1.4252169141313984,44.46019182093066,2,c,2.4947634000000107,incorrect,n
197,4F4K,198,1,38.08301160845659,51.42011364216469,1.1038088427160684,53.375400585715454,1,n,1.8635698999996748,incorrect,c
198,4F4K,199,2,43.54187640749105,51.2545046757817,1.2364949025454168,53.23352811370099,2,v,1.5951109999996333,incorrect,b
199,4F4K,200,1,52.26546296226014,38.25421657820355,1.4824299036295454,41.873766040535806,2,n,2.5906426999999894,correct,n
200,4F4K,201,2,65.88713816749924,56.77329621357979,1.9678416659879447,57.86619453808772,1,b,1.7772247000002608,incorrect,v
201,4F4K,202,2,31.03179817025564,46.876471255152765,0.953268113797196,49.43910083079179,2,b,0.7458851000001232,correct,b
202,4F4K,203,2,56.959513871536245,34.53832201072196,1.634427537097407,38.65644923435394,1,v,1.7289983999999095,correct,v
203,4F4K,204,2,44.45788739660684,58.40275003261943,1.260273295353986,59.18839747201543,2,v,2.543300299999828,incorrect,b
204,4F4K,205,1,76.00762957766946,65.34449629840783,2.4287750697226627,64.50822740572714,2,c,2.883060099999966,incorrect,n
205,4F4K,206,1,51.28671356686088,30.837604757161834,1.4525636745913395,35.524022182527474,2,n,1.819689500000095,correct,n
206,4F4K,207,1,68.59736115613238,55.97621886584364,2.081928950097599,57.210939970910445,2,n,4.370016699999724,correct,n
207,4F4K,208,2,41.96934097570369,23.98176746846674,1.1967155115593018,30.013742809324928,1,v,2.0952220999997735,correct,v
208,4F4K,209,2,50.82309415526476,60.68265761740427,1.4386272381644067,60.99534229963693,2,b,1.0549590999999054,correct,b
209,4F4K,210,2,42.88257540776047,56.09096106624067,1.219658506199761,57.30559173596155,2,v,1.9373849000003247,incorrect,b
210,4F4K,211,2,32.7588397161723,52.20657949657155,0.9881248143203172,54.04707895973469,2,b,0.9336325999993278,correct,b
211,4F4K,212,1,55.48088543961113,64.706315209984,1.5849381729456002,64.04319693212229,1,c,1.4373697999999422,correct,c
212,4F4K,213,1,41.61846166526395,58.53831937753464,1.1880156572009106,59.29729628412151,1,c,1.6329221000005418,correct,c
213,4F4K,214,1,35.573040031545595,53.56468379272821,1.047674966678513,55.19824607532587,1,n,3.7319618000001356,incorrect,c
214,4F4K,215,2,49.21971395141883,62.999954800455406,1.391452266883478,62.77428501929188,2,v,0.6486218999998528,incorrect,b
215,4F4K,216,1,46.514785479104575,61.73282170576857,1.315347108606698,61.8091348009776,1,n,1.5587009000000762,incorrect,c
216,4F4K,217,1,58.12876895111795,49.558905691887794,1.674654019931357,51.773115293221984,2,c,1.6875350999998773,incorrect,n
217,4F4K,218,1,58.1760829923411,39.11776758627545,1.6763024689400023,42.62839825427888,2,n,1.0064061000002766,correct,n
218,4F4K,219,2,53.09158628020684,38.57272807408572,1.5081161960297698,42.15187234047373,1,v,0.6801538999998229,correct,v
219,4F4K,220,2,50.94445401166239,30.637496784437005,1.442262353191951,35.35728995344002,1,v,1.007832199999939,correct,v
220,4F4K,221,1,50.96194103665928,39.75612183990416,1.4427869019682666,43.18739757484498,2,c,1.6741142999999283,incorrect,n
221,4F4K,222,1,27.74246171085572,45.00147388926676,0.8902447028185712,47.79603213547498,1,c,1.0731030000006285,correct,c
222,4F4K,223,1,58.97521696804841,45.84113289497886,1.7043912014426468,48.53267056846536,2,c,1.3645208000007187,incorrect,n
223,4F4K,224,2,59.97663694345601,52.66810313893569,1.7402554683581168,54.43957028998046,1,v,2.3673008999994636,correct,v
224,4F4K,225,2,45.189246352218696,60.86840915652724,1.2795862461230083,61.14017132460929,2,b,3.702461200000471,correct,b
225,4F4K,226,1,48.69990533629773,58.16613255367727,1.376492891994327,58.99791038272647,1,c,3.5569972000002963,correct,c
226,4F4K,227,2,55.72081852622774,45.74810747997368,1.592865614311433,48.45111770864722,1,v,1.9290257000002384,correct,v
227,4F4K,228,1,65.18703307144915,54.37296016516849,1.939400810723736,55.87759877267981,2,c,2.184095700000398,incorrect,n
228,4F4K,229,2,46.40540494871319,55.32431113214837,1.3123587459102566,56.67116938022859,2,v,3.137910600000396,incorrect,b
229,4F4K,230,1,36.41885044499439,46.07112409965805,1.06626461281303,48.734226172172704,1,n,1.796788700000434,incorrect,c
230,4F4K,231,1,79.96131145699869,67.88525749028275,2.6368935722416227,66.30484069102387,2,n,2.1730735999999524,correct,n
231,4F4K,232,1,48.75773062881108,32.52738393518322,1.3781490419625482,36.94344027964699,2,c,1.917377700000543,incorrect,n
232,4F4K,233,2,59.9648848656522,72.25411564494752,1.7398302408846422,69.17168301002918,2,b,3.277604299999439,correct,b
233,4F4K,234,1,55.57177628549621,65.51432637202721,1.5879365736011153,64.63107500550923,1,n,1.4676820000004227,incorrect,c
234,4F4K,235,2,51.18166449524698,27.536787681175344,1.4493941081783297,32.81557079561686,1,v,3.022720500000105,correct,v
235,4F4K,236,1,55.47319137038052,75.5009194732511,1.584684613152214,71.1023299966985,1,n,2.1048940000000584,incorrect,c
236,4F4K,237,2,55.93388851555106,39.963449423282114,1.59993872735498,43.36913246831569,1,v,3.872412699999586,correct,v
237,4F4K,238,1,35.873162047505915,46.3409375991418,1.054233806554961,48.970542396113245,1,n,1.808046899999681,incorrect,c
238,4F4K,239,2,41.610167310934166,48.06962360969432,1.1878107703855154,50.48026279538069,2,v,1.1763664999998582,incorrect,b
239,4F4K,240,1,74.51499931755299,52.80253162864752,2.354547748167165,54.55364791199533,2,n,2.347661099999641,correct,n
240,4F4K,241,1,61.376639644301406,48.53040333023493,1.79166286071415,50.881146539879865,2,c,3.567795699999806,incorrect,n
241,4F4K,242,2,33.56735913675817,55.3502279926098,1.004878290075344,56.69269213768187,2,v,1.8803721000003861,incorrect,b
242,4F4K,243,2,63.14335857912066,75.47475800896619,1.8587087915119025,71.08749489668062,2,v,3.6284362000005785,incorrect,b
243,4F4K,244,1,45.58493312143506,62.52205753747768,1.290158211612441,62.412496893463306,1,n,1.8612818999999945,incorrect,c
244,4F4K,245,2,34.412093260084305,46.275357198893175,1.022685675368486,48.91311811833974,2,v,1.4790250999994896,incorrect,b
245,4F4K,246,2,62.97077163810141,48.801130355374085,1.8520501301979235,51.11633065450588,1,b,1.1242577000002711,incorrect,v
246,4F4K,247,2,46.69749213709497,57.95049637221417,1.3203539833626643,58.82385523330794,2,v,0.4238087000003361,incorrect,b
247,4F4K,248,1,47.17300254188039,51.89219822861102,1.3334743518592345,53.77900164324006,1,c,1.2941037999999025,correct,c
248,4F4K,249,1,55.79546891065697,46.46425356647728,1.595340157426531,49.0784958741582,2,c,0.7940586000004259,incorrect,n
249,4F4K,250,2,47.88904901943677,62.07072290766363,1.3534780309694945,62.068340317380006,2,v,1.5526568999994197,incorrect,b
250,4F4K,251,1,51.34059658359128,38.46583565044144,1.4541921347067317,42.05850815872374,2,n,2.195989899999404,correct,n
251,4F4K,252,2,79.89089153706948,66.79282467077773,2.633035086449276,65.54336372959972,1,v,2.536513600000035,correct,v
252,4F4K,253,2,40.74590611816783,51.57664906997352,1.1666543443608923,53.509364238332246,2,b,1.22494640000059,correct,b
253,4F4K,254,1,44.077626437519335,30.461460306911437,1.250347226785242,35.210865933217434,2,n,1.382732699999906,correct,n
254,4F4K,255,1,41.84942694973338,54.87109644558952,1.1937351684347506,56.2939631885746,1,n,5.0,correct,c
255,4F4K,256,2,53.092956875705184,42.5885453172558,1.5081591790580615,45.67511488162423,1,v,4.253590799999984,correct,v
256,4F4K,257,2,38.90722601051552,20.753544267843264,1.1228901356156862,27.593416110926565,1,b,2.992375099999663,incorrect,v
257,4F4K,258,1,40.340542701302056,53.67212045305244,1.1568616013415285,55.2888051369935,1,n,1.5708412999993016,incorrect,c
258,4F4K,259,2,46.78507942165515,59.75368383933433,1.3227609701929222,60.26549815679587,2,b,4.126577799999723,correct,b
259,4F4K,260,1,61.67371680425202,47.21487231623345,1.8027651975186243,49.73480974451076,2,c,3.7813876000000164,incorrect,n
260,4F4K,261,1,50.51088754754545,44.17655585582105,1.4293177009066529,47.07138861310508,2,n,0.5570793000006233,correct,n
261,4F4K,262,2,61.53535756636752,45.99861990358672,1.797585916950929,48.67069751752939,1,v,1.4798326999998608,correct,v
262,4F4K,263,2,52.15221583213076,62.95157277245947,1.4789430250350553,62.7377821777901,2,v,2.4400909000005413,incorrect,b
263,4F4K,264,1,48.54154128820706,39.36902304465448,1.3719674354931377,42.84831344761312,2,n,2.585596599999917,correct,n
264,4F4K,265,1,70.36258567183216,64.08041357405108,2.159769829713287,63.58199484589927,2,n,3.0639281000003393,correct,n
265,4F4K,266,1,61.53454842284732,51.97217037307595,1.797555671624251,53.84724898088649,2,n,2.0187604000002466,correct,n
266,4F4K,267,1,58.97995604736119,53.53969752784373,1.704559171308615,55.17717388438096,2,c,1.8686777999992046,incorrect,n
267,4F4K,268,2,49.11763276640055,30.724681649310916,1.3885017379998914,35.42989622333695,1,v,2.6161043000001882,correct,v
268,4F4K,269,2,57.55311316344432,45.7674813691571,1.6547272027884532,48.46810359879576,1,v,2.4958210999993753,correct,v
269,4F4K,270,1,53.35728579728256,35.00563187544145,1.516471698848349,39.0577404213724,2,c,2.2991093000000546,incorrect,n
270,4F4K,271,2,37.17465608299026,54.00493373736768,1.083154980793542,55.56883699124255,2,b,1.534447199999704,correct,b
271,4F4K,272,1,33.6715140399702,53.72060708484664,1.0070570545741084,55.32964932293078,1,n,1.2613476000005903,incorrect,c
272,4F4K,273,1,67.44131654351493,51.46715751768794,2.0324776618540072,53.41567490634764,2,n,0.9056761000001643,correct,n
273,4F4K,274,2,56.20096813812287,43.20347572161754,1.6088491306934152,46.2158870037424,1,v,1.6682802999994237,correct,v
274,4F4K,275,2,65.28130469329892,48.81348263473551,1.9432063921227547,51.127054762317634,1,v,1.407307700000274,correct,v
275,4F4K,276,2,35.51312012466053,45.110067007065,1.0463703771891066,47.89136363542664,2,b,0.5949774999999136,correct,b
276,4F4K,277,2,42.19273228616268,24.044847048300024,1.2022875360243626,30.062276307631244,1,b,1.1096246999995856,incorrect,v
277,4F4K,278,1,54.455323882156655,34.21894796787464,1.5514957194106145,38.38284839850622,2,n,1.5710073000000193,correct,n
278,4F4K,279,2,72.87040721591819,58.587732948134295,2.275387434264798,59.33694484298332,1,v,2.0869176999995034,correct,v
279,4F4K,280,1,51.85606976554347,71.32617323930648,1.469863406944336,68.58769826042874,1,c,3.7873961000004783,correct,c
280,4F4K,281,1,44.46572749216087,33.5581802185253,1.26047877471546,37.81856503056921,2,c,3.228879600000255,incorrect,n
281,4F4K,282,2,54.952323507140186,74.81337547525042,1.567613285815063,70.70849269988821,2,v,1.2370926000003237,incorrect,b
282,4F4K,283,1,70.95668827741041,55.54457142999642,2.186617156267667,56.85391847720336,2,c,4.145433400000002,incorrect,n
283,4F4K,284,2,43.72934908767503,48.585428088239325,1.241324643445315,50.928968978211984,2,v,0.5944454000000405,incorrect,b
284,4F4K,285,1,61.39928193833632,71.14286921044521,1.7925066338169215,68.47070240687981,1,c,2.403642199999922,correct,c
285,4F4K,286,1,57.28365415894229,53.67464311949041,1.6454812927657714,55.29093057420348,2,c,1.0675100999997085,incorrect,n
286,4F4K,287,1,30.6799141394224,47.05408535619212,0.9463182963904349,49.59434536806419,1,n,1.4191295000000537,incorrect,c
287,4F4K,288,2,56.49880453187342,40.24764021830785,1.618844189648408,43.61836971255873,1,v,1.1581263999996736,correct,v
288,4F4K,289,2,58.902206993327816,45.58020708648412,1.7018055584150298,48.30388412002819,1,v,1.0311015999996016,correct,v
289,4F4K,290,1,53.576196172384655,38.47305087889839,1.5233905856363874,42.06480923961524,2,c,2.986286899999868,incorrect,n
290,4F4K,291,2,49.56502404312104,28.983336902220444,1.4014795773697195,33.99112599723997,1,v,1.4506641999996646,correct,v
291,4F4K,292,1,43.18908010116238,26.08845287124149,1.2274569300471645,31.65829664727844,2,c,1.9167654000002585,incorrect,n
292,4F4K,293,2,53.59765795177134,45.20420865595692,1.524070603971534,47.97399488092821,1,b,2.256296700000348,incorrect,v
293,4F4K,294,1,77.2560825541679,66.67836682212385,2.4926537189398235,65.46260616570589,2,n,1.8682100999994873,correct,n
294,4F4K,295,2,51.775190534325,67.25175689072631,1.4673934149060426,65.86532630599912,2,v,3.5433266000000003,incorrect,b
295,4F4K,296,2,32.199689697277975,51.4912201139054,0.9767022267085542,53.43627029570092,2,b,2.2580391999999847,correct,b
296,4F4K,297,1,49.78871680904165,66.04102799360699,1.40801382958577,65.00960958030929,1,c,1.8928536999992502,correct,c
297,4F4K,298,1,35.0719056913488,56.33165577157805,1.0368140479356545,57.50379078022458,1,n,1.8500014999990526,incorrect,c
298,4F4K,299,1,65.25807910805887,48.84092319538991,1.9422681229608416,51.15087628485988,2,n,2.4619605999996566,correct,n
299,4F4K,300,1,64.4967487577103,49.56322095941691,1.9117613810612213,51.77684875061429,2,n,0.8304033999993408,correct,n
300,4F4K,301,1,52.33444757147146,37.813778868809145,1.484557967335812,41.48969252030459,2,c,3.0287963999999192,incorrect,n
301,4F4K,302,2,47.38648986159142,29.80250490447993,1.3394072626109108,34.66490529899766,1,v,1.4316058000003977,correct,v
302,4F4K,303,2,50.063056519097046,34.39375193817205,1.4160691286285436,38.5325318077176,1,v,1.341652699999031,correct,v
303,4F4K,304,2,56.97290440717168,45.270060947829286,1.6348827041330405,48.03178779730198,1,b,0.7576719999997295,incorrect,v
304,4F4K,305,2,38.01971928988714,53.86038296624094,1.102357045938562,55.44730419592749,2,v,1.266415699999925,incorrect,b
305,4F4K,306,2,34.36288660916371,51.91536752303316,1.021639774497354,53.798777810833855,2,b,0.44252549999873736,correct,b
306,4F4K,307,2,58.580207299837774,39.639103569829366,1.6904486806970305,43.08486113726535,1,v,1.6985545999996248,correct,v
307,4F4K,308,1,53.90207881231551,35.369168958177326,1.5337489586598163,39.37066965011556,2,c,2.6233900000006543,incorrect,n
308,4F4K,309,1,53.52740735466854,69.54855331308107,1.521845836388534,67.43086655381458,1,c,1.2734306999991531,correct,c
309,4F4K,310,1,51.71319876126642,34.11078951184214,1.4655030421532445,38.29031600716933,2,n,3.4777419999991253,correct,n
310,4F4K,311,2,42.40685850824651,55.93508440356796,1.2076528130427555,57.17698169268369,2,v,1.5222897000003286,incorrect,b
311,4F4K,312,2,41.6940952564598,54.17875833822322,1.1898855864138838,55.71478931440649,2,b,0.1945867000013095,correct,b
312,4F4K,313,2,64.32525057866815,51.65849793390869,1.9049557915282336,53.57935748265559,1,v,4.649185299998862,correct,v
313,4F4K,314,1,68.32513819015352,55.31191347656501,2.070177032104602,56.66087185760712,2,n,2.9380466000002343,correct,n
314,4F4K,315,2,41.44426794735666,58.30473571528523,1.1837201441469212,59.10955618006353,2,v,2.0320902000003116,incorrect,b
315,4F4K,316,1,53.66041645285561,65.72775415893999,1.5260608546398289,64.78491328173027,1,n,1.4846035000009579,incorrect,c
316,4F4K,317,2,31.657078203035105,47.32682818594424,0.9657437534640084,49.83257298459949,2,v,5.0,incorrect,b
317,4F4K,318,1,26.06782477556276,44.35579207900189,0.8597771913178066,47.22889825583257,1,n,0.18852610000067216,incorrect,c
318,4F4K,319,1,51.97787628538049,32.91883339241792,1.4735911361492204,37.27499958519349,2,c,2.829383999998754,incorrect,n
319,4F4K,320,2,71.75073159622985,58.18941538519837,2.22302157149467,59.01667753363449,1,v,1.091454999999769,correct,v
320,4F4K,321,1,51.12618690134319,69.1244029016221,1.4477230162468375,67.14764230819456,1,c,1.9097120000005816,correct,c
321,4F4K,322,1,42.13609849297094,60.30676135506653,1.2008724755211366,60.70112065552154,1,n,0.9395254999999452,incorrect,c
322,4F4K,323,2,42.23716866931587,58.52118035426847,1.2033989975382229,59.28353875097387,2,v,1.387832399999752,incorrect,b
323,4F4K,324,2,23.611301106635604,32.926796866376634,0.8169609543009809,37.28175471109935,2,b,0.8668816000008519,correct,b
324,4F4K,325,2,57.734445621098295,47.81735280989403,1.6609784651293795,50.260483432051615,1,v,1.736084000000119,correct,v
325,4F4K,326,2,61.93391190155749,44.41421368016336,1.812545683118854,47.28023169763512,1,b,1.0550105000002077,incorrect,v
326,4F4K,327,1,40.01874627560381,60.82478601474413,1.1491462253996407,61.106192423008096,1,n,1.0003659000012703,incorrect,c
327,4F4K,328,1,57.688846987884936,37.62080955809604,1.6594042769002637,41.32161016183191,2,c,0.4240741000012349,incorrect,n
328,4F4K,329,2,51.70043113183554,39.73067192528004,1.4651140094965944,43.16509493680815,1,v,1.0003694999995787,correct,v
329,4F4K,330,2,44.85633685102866,29.65367881818312,1.2707586978704195,34.54207996783785,1,b,4.465854299998682,incorrect,v
330,4F4K,331,1,53.50986254101038,38.79307911442677,1.5212907163356284,42.34443297050584,2,n,1.3696211999995285,correct,n
331,4F4K,332,1,64.98618916228558,48.94653487052123,1.931317926291684,51.24253250508823,2,n,0.739438099999461,correct,n
332,4F4K,333,1,52.45665190399364,41.33251341704128,1.4883352753799983,44.57091591696689,2,n,1.102276300000085,correct,n
333,4F4K,334,1,48.627469093895385,57.20864885579164,1.374421083730099,58.22179659273379,1,c,1.6631956000001082,correct,c
334,4F4K,335,2,62.031535439288646,48.38462548285402,1.8162289323561651,50.754397627376726,1,v,1.6800844999997935,correct,v
335,4F4K,336,2,63.08968899437389,53.49415787038634,1.8566355782218416,55.13875724766084,1,b,3.4475751999998465,incorrect,v
336,4F4K,337,2,53.65152011092838,63.23965724047719,1.525778568298989,62.95471595896045,2,v,0.7212269000010565,incorrect,b
337,4F4K,338,1,61.64920676326957,38.74428356930361,1.801846612729963,42.30178043548183,2,n,2.2748429000002943,correct,n
338,4F4K,339,2,37.34090152381805,45.49167038402428,1.0869059020754948,48.22622554966094,2,v,1.7042854000010266,incorrect,b
339,4F4K,340,1,46.78845383266827,60.4261117703905,1.3228537901374746,60.79470249292183,1,c,0.9761091000000306,correct,c
340,4F4K,341,2,45.09463708048128,53.26478537100783,1.277071333821566,54.94505311835038,2,v,0.6908167000001413,incorrect,b
341,4F4K,342,2,41.7451064730167,30.168866369325933,1.1911484253379636,34.968021513739544,1,v,1.479824499998358,correct,v
342,4F4K,343,1,53.65141994925092,66.52202829149758,1.5257753904053106,65.3520047482149,1,c,1.766517500000191,correct,c
343,4F4K,344,1,31.8848381769138,52.79392446544202,0.9703284951593903,54.54634713016012,1,n,1.0504005000002508,incorrect,c
344,4F4K,345,2,47.73785547397642,61.21630027615041,1.3492294035272605,61.41040295917702,2,v,1.364551599999686,incorrect,b
345,4F4K,346,1,46.09969095373591,61.96919819937092,1.3040423548863778,61.99059814637825,1,c,1.341616100000465,correct,c
346,4F4K,347,2,34.985419515854815,42.92507477086721,1.0349510867105332,45.97106160130661,2,v,3.436384199998429,incorrect,b
347,4F4K,348,2,36.03468011214437,22.81697723282941,1.0577805868546484,29.12583676144668,1,v,1.5951882999997906,correct,v
348,4F4K,349,1,33.82663132939513,20.99421334313802,1.0103106354869429,27.769370036526936,2,n,5.0,correct,n
349,4F4K,350,2,47.77222641557436,37.67892595192987,1.3501940743703111,41.37221858686594,1,v,1.2789143999998487,correct,v
350,4F4K,351,1,53.60803370795591,66.87350465824703,1.5243994695446417,65.600178911677,1,c,1.1096035999999003,correct,c
351,4F4K,352,2,32.4312073034362,47.000006426129296,0.9814156749501411,49.54708612281826,2,b,1.6003624999993917,correct,b
352,4F4K,353,1,36.15143648502087,44.97344738684696,1.0603518718593967,47.77142564711561,1,n,1.6460670999986178,incorrect,c
353,4F4K,354,2,44.82847273643514,50.29554266374824,1.270022610711815,52.40925112083728,2,v,0.9460183999999572,incorrect,b
354,4F4K,355,2,44.80539188231145,52.09071352228655,1.2694132059708096,53.94834491487544,2,v,0.7151186999999481,incorrect,b
355,4F4K,356,1,42.69770065755497,23.046202273549504,1.214978698154095,29.29931117300822,2,n,1.224909900000057,correct,n
356,4F4K,357,1,45.59892736012248,32.07754567455273,1.2905337048807304,36.56365137767153,2,n,0.8985990000001038,correct,n
357,4F4K,358,1,24.025716804695502,36.02526562092616,0.8240315634596976,39.93699067651483,1,c,1.607256999999663,correct,c
358,4F4K,359,2,53.16588924921271,65.45673514522869,1.5104481675487558,64.58945904873758,2,v,1.400918699999238,incorrect,b
359,4F4K,360,1,50.461711632441606,33.62282016544093,1.4278568499618105,37.87365670143701,2,c,2.2944841000007727,incorrect,n
360,4F4K,361,1,65.95169620500764,52.27622768200336,1.9704851624205164,54.10639111223757,2,c,2.0806880999989517,incorrect,n
361,4F4K,362,1,64.23365546759375,74.87762790630653,1.901330938660296,70.74564508909766,1,n,0.5148929000006319,incorrect,c
362,4F4K,363,1,36.696953004325,49.88738211778897,1.0724486637882416,52.05707550249914,1,c,0.7965994000005594,correct,c
363,4F4K,364,1,60.61416092542837,47.31616931366107,1.7634795279473168,49.8232668518001,2,c,2.597795900001074,incorrect,n
364,4F4K,365,1,55.248154583337055,68.36438538820752,1.577286391660312,66.63340140637881,1,n,0.6605361000001722,incorrect,c
365,4F4K,366,2,41.318393147023805,50.90596891791625,1.1806258165444108,52.934477329253006,2,v,0.6861821000002237,incorrect,b
366,4F4K,367,1,40.71262549113166,47.55273556388261,1.1658472391519206,50.02973306888131,1,n,0.5027284000007057,incorrect,c
367,4F4K,368,1,28.467198462737883,51.39761345816498,0.9037627208550348,53.35613393145854,1,c,0.689888200000496,correct,c
368,4F4K,369,1,42.65954773985449,50.46021669042941,1.2140151556682024,52.55111889625916,1,n,1.935169099999257,incorrect,c
369,4F4K,370,1,62.545398862949725,73.4115870091783,1.835740286073796,69.88036402395639,1,c,0.9457548999998835,correct,c
370,4F4K,371,1,66.91114701962228,53.869481202618864,2.010193541181585,55.45495790240871,2,c,1.9591077999994013,incorrect,n
371,4F4K,372,2,59.24399459637146,47.90353862797174,1.7139438397423628,50.33559187098534,1,v,2.568656400000691,correct,v
372,4F4K,373,2,57.339653579329806,43.58213702785117,1.647398531012323,46.54885118810785,1,v,1.898451600000044,correct,v
373,4F4K,374,1,57.66035914703295,41.76420992670794,1.6584215568289769,44.95031883803721,2,c,0.988231999999698,incorrect,n
374,4F4K,375,2,47.62218673211889,34.65719342175383,1.3459880505093984,38.75842127261282,1,b,3.072473500000342,incorrect,v
375,4F4K,376,2,56.455787975676245,71.4065060153869,1.6173967742758142,68.63880260646921,2,v,1.4849712000013824,incorrect,b
376,4F4K,377,2,51.105785256009575,37.89483940699917,1.447108964079158,41.56033454891801,1,v,3.2705177000007097,correct,v
377,4F4K,377,2,51.105785256009575,37.89483940699917,1.447108964079158,41.56033454891801,1,many,3.2705177000007097,correct,v
378,4F4K,378,1,48.48027922611386,33.01866122427876,1.3702207869187055,37.35970837443537,2,c,0.17035519999990356,incorrect,n
379,4F4K,379,1,55.05237894291547,45.20822683342317,1.5708782484297048,47.97752147819357,2,c,3.520265200000722,incorrect,n
380,4F4K,380,2,64.7793300735974,53.00329066532115,1.923028177551792,54.72380423944494,1,v,2.8757079000006343,correct,v
381,4F4K,381,1,39.55615765776977,55.62989940877062,1.1381452844913678,56.92461236304692,1,n,1.7894653999992443,incorrect,c
382,4F4K,382,2,58.586415073494805,49.91043947452921,1.690666909771816,52.07699032069311,1,v,3.3504220000013447,correct,v
383,4F4K,383,2,55.686665025935866,38.936564717632805,1.591734759465388,42.46989004548892,1,b,1.0415398000004643,incorrect,v
384,4F4K,384,2,53.745330397666905,64.91722480760802,1.5287578553843064,64.19747218918347,2,v,2.2990202000000863,incorrect,b
385,4F4K,385,1,29.85628125748087,46.58336712014624,0.930248740874256,49.18273743220681,1,n,0.6969418000007863,incorrect,c
386,4F4K,386,2,58.47117245447273,46.81234967310309,1.686620241357547,49.38303508204657,1,v,1.308877699999357,correct,v
387,4F4K,387,1,58.277648465013705,70.02451677534135,1.679846551978732,67.74542650886231,1,c,0.6679683000002115,correct,c
388,4F4K,388,1,30.831849694073245,44.924205211680906,0.9493128328582602,47.728189839694565,1,c,4.02411740000025,correct,c
389,4F4K,389,2,71.99794788046397,64.83792357176127,2.234478923026321,64.13953308005262,1,v,1.1460327999993751,correct,v
390,4F4K,390,1,56.54650356202321,42.88643335674096,1.620450674799705,45.937079820596736,2,n,0.812597399999504,correct,n
391,4F4K,391,1,51.07638278835737,46.44729200877956,1.446224461768559,49.06364939578411,2,n,0.4858823999984452,correct,n
392,4F4K,392,1,68.62739584891489,61.22816512900572,2.0832296330294318,61.41959564984455,2,n,0.9628170000014507,correct,n
393,4F4K,393,2,61.837348026575455,46.34210439208353,1.8089097623925567,48.97156399144125,1,b,2.8042190999985905,incorrect,v
394,4F4K,394,1,32.520247154339415,43.73268908716945,0.9832344804008092,46.68121808088754,1,c,0.1399755999991612,correct,c
395,4F4K,395,1,51.13289932706819,36.30441664251212,1.4479251049317994,40.1785180474963,2,c,0.9336238000014419,incorrect,n
396,4F4K,396,2,51.32622033612536,45.86374815588104,1.4537574752494486,48.55249429665496,1,v,1.0489274999999907,correct,v
397,4F4K,397,1,57.87059291568593,46.645150569515486,1.6656875296909024,49.23679372683218,2,n,2.4704443000009633,correct,n
398,4F4K,398,2,32.59327961589506,47.65373824522881,0.9847288209140432,50.11783420384489,2,b,3.198786300001302,correct,b
399,4F4K,399,2,51.130661989820666,66.81091948579328,1.4478577430572337,65.55611408871577,2,v,0.9700113999988389,incorrect,b
400,4F4K,400,1,61.895642752798665,70.35136685506114,1.8111038609852292,67.95941767585431,1,n,3.7024366999994527,incorrect,c
