,condition,trial,sub_task,x,y,xt,yt,cat,resp,rt,acc,correct_resp
0,2F4K,1,1,50.75369878348101,36.95628874732848,1.4365527441423949,41.03182725667032,2,n,3.0044763000000785,correct,n
1,2F4K,2,2,40.664709242351776,50.89750091318023,1.1646861787063365,53.55403770014927,2,v,1.3826420000000326,incorrect,b
2,2F4K,3,2,47.29584839572652,63.06822431782581,1.3368850768886025,63.72781562969908,2,b,1.4069518999999673,correct,b
3,2F4K,4,2,49.26706072772311,63.04615549664784,1.3928228937881626,63.71072465908796,2,b,0.6847516999998788,correct,b
4,2F4K,5,2,51.22005162746006,65.39400853930152,1.450551531482781,65.49393307882572,2,b,0.775963099999899,correct,b
5,2F4K,6,2,30.22353476226322,40.73370272188788,0.9373800805967536,44.42480725854998,2,b,0.42437870000003386,correct,b
6,2F4K,7,2,46.667309605819725,58.75478183739396,1.3195255521096778,60.27959142500016,2,b,0.7030055000000175,correct,b
7,2F4K,8,2,31.75224537654824,49.4720909819412,0.9676568002344812,52.290643257404696,2,b,0.42525479999994786,correct,b
8,2F4K,9,2,58.41868254300458,53.40112260263516,1.6847803047084071,55.74637565225658,1,b,0.3948692999999821,incorrect,v
9,2F4K,10,2,36.08797805066881,51.149074398886,1.0589535744139138,53.77597128553637,2,b,1.085305500000004,correct,b
10,2F4K,11,2,61.24707987144089,76.5708270702041,1.7868424027980538,72.84749702756889,2,v,1.1885147999998935,incorrect,b
11,2F4K,12,1,49.46971865466469,59.22846950391583,1.398704847754577,60.66820020067437,1,n,0.7333227000001443,incorrect,c
12,2F4K,13,1,37.53091789555968,50.8978547622614,1.0912090668479455,53.55435009315096,1,c,0.744474099999934,correct,c
13,2F4K,14,1,51.36149193420482,30.98598398455361,1.454824128080996,35.794213623951144,2,c,1.5152855999999701,incorrect,n
14,2F4K,15,1,40.46897885645477,56.06807235685858,1.1599554245580508,58.0347731790388,1,c,1.5101159999999254,correct,c
15,2F4K,16,2,47.88733849955973,61.25236233716667,1.3534298896124672,62.30183165907588,2,b,2.409660699999904,correct,b
16,2F4K,17,2,39.927909515542325,32.48895030968475,1.1469776549180546,37.09242749619481,1,v,1.0661305000000993,correct,v
17,2F4K,18,2,62.41138210803328,47.9544379552423,1.830631566703784,50.93594296749682,1,b,1.7279585000001134,incorrect,v
18,2F4K,19,2,37.95773527719841,50.38557632991223,1.1009371097414622,53.10142060071757,2,v,1.0311386999999286,incorrect,b
19,2F4K,20,1,34.77608279412674,43.93996234004231,1.0304557000475438,47.32165923845911,1,n,2.5007673999998588,incorrect,c
20,2F4K,21,1,38.20113465141871,51.51470203895413,1.1065234605557472,54.09791331209125,1,n,1.0245744999999715,incorrect,c
21,2F4K,22,1,49.71585673596636,68.27542436339897,1.4058821875089336,67.5789073095265,1,c,2.268700200000012,correct,c
22,2F4K,23,1,40.63981179161956,58.27535983050328,1.1640833442036351,59.88399083792856,1,c,1.406943100000035,correct,c
23,2F4K,24,1,54.45919362020393,63.470584684705685,1.5516205716506564,64.03835194815086,1,c,1.328071399999999,correct,c
24,2F4K,25,2,56.26238723256839,44.382160750503935,1.6109052239527004,47.72109990289767,1,b,1.625373800000034,incorrect,v
25,2F4K,26,2,58.851899764526735,70.8790834568459,1.7000262144558074,69.3557275346332,2,v,2.189894699999968,incorrect,b
26,2F4K,27,2,53.79613659519074,64.83105206250302,1.530373818868259,65.07297132541889,2,b,0.7808390999998664,correct,b
27,2F4K,27,2,53.79613659519074,64.83105206250302,1.530373818868259,65.07297132541889,2,many,0.7808390999998664,correct,b
28,2F4K,28,2,50.44230223657677,42.7215969629159,1.4272806731665204,46.22055732675222,1,b,0.6058520999999928,incorrect,v
29,2F4K,29,1,48.010265661233774,37.18943029773836,1.35689395054734,41.24001349403677,2,c,1.6011376000001292,incorrect,n
30,2F4K,30,1,38.95343358817217,56.8682614971936,1.1239695938639978,58.71023172015066,1,n,0.5693759999999202,incorrect,c
31,2F4K,31,2,58.830501761843486,72.85897339461133,1.6992699408325846,70.63368109155478,2,b,3.131853699999965,correct,b
32,2F4K,32,2,45.16215687982877,25.37692805449578,1.27886564570413,31.117358539879582,1,v,0.6673808000000463,correct,v
33,2F4K,33,2,57.025354142210055,51.070085148165504,1.6366667806194142,53.706324487729816,1,b,1.8502335000000585,incorrect,v
34,2F4K,34,2,63.51979367032013,47.8946083637412,1.873315388707801,50.882365986242135,1,v,1.0792571000001772,correct,v
35,2F4K,35,1,54.96659777173248,77.16116088046202,1.5680786616735205,73.1767536743525,1,n,0.7818056999999499,incorrect,c
36,2F4K,36,1,38.26020137134191,54.645789604276985,1.107883391752472,56.82108655462593,1,c,1.819644199999857,correct,c
37,2F4K,37,1,52.112364623245234,38.61307053240686,1.477717958360837,42.51531367987503,2,n,0.8234049000000141,correct,n
38,2F4K,38,1,74.2740647957031,63.56476700459835,2.3427807475639564,64.11074609947212,2,n,1.0843075999998746,correct,n
39,2F4K,39,2,57.0386005684377,46.26687472896526,1.637117665345348,49.4207021102314,1,b,2.7122497000000294,incorrect,v
40,2F4K,40,2,47.544505404342544,58.67680494424699,1.343815580242243,60.21540291927194,2,v,0.9093426000001728,incorrect,b
41,2F4K,41,2,37.18830592854,21.20288554015552,1.0834624677450582,27.854094587569676,1,b,0.7405596999999489,incorrect,v
42,2F4K,42,1,54.48469210799642,62.07932665036007,1.5524434995986665,62.956117196263214,1,c,0.9825493000000733,correct,c
43,2F4K,43,2,32.13377824475712,41.696515959831295,0.9753644852391432,45.29419026437526,2,v,0.9821492999999464,incorrect,b
44,2F4K,44,1,55.5007400172658,48.32599600311679,1.5855926724919245,51.2683992828458,2,n,2.050338700000111,correct,n
45,2F4K,45,2,59.776096002371645,44.2324919116596,1.7330134844809602,47.58592206669376,1,b,3.380766999999878,incorrect,v
46,2F4K,46,2,48.70479793821289,61.71686302023525,1.3766329418489454,62.670322795591424,2,v,0.8304209000000355,incorrect,b
47,2F4K,47,2,50.67229442989445,37.73512842390572,1.4341230679487145,41.72806957662347,1,b,0.6786250999998629,incorrect,v
48,2F4K,48,2,75.86165798703871,60.02829230968924,2.4214139582928205,61.31909563846915,1,b,0.6969025000000784,incorrect,v
49,2F4K,49,1,44.09444173064605,63.08037802936556,1.2507845048820954,63.73722536059769,1,n,0.5087695999998232,incorrect,c
50,2F4K,50,2,37.23500547413754,49.19977528766603,1.0845151180692525,52.04822984852994,2,v,0.7408023999998932,incorrect,b
51,2F4K,51,2,56.50934624958467,43.57215885484331,1.6191990935309748,46.98931219917844,1,v,1.3879087999998774,correct,v
52,2F4K,52,1,47.67578463895472,59.80883702905025,1.3474890404811355,61.14117506166952,1,c,0.9763763000000836,correct,c
53,2F4K,53,1,46.4446677925195,62.497135048329405,1.3134306559519295,63.28360891906068,1,c,0.763792199999898,correct,c
54,2F4K,54,1,51.946014580390575,59.00574932394384,1.4726151382869437,60.48576649004998,1,n,0.8971986999999899,incorrect,c
55,2F4K,55,1,66.14425196242674,52.857603170619065,1.978390968535719,55.27370696268594,2,c,1.6982496000000538,incorrect,n
56,2F4K,56,2,65.30437649098066,46.92656913866029,1.9441388973276832,50.01395939467038,1,v,1.8074831999999788,correct,v
57,2F4K,57,1,58.46752354771807,69.67653389854836,1.686492270726109,68.54827068011325,1,n,1.2725358000000142,incorrect,c
58,2F4K,58,2,43.881530559874015,60.55405305018392,1.2452590680129416,61.74323259269669,2,v,0.6604546999999457,incorrect,b
59,2F4K,59,2,47.30478139234058,32.71438618382066,1.3371334349708717,37.288502937334165,1,b,0.581584199999952,incorrect,v
60,2F4K,60,1,45.422323735576434,57.40204827836923,1.285803080354224,59.15766452715015,1,c,1.7591297000001305,correct,c
61,2F4K,61,1,47.80037713506053,59.828546243388935,1.3509846793254552,61.157175055055085,1,c,0.7333300000000236,correct,c
62,2F4K,62,2,43.49510809097152,57.43633656456223,1.2352929713132492,59.18631698410108,2,b,0.8982634999999846,correct,b
63,2F4K,63,1,47.88385417214253,63.21145487686102,1.353331831008914,63.83859160614647,1,c,0.8000466999999389,correct,c
64,2F4K,64,2,47.68116911235655,57.56936370502188,1.3476399232019425,59.29737596300522,2,b,0.5405706999999893,correct,b
65,2F4K,65,2,41.249779480103165,58.63343517040876,1.1789425230824009,60.17967582771554,2,b,0.630265799999961,correct,b
66,2F4K,66,2,60.51650697304076,45.22721576392258,1.7599021396120638,48.48385406539358,1,v,1.8317739000001438,correct,v
67,2F4K,67,1,39.7229265399704,54.839579269164005,1.1420990662294033,56.98739247510967,1,c,0.7994974999999158,correct,c
68,2F4K,68,2,41.82574769298503,50.99085263759141,1.1931475223419945,53.63642988699813,2,b,0.8121386999998776,correct,b
69,2F4K,69,1,56.45587353054816,72.57512059568238,1.6173996517300169,70.4544898736882,1,c,2.0250687999998718,correct,c
70,2F4K,70,2,53.9737092424732,68.84117613634662,1.5360351998217696,67.97395561377668,2,v,2.2616719000000103,incorrect,b
71,2F4K,71,2,65.83972957069739,46.33101757634307,1.9659026565841464,49.4784306787505,1,v,0.6898834999999508,correct,v
72,2F4K,72,1,50.82107508427801,67.23409866263086,1.438566838091102,66.83923966812229,1,c,1.4432131999999456,correct,c
73,2F4K,73,1,36.87931862664267,48.04219344411434,1.0765233101683147,51.014505867155655,1,c,1.3401808999999503,correct,c
74,2F4K,74,1,41.49344173720916,62.47327502394864,1.1849311646492724,63.26496326611667,1,c,0.7262104999999792,correct,c
75,2F4K,75,1,40.51470931142343,34.839371413329175,1.1610589949702357,39.15204915979871,2,n,1.8190586000000621,correct,n
76,2F4K,76,2,36.63958414533573,53.312044587800926,1.0711700469481626,55.66904402646856,2,b,1.4312185999999656,correct,b
77,2F4K,77,1,55.30660457522245,43.09827241241643,1.5792046437593157,46.56102009339998,2,c,1.533431999999948,incorrect,n
78,2F4K,78,2,63.48077880607193,49.86384695580082,1.871796200576269,52.638819465987815,1,v,0.6725989999999911,correct,v
79,2F4K,79,1,38.23407410611555,51.46023244562888,1.107281640849513,54.04999848526369,1,n,0.7575290000002042,incorrect,c
80,2F4K,80,2,53.92631048745638,40.4713291910054,1.5345219842236233,44.18809252051505,1,b,1.5950911999998425,incorrect,v
81,2F4K,81,2,58.638890308672856,40.75472661779126,1.692512758611321,44.44377941175506,1,v,0.8125400999999783,correct,v
82,2F4K,82,2,50.72695332316091,41.31996249568008,1.4357540185379771,44.95406122851112,1,v,0.868232799999987,correct,v
83,2F4K,83,2,38.53285018311565,51.17252618126494,1.114182456765451,53.7966428780873,2,b,0.5562563999999384,correct,b
84,2F4K,84,2,26.431141509529525,35.970891420354164,0.8662973716631602,40.15430636489566,2,v,0.5816752999999153,incorrect,b
85,2F4K,85,2,54.21223361895968,44.12783584760685,1.5436728215167714,47.49138676161638,1,b,0.47985560000006444,incorrect,v
86,2F4K,86,2,75.17033901221293,65.51400266343583,2.386853749469431,65.58310472672926,1,b,0.4676575999999386,incorrect,v
87,2F4K,87,1,42.91884223580224,54.79040727730422,1.220578655519151,56.94522127273625,1,c,1.6254992000001494,correct,c
88,2F4K,88,1,41.65304616083285,56.70781957535544,1.1888703430229637,58.57524574480643,1,n,0.6786727999999584,incorrect,c
89,2F4K,89,1,52.64098086580348,66.58672929536701,1.4940510311317414,66.37140839656705,1,n,2.2504827000000205,incorrect,c
90,2F4K,90,2,56.1890970228936,36.44465192006382,1.6084520306320342,40.57569804718929,1,v,0.8243380000001252,correct,v
91,2F4K,91,1,51.009029492946496,66.86856133284162,1.4442003374939234,66.57582042586833,1,n,0.6437498000000232,incorrect,c
92,2F4K,92,1,33.43774202270498,49.21088235812777,1.0021734762424754,52.058123345739794,1,c,0.5112788999999793,correct,c
93,2F4K,93,1,75.90293415492172,57.78308723664168,2.423493183450757,59.475459288859696,2,n,1.3098238000000038,correct,n
94,2F4K,94,1,42.61366390936688,53.91302531714111,1.212857382924427,56.18971917426463,1,n,0.9944330000000718,incorrect,c
95,2F4K,95,1,67.3996445532166,55.74731561479357,2.0307171920270144,57.76248426912539,2,n,0.6604713000001539,correct,n
96,2F4K,96,1,60.6919070114776,47.16672143155725,1.766332823625956,50.22964938200648,2,n,0.5935503000000608,correct,n
97,2F4K,97,1,55.84191642987387,68.58977074976023,1.596881759495251,67.79900695570203,1,n,0.5626375000001644,incorrect,c
98,2F4K,98,2,58.69528393579669,40.9462706038945,1.6944986859885778,44.61665762642679,1,v,1.0199542000000292,correct,v
99,2F4K,99,2,38.83667157187332,47.7277814638103,1.121243908400389,50.73291209215385,2,v,0.6062492999999449,incorrect,b
100,2F4K,100,1,42.42735881645154,56.41989957744282,1.208167735430975,58.332441014183615,1,n,0.6301773999998659,incorrect,c
101,2F4K,101,2,63.21491631429991,46.52386316036111,1.861476611306201,49.65193488066576,1,b,1.1571687000000566,incorrect,v
102,2F4K,102,2,54.04412812863594,31.120559661126915,1.5382860938401153,35.909786865809785,1,b,0.7274661000001288,incorrect,v
103,2F4K,103,2,51.170386494393554,37.55130856226401,1.4490542369460144,41.56355046759979,1,v,0.7151283000000603,correct,v
104,2F4K,104,1,60.01338000148917,50.81594011728421,1.7415856193529402,53.48201503339647,2,n,0.7454469999997855,correct,n
105,2F4K,105,1,41.38466273912718,61.941870768032906,1.1822538846194484,62.8479188825201,1,c,0.6546997000000374,correct,c
106,2F4K,106,2,48.283018522545554,63.55929721281504,1.3646117612319362,64.10654476799917,2,v,0.624083599999949,incorrect,b
107,2F4K,107,1,51.71076724554053,34.9486886421616,1.4654289453377465,39.24860286772673,2,n,1.3341433000000507,correct,n
108,2F4K,108,1,29.657519548981185,42.41470098090547,0.9264118332947812,45.94317329125743,1,c,0.8113048000000163,correct,c
109,2F4K,109,2,59.17992264578575,46.35728075532944,1.7116618064955222,49.50206486185276,1,v,0.6968706000000111,correct,v
110,2F4K,110,1,30.288986309880396,41.58305923057091,0.9386567484795898,45.19169542011837,1,n,0.38785659999985,incorrect,c
111,2F4K,111,1,34.99939619959819,48.91631979899428,1.0352519254716237,51.79557548918425,1,c,0.5939504000000397,correct,c
112,2F4K,112,1,42.46514673394034,32.740560585855754,1.2091174597269552,37.31129006448069,2,n,1.394802000000027,correct,n
113,2F4K,113,2,61.80699447460905,43.00799584931079,1.8077683670790008,46.47942322665043,1,v,0.7515822000000298,correct,v
114,2F4K,114,2,33.17576379413477,52.599864195579016,0.99672879563073,55.04889440943269,2,b,0.0003987000000051921,correct,b
115,2F4K,115,2,69.4656709655774,50.05708122927149,2.1198616745573897,52.81030338538838,1,v,0.8849616999998489,correct,v
116,2F4K,116,1,69.19074498952291,56.65943748677466,2.107777160492488,58.53449544624672,2,n,0.5152407000000494,correct,n
117,2F4K,117,1,35.89191232376695,50.20539552455938,1.0546449335501646,52.94180546016009,1,c,0.41906380000000354,correct,c
118,2F4K,118,1,68.20724416353617,52.7500079390292,2.0651081315971616,55.17990854779031,2,n,0.9214085000000978,correct,n
119,2F4K,119,2,46.331515925921,31.794441677156502,1.310343882505259,36.49053281525936,1,b,0.7096062999999049,incorrect,v
120,2F4K,120,1,49.537032978458775,30.27517999869034,1.4006640725714667,35.18609611897693,2,c,0.37053960000002917,incorrect,n
121,2F4K,121,1,34.27037505765475,49.83572426809184,1.0196763111047955,52.61384799371493,1,n,1.709361299999955,incorrect,c
122,2F4K,122,1,60.38387208184237,40.682055862273536,1.7550549026411115,44.37820328142087,2,c,0.5269497000001593,incorrect,n
123,2F4K,123,1,63.53764438023585,45.23814111929672,1.874010883232729,48.49370900041251,2,c,0.8862902999999278,incorrect,n
124,2F4K,123,1,63.53764438023585,45.23814111929672,1.874010883232729,48.49370900041251,2,many,0.8862902999999278,incorrect,n
125,2F4K,124,1,54.96792609572099,75.38012903227933,1.568121975302741,72.16403639925441,1,n,0.7090479000000869,incorrect,c
126,2F4K,125,2,53.09537270508468,40.121169723830505,1.5082349444832104,43.87234595557576,1,b,0.5388658999997915,incorrect,v
127,2F4K,126,1,45.8539983493053,25.527406322193023,1.297396948311046,31.23879953074461,2,c,1.1460648999998284,incorrect,n
128,2F4K,127,1,57.83764238437045,47.29168911918983,1.6645466131041646,50.341824150666014,2,c,0.9350325000000339,incorrect,n
129,2F4K,128,2,69.00335762022675,58.80722547539885,2.099579954275847,60.32272740720523,1,v,0.6422771999998531,correct,v
130,2F4K,129,1,32.38348984364772,51.64165819786522,0.9804423416674533,54.20952718006192,1,n,1.0367409000000407,incorrect,c
131,2F4K,130,2,54.56703194010189,35.86776507530972,1.555103883741266,40.06271004842584,1,v,2.1594694999998865,correct,v
132,2F4K,131,2,78.50834756731889,63.759216564108925,2.5584152208462547,64.25985475469739,1,b,0.7272186000000147,incorrect,v
133,2F4K,132,1,46.16065538586332,30.032763742260396,1.305696563419764,34.97961801375113,2,n,1.273287499999924,correct,n
134,2F4K,133,1,65.89135380242682,48.43322418363781,1.968014177823962,51.36425318943071,2,c,0.5443599999998696,incorrect,n
135,2F4K,134,2,54.90304694882083,69.46340597283891,1.566007810872322,68.40277426521003,2,b,0.9457095000000209,correct,b
136,2F4K,135,1,35.315472614744515,51.12488840456571,1.0420786576097316,53.75464943063749,1,n,0.8241703000001053,incorrect,c
137,2F4K,136,2,49.25215595850795,65.92843098746164,1.3923912747742164,65.88955615594945,2,v,0.8416305999999167,incorrect,b
138,2F4K,137,1,58.055298606479504,37.878555463433685,1.6720974823593466,41.85651549092119,2,n,1.3946826999999757,correct,n
139,2F4K,138,2,38.37503940795176,56.93152898588704,1.110532167400627,58.76339826037197,2,v,1.6133567000001676,incorrect,b
140,2F4K,139,2,39.27455592204301,45.40411394826005,1.1315000729838347,48.64339719451416,2,b,0.5876710000000003,correct,b
141,2F4K,140,2,61.77138166393437,42.8056046912132,1.8064301241682053,46.2964888963349,1,b,0.6424741000000722,incorrect,v
142,2F4K,141,1,66.23455171569512,50.29801493805957,1.9821093437203523,53.02387293780374,2,n,1.1338466999998218,correct,n
143,2F4K,142,1,32.22227549894276,48.002015504474656,0.9771610509895868,50.97853985855241,1,c,0.9783202000000983,correct,c
144,2F4K,143,1,32.23883274617927,54.49904710645973,0.9774975437796042,56.694966563134585,1,n,0.5814285999999811,incorrect,c
145,2F4K,144,2,39.33972539916138,46.418196232299856,1.1330344774053942,49.55687649764325,2,v,0.7939747999998872,incorrect,b
146,2F4K,145,1,51.1701693949187,61.837087740038925,1.44904769526822,62.7652888899458,1,n,0.6301117000000431,incorrect,c
147,2F4K,146,2,53.33733113913999,68.44431254734684,1.515842576350254,67.69734568082248,2,b,0.4905551000001651,correct,b
148,2F4K,147,1,36.44226611948847,53.746674861929534,1.0667839197460554,56.0458480420175,1,n,1.86212230000001,incorrect,c
149,2F4K,148,2,40.688880600886,57.24425133214098,1.165271731216346,59.02566472033631,2,v,0.557319600000028,incorrect,b
150,2F4K,149,2,65.26393100867296,52.834221740608825,1.9425044858359748,55.253330022209326,1,b,0.631576700000096,incorrect,v
151,2F4K,150,2,39.62470560397794,52.43377937403838,1.139768770043199,54.90380539549853,2,b,1.437264099999993,correct,b
152,2F4K,151,2,48.44510927766606,67.64307997721029,1.36921905802489,67.13165805662412,2,v,2.1587908999999854,incorrect,b
153,2F4K,152,1,25.01092297480727,40.02009419279281,0.8410874355313408,43.781243396789925,1,n,1.0185235999999804,incorrect,c
154,2F4K,153,1,66.17044913500233,57.07604607090126,1.979469000293617,58.88470810075309,2,n,0.8123808000000281,correct,n
155,2F4K,154,2,51.03916903938092,41.25575051148866,1.445105751005085,44.89607378693831,1,v,0.8364758000000165,correct,v
156,2F4K,155,2,25.589374688837868,46.25122062273505,0.8512656022737296,49.40661201738397,2,b,0.5572875999998814,correct,b
157,2F4K,156,2,47.12839679312647,60.91631868360318,1.332238060547943,62.03370448509818,2,v,0.5768000000000484,incorrect,b
158,2F4K,157,2,37.40065368879596,51.99569966286668,1.088257234333968,54.5202963016783,2,b,0.5755218000001605,correct,b
159,2F4K,158,2,52.15625320290445,43.62223030543464,1.479067194561498,47.03456117605789,1,b,0.5937134999999216,incorrect,v
160,2F4K,159,1,64.45316467162434,79.09014312551588,1.9100295259452296,74.20739899863098,1,c,0.599794700000075,correct,c
161,2F4K,160,2,45.24352455062396,69.71706950204988,1.28103130924116,68.57586260105032,2,b,1.4336737000000994,correct,b
162,2F4K,161,2,37.18487450915796,58.31829721423322,1.0833851607321097,59.91951327420437,2,v,0.5692394000000149,incorrect,b
163,2F4K,162,1,33.27270893736972,40.31018684239116,0.9987401454099258,44.04276147359544,1,n,0.47985220000009576,incorrect,c
164,2F4K,163,1,64.60020175876946,47.44902953874134,1.9158784744117323,50.48299333162728,2,c,0.801533900000095,incorrect,n
165,2F4K,164,2,51.25207862927345,39.08873586257991,1.4515178955798376,42.942757647666845,1,v,1.656033399999842,correct,v
166,2F4K,165,1,55.06540489188178,65.75325139138018,1.5713038051308328,65.7603082719449,1,n,0.8062658999999712,incorrect,c
167,2F4K,166,1,34.81093614603725,42.97207265489773,1.0312027987481978,46.446953639858,1,n,1.831760999999915,incorrect,c
168,2F4K,167,1,63.72166077578623,41.671015675564455,1.881195548279604,45.27115286496284,2,c,0.5936462999998184,incorrect,n
169,2F4K,168,1,40.57869855364056,64.81262166926494,1.162604950305974,65.05911753853563,1,n,0.6422856999997748,incorrect,c
170,2F4K,169,1,63.1801314763652,74.75831832119884,1.8601306355910303,71.79697179567657,1,n,0.7029454999997142,incorrect,c
171,2F4K,170,1,54.28257439267881,38.53359588628683,1.54593239658241,42.44395503654681,2,c,0.18247040000005654,incorrect,n
172,2F4K,171,2,45.99055594036745,63.60601985084544,1.3010863182069068,64.14242004793383,2,b,0.5815656999998282,correct,b
173,2F4K,172,2,52.31743919320037,40.303793957340126,1.4840330027778716,44.03699673139784,1,v,0.6544490999999653,correct,v
174,2F4K,173,2,53.50810241251523,39.750952306885445,1.5212350368317518,43.53875140803587,1,v,0.6786967000002733,correct,v
175,2F4K,174,1,47.23194628265495,36.865355117386414,1.3351097942915744,40.950683182234194,2,n,1.6740733999999975,correct,n
176,2F4K,175,2,58.77122962926458,49.25390608330903,1.6971768309358712,52.09644142704525,1,v,0.9821998000002168,correct,v
177,2F4K,176,1,55.97545770171662,44.31395605230489,1.6013223233803866,47.65950144920552,2,n,0.5633296999999402,correct,n
178,2F4K,177,1,59.85600365013724,46.27811481040247,1.735895510340081,49.4308188507317,2,c,0.6968415000001187,incorrect,n
179,2F4K,178,2,43.94405451881468,53.2720144136932,1.2468791435054651,55.63427507899706,2,b,0.5623319999999694,correct,b
180,2F4K,179,1,46.13107724418192,59.44256023516753,1.3048937283967617,60.84308441322813,1,n,0.4834442000001218,incorrect,c
181,2F4K,180,1,39.09524180583358,57.101479970407325,1.127288868308347,58.90603825322573,1,n,1.2127096999997775,incorrect,c
182,2F4K,181,2,59.182709144686754,47.765835390463984,1.7117609892429315,50.767011041845,1,b,1.6982623999997486,incorrect,v
183,2F4K,182,1,52.50045856274873,65.78671674400681,1.489691668075858,65.7850319698737,1,n,0.5330681000000368,incorrect,c
184,2F4K,183,1,64.42977670514364,52.66083002187584,1.9091008297711995,55.10210985629362,2,c,0.8789120000001276,incorrect,n
185,2F4K,184,1,28.556021460337146,45.750786238940165,0.90543353330292,48.95590405869723,1,n,0.3393070000001899,incorrect,c
186,2F4K,185,1,64.74695431485726,58.711615964689074,1.9217339634255213,60.24406593141531,2,n,0.10954919999994672,correct,n
187,2F4K,186,2,29.88027724150269,48.67913377030671,0.930713034507024,51.58391901908863,2,v,1.4494659000001775,incorrect,b
188,2F4K,187,2,30.58094868188094,51.57558451602557,0.9443728431689656,54.15144965138688,2,b,1.0852924000000712,correct,b
189,2F4K,188,1,44.72169465687528,63.525030947545645,1.2672057964398853,64.08021630683669,1,n,1.346534800000427,incorrect,c
190,2F4K,189,2,66.00371657317018,53.026079547547575,1.9726178548279,55.420429706245685,1,v,1.0428241999998136,correct,v
191,2F4K,190,1,58.2136565759148,71.12576115905775,1.677612710560514,69.51848482981869,1,c,1.1705825000003642,correct,c
192,2F4K,191,2,24.259493394774445,35.97577735606652,0.8280471373025401,40.158647213987976,2,v,0.6787072000001899,incorrect,b
193,2F4K,192,1,65.75561809105382,81.38723291244906,1.9624672016775344,75.34244591855364,1,n,0.6786846000004516,incorrect,c
194,2F4K,193,1,71.81703994377035,57.46716646337919,2.226088884134242,59.21207022317973,2,c,1.5341247000001204,incorrect,n
195,2F4K,194,2,56.74679646739221,67.1134576245018,1.6272138840510604,66.75251544422167,2,b,0.5028106999998272,correct,b
196,2F4K,195,2,54.94479084202764,33.96792174615967,1.5673677582265426,38.38463433093762,1,v,1.17029679999996,correct,v
197,2F4K,196,1,61.17309347804215,44.87615189701514,1.784095452610683,48.167092332414114,2,c,0.9044167000001835,incorrect,n
198,2F4K,197,2,36.24419771803267,52.21956040578912,1.062399175043925,54.716416013513765,2,b,0.5292578000003232,correct,b
199,2F4K,198,1,58.76123626819248,44.17902235288552,1.6968241838773794,47.5376244610717,2,n,0.8609377999996468,correct,n
200,2F4K,199,1,37.45117314937647,25.88164716673479,1.0894010739171012,31.525649115791197,2,c,0.7273839999998017,incorrect,n
201,2F4K,200,1,53.62916273517046,38.41541371574928,1.5250693856485509,42.33787471274633,2,n,0.5572973000003003,correct,n
202,2F4K,201,2,73.61145854810306,61.32147538688976,2.3107220880716626,62.35681708870841,1,v,1.825528999999733,correct,v
203,2F4K,202,1,71.20484263825166,52.4970140974027,2.1979297551661627,54.95906646598942,2,c,1.0610318999997617,incorrect,n
204,2F4K,203,1,46.5200164216449,30.12823921888623,1.3154901924707645,35.060882352035094,2,c,2.2641045999998823,incorrect,n
205,2F4K,204,2,63.18497928420289,50.41730236806541,1.8603181598456764,53.12950916285313,1,v,0.6292475999998715,correct,v
206,2F4K,205,1,61.92397818622452,42.62806407550506,1.8121713118313485,46.136017060418,2,n,0.5040656999999555,correct,n
207,2F4K,206,2,52.06596158699048,69.3470113872433,1.4762927605335228,68.32301540203338,2,b,0.5695458999998664,correct,b
208,2F4K,207,1,55.08931437326864,39.098286098213,1.5720852259909552,42.95134563966813,2,c,0.37669859999959954,incorrect,n
209,2F4K,208,2,50.38596700368404,31.884050349271213,1.4256096524243518,36.56800391327136,1,b,0.49803730000030555,incorrect,v
210,2F4K,209,1,54.148133523934206,37.80871656213643,1.5416165936604889,41.793962898149445,2,c,0.1521493999998711,incorrect,n
211,2F4K,210,1,37.673103109923545,49.768047238673205,1.094440173602118,52.55373968754272,1,n,0.5441814999999224,incorrect,c
212,2F4K,211,2,20.62170548204823,40.01747132297035,0.7677194821585197,43.778879570537725,2,v,2.377111199999945,incorrect,b
213,2F4K,212,2,67.50965685152723,54.04362385350084,2.035368062545989,56.30253213014108,1,b,1.212760899999921,incorrect,v
214,2F4K,213,1,66.24361381640114,52.8215873529672,1.9824828897535067,55.242317677563385,2,n,0.539423799999895,correct,n
215,2F4K,214,1,62.66079781752546,68.45772790392073,1.8401507168643996,67.7067351549,1,n,0.6422634000000471,incorrect,c
216,2F4K,215,1,52.18071726761357,66.72172456396518,1.479819811014304,66.46946201841396,1,n,0.6544286000003012,incorrect,c
217,2F4K,216,2,47.299671247472006,67.95957114103723,1.336991355411346,67.35625366216486,2,v,1.3331958999997369,incorrect,b
218,2F4K,217,2,74.78253089692458,57.50197662772453,2.3676829834567616,59.241137734921296,1,b,1.2128929000000426,incorrect,v
219,2F4K,218,1,51.75411900793611,65.11703307156618,1.4667505878700948,65.28735427506068,1,c,0.9092203999998674,correct,c
220,2F4K,219,2,38.49190658857903,49.89064364815573,1.113234247632732,52.66261017879891,2,b,1.37707730000011,correct,b
221,2F4K,220,2,59.71119923229432,46.5099451623876,1.730676376734084,49.639415705363895,1,v,0.3874086000000716,correct,v
222,2F4K,221,1,55.49829527432402,43.77115745333421,1.5855120677655965,47.16913714951421,2,n,0.6486133000003065,correct,n
223,2F4K,222,2,42.9716254008922,32.52236731044506,1.2219190921178271,37.121471086210775,1,v,0.5820148999996491,correct,v
224,2F4K,223,1,44.94664094907264,55.00704190162265,1.2731471970334332,57.13087330945692,1,n,0.770277999999962,incorrect,c
225,2F4K,224,1,51.22277508251901,64.33074226090518,1.4506336823946675,64.69529755780391,1,n,0.7939659999997275,incorrect,c
226,2F4K,225,1,48.3945813698359,64.2941317451037,1.3677811774023276,64.66753143583877,1,c,0.492004199999883,correct,c
227,2F4K,226,1,45.06265863434889,33.098251772786895,1.2762223980374097,37.623134269357095,2,n,0.7696092000001045,correct,n
228,2F4K,227,1,39.35310185500999,50.26147060344419,1.1333496811031014,52.99149693698058,1,n,0.42429360000005545,incorrect,c
229,2F4K,228,1,47.93713469193089,32.26649433760062,1.3548320687036346,36.89927616629095,2,c,1.4434837999997399,incorrect,n
230,2F4K,229,2,39.9571147088184,20.774715018438705,1.147674431649073,27.53169834493399,1,b,0.46664520000013,incorrect,v
231,2F4K,230,1,32.624898566864616,47.63421073969082,0.9853764906492426,50.64904679426789,1,c,1.5950072000000546,correct,c
232,2F4K,231,1,20.719380002559294,39.47702487854666,0.7692803699523653,43.29209856762908,1,c,0.6422852999999122,correct,c
233,2F4K,232,2,46.18787342078927,64.74521492118414,1.3064357748119872,65.00841051928515,2,b,0.7272588000000724,correct,b
234,2F4K,233,1,56.99459827345348,41.47587896992096,1.635620384517307,45.09488045405308,2,c,0.7941663999999946,incorrect,n
235,2F4K,234,1,45.2861478071889,61.82166442572991,1.282167223538094,62.75311542499651,1,n,0.9336051000000225,incorrect,c
236,2F4K,235,1,51.27018462251967,44.15427718861749,1.4520645001061072,47.51527198206038,2,c,1.3089538999997785,incorrect,n
237,2F4K,236,1,42.17644787930945,58.52808197883947,1.2018804806664012,60.09281032691045,1,n,1.0306434999997691,incorrect,c
238,2F4K,237,2,46.264009310136124,41.90342206541255,1.3085057638159552,45.48113011218813,1,b,0.6861585999999988,incorrect,v
239,2F4K,238,2,48.44927582949574,36.03967682921026,1.3693376936857258,40.21542769715144,1,v,1.0321565999997802,correct,v
240,2F4K,239,1,50.76895228796643,34.56539208057853,1.437008473287946,38.91033315454892,2,n,0.7385279999998602,correct,n
241,2F4K,240,1,48.14231136519012,33.857857734640845,1.3606248477270169,38.28801144785055,2,c,1.2748368000002301,incorrect,n
242,2F4K,241,1,55.74255478495342,44.39181356383696,1.593585740823931,47.72981738404874,2,n,1.2788100000002487,correct,n
243,2F4K,242,2,71.8198150919854,61.66087311977951,2.226217350054049,62.62603834046217,1,v,0.9760301999999683,correct,v
244,2F4K,243,2,50.05054040325069,35.59450416061094,1.4157006229112314,39.82023613150497,1,b,0.5815567999998166,incorrect,v
245,2F4K,244,1,34.3998522214038,49.04065434539896,1.0224253887230397,51.90643929289687,1,n,0.7995590000000448,incorrect,c
246,2F4K,245,1,45.66390704400796,34.56410723561554,1.292278671434195,38.909200549194686,2,c,0.5510826000004272,incorrect,n
247,2F4K,246,2,48.94492722492158,33.13513794551287,1.383524140148365,37.65533882843533,1,v,0.4737672000001112,correct,v
248,2F4K,247,2,54.620653293765855,40.01846825780759,1.5568388300620857,43.77977804318842,1,b,0.5465755000000172,incorrect,v
249,2F4K,248,2,41.683320629926186,48.76940067996742,1.1896190199604602,51.66449560435271,2,b,1.1366238000000521,correct,b
250,2F4K,249,1,61.35299037953393,46.13240472717569,1.7907819865591892,49.2996495971632,2,n,1.3584387999999308,correct,n
251,2F4K,250,1,44.44065634866436,29.62876018370214,1.25982180826363,34.63658071096992,2,c,0.513725699999668,incorrect,n
252,2F4K,251,2,31.470205029548943,48.65239353399845,0.9619982341474396,51.56004345407868,2,v,0.831766300000254,incorrect,b
253,2F4K,252,1,31.98656284686356,42.69148149332155,0.9723832083269892,46.19333716701191,1,n,0.24835870000015348,incorrect,c
254,2F4K,253,2,45.67385574030382,28.482299945533065,1.2925460422426525,33.67075040829578,1,v,0.7211979999997311,correct,v
255,2F4K,254,1,61.124597118975615,40.27838368377268,1.782297182308552,44.01408385892672,2,n,0.648371600000246,correct,n
256,2F4K,255,2,58.14925806011198,46.66682007214977,1.675367673440493,49.780496839095946,1,v,0.7515245000004143,correct,v
257,2F4K,256,1,53.52352667672213,66.8808467373581,1.5217230338184986,66.58470508176299,1,n,1.8186994000002414,incorrect,c
258,2F4K,257,1,36.77209451323991,52.74218850638811,1.0741257001609692,55.17308890665697,1,n,2.4894672999998875,incorrect,c
259,2F4K,258,1,50.42751054728432,43.77755225271879,1.426841731218164,47.17491544106656,2,n,0.9578556000001299,correct,n
260,2F4K,259,2,59.11998795739426,43.90616250812101,1.7095298795261036,47.29112122736439,1,v,1.5465352000001076,correct,v
261,2F4K,260,1,56.5068442010224,63.36962863031487,1.6191148510003188,63.960626512342905,1,n,2.1655485999999655,incorrect,c
262,2F4K,261,2,53.1813076116828,47.2396880948362,1.5109325187892748,50.29515187088771,1,v,0.5572589000003063,correct,v
263,2F4K,262,1,66.01721731820025,49.00006095153183,1.97317172550611,51.87025066758995,2,c,0.6779842000000826,incorrect,n
264,2F4K,263,2,43.54548011273812,54.1748913952488,1.2365875651665033,56.41579959063284,2,b,1.7892910999999003,correct,b
265,2F4K,264,1,42.42446523569033,29.528545922341927,1.2080950417782703,34.551700690226845,2,c,0.9206248000000414,incorrect,n
266,2F4K,265,2,66.76440891500039,48.43250278072094,2.0040691196588822,51.36360844809152,1,v,1.1580955999997968,correct,v
267,2F4K,266,1,57.81030444182811,48.12374278447969,1.6636006263262073,51.087489436713454,2,c,1.0670825000001969,incorrect,n
268,2F4K,267,2,45.06615231822599,29.23740623130071,1.2763151178316996,34.30559538970048,1,b,0.8669839999997748,incorrect,v
269,2F4K,268,1,56.23744738867812,66.94242601357779,1.6100700098350815,66.6292057141379,1,n,1.5404758999998194,incorrect,c
270,2F4K,269,1,33.5112701132267,19.157450781152637,1.003706945107522,26.3364924901577,2,c,3.0712711000001036,incorrect,n
271,2F4K,270,2,52.1853804569761,66.48726020078311,1.4799633135783938,66.29899292317806,2,b,1.6557835999997224,correct,b
272,2F4K,271,1,41.871871053054505,27.88240606293548,1.1942924290023549,33.17009035621899,2,n,1.9340470000001915,correct,n
273,2F4K,272,1,47.903128621211984,69.05601194050516,1.35387435634103,68.12268896520814,1,c,0.9639822999997705,correct,c
274,2F4K,273,1,61.17607617243894,39.60708848250298,1.7842061116839123,43.409192101981496,2,n,0.6969416999995701,correct,n
275,2F4K,274,2,37.96826531530064,52.76548696607664,1.1011782039166875,55.19340727905932,2,v,1.2371248999997988,incorrect,b
276,2F4K,275,2,54.58139806104668,70.59087705086414,1.5555685172327498,69.16431958913155,2,b,0.3827809000003981,correct,b
277,2F4K,276,2,42.24649531580866,62.82817756223744,1.2036324099746172,63.54158983251188,2,b,0.9396244999998089,correct,b
278,2F4K,277,2,56.46562272156133,43.58531558148547,1.6177275783428762,47.001201894014336,1,v,1.1580957000001035,correct,v
279,2F4K,278,2,41.61905144442619,27.067715818565915,1.1880302272484062,32.4956474034432,1,v,0.6788934000001063,correct,v
280,2F4K,279,1,60.53863292228995,37.47937998748939,1.7607120501680766,41.49920580181198,2,n,0.8430426999998417,correct,n
281,2F4K,280,2,63.205351558619306,38.80885180333146,1.8611064125185453,42.691175493101525,1,v,1.552628299999924,correct,v
282,2F4K,281,1,66.7339873989224,46.61660882893614,2.0028017511669334,49.735347271276986,2,n,1.655874699999913,correct,n
283,2F4K,282,1,58.77704853223966,73.95236237301663,1.6973822029210512,71.31101604671218,1,c,0.8000330999998368,correct,c
284,2F4K,283,2,50.27873000448867,39.10067841490972,1.4224341835345644,42.95349695111869,1,v,0.4727646999999706,correct,v
285,2F4K,284,1,43.54180078577092,50.63429236785045,1.2364929581470103,53.321487393302256,1,n,0.4784058999998706,incorrect,c
286,2F4K,285,1,36.48463310680677,27.218018433130155,1.067724167012078,32.61958833658794,2,n,0.5514452000002166,correct,n
287,2F4K,286,1,50.97643143534748,39.17813357769113,1.443221707112751,43.02315669987914,2,c,0.927494999999908,incorrect,n
288,2F4K,287,1,56.33591654119107,36.33278730555049,1.6133701803889198,40.47611193728952,2,c,0.5508694000000105,incorrect,n
289,2F4K,288,1,53.217078816786376,44.98185613972327,1.5120568308996267,48.2624866944998,2,n,0.5147628999998233,correct,n
290,2F4K,289,2,47.9937081446394,56.30474019427703,1.356426847115055,58.2351252940276,2,b,0.8000710999999683,correct,b
291,2F4K,290,1,25.062516163046503,47.10890254259623,0.8419902805675873,50.17773448436257,1,n,1.9409589000001688,incorrect,c
292,2F4K,291,1,70.93869113194242,56.70037229113876,2.185798989507471,58.56897453517235,2,n,0.7332946000001357,correct,n
293,2F4K,292,2,55.66288509495352,37.816040909179705,1.5909478574942564,41.80052234572784,1,v,1.7528105000001233,correct,v
294,2F4K,293,2,52.02621883208347,61.20264487513344,1.4750732158136903,62.26224330344866,2,v,0.702169899999717,incorrect,b
295,2F4K,294,2,47.98941372161082,63.114137142947,1.3563057235835665,63.76335293153434,2,v,0.5101813999999649,incorrect,b
296,2F4K,295,1,73.52233047485855,58.884146425318285,2.30644344007695,60.38594649199619,2,n,0.6422493000000031,correct,n
297,2F4K,296,1,63.236366660179606,53.716358159256735,1.862307103320158,56.01960716800372,2,n,0.756650300000274,correct,n
298,2F4K,297,2,60.70274482293402,52.37806654651634,1.7667309397664133,54.85509727048026,1,v,1.0549071000000367,correct,v
299,2F4K,298,1,79.24748323446758,63.65831970108753,2.5980415379482653,64.1825447626338,2,n,1.012654399999974,correct,n
300,2F4K,299,2,60.92390491478045,40.84962022469186,1.7748746612458597,44.52941972062161,1,v,1.1763006999999561,correct,v
301,2F4K,300,1,56.16101746915038,45.24766484076874,1.6075131329975014,48.50229947637787,2,n,1.5942626000000928,correct,n
302,2F4K,301,2,39.91182070644737,54.24078303987389,1.146593989261709,56.47260876156315,2,v,1.176282700000229,incorrect,b
303,2F4K,302,2,42.474294544797736,57.98182939279336,1.209347484013206,59.640672591779136,2,b,0.8243075000000317,correct,b
304,2F4K,303,1,49.02419725143296,40.27521420055977,1.385806585822656,44.01122595845475,2,n,0.6413353000002644,correct,n
305,2F4K,304,1,43.37702997736515,61.54690434913746,1.2322635963924382,62.5357834047794,1,c,0.6786809999998695,correct,c
306,2F4K,305,2,57.12200116067801,37.77621629525174,1.639959327156158,41.76485884414157,1,b,1.3157719999999244,incorrect,v
307,2F4K,305,2,57.12200116067801,37.77621629525174,1.639959327156158,41.76485884414157,1,many,1.3157719999999244,incorrect,v
308,2F4K,306,1,40.78832644822802,28.15615533227487,1.1676839111443416,33.39814117065357,2,n,0.557292100000268,correct,n
309,2F4K,307,2,39.0642185842532,56.27803149698352,1.1265618777798745,58.21253879180417,2,v,0.7576073000000179,incorrect,b
310,2F4K,308,1,40.54273722906492,61.484989769014,1.1617358854417306,62.48668835743399,1,n,0.7445046000002549,incorrect,c
311,2F4K,309,1,50.16281133836594,58.59235190546906,1.4190095906370943,60.14581506442803,1,n,0.5093753999999535,incorrect,c
312,2F4K,310,2,68.77351585725108,58.957893882538215,2.0895691112377177,60.44650133091282,1,v,1.0309771000002002,correct,v
313,2F4K,311,2,59.05986438489961,48.24848863177807,1.7073939017336144,51.199088018352846,1,v,0.7697218999996949,correct,v
314,2F4K,312,2,37.05021057140455,49.85489709044827,1.0803556466068027,52.630872844159896,2,v,0.5867406999996092,incorrect,b
315,2F4K,313,2,49.49559616654189,36.5734701303718,1.3994577041886065,40.69044140743797,1,v,1.0573019999997086,correct,v
316,2F4K,314,1,56.973490054325225,66.58871721061342,1.634902614166797,66.37285420288976,1,c,1.9289168000000245,correct,c
317,2F4K,315,2,28.40097221842062,45.58504756485681,0.9025189732456982,48.806525996164574,2,b,1.4189813000002687,correct,b
318,2F4K,316,1,49.43715455930072,35.80439658154942,1.3977580335157371,40.006450341277855,2,n,1.2020299999999224,correct,n
319,2F4K,317,1,59.43707576360983,43.86023145597987,1.720839174555803,47.24962145791989,2,n,0.6544088000000556,correct,n
320,2F4K,318,2,40.789441077737344,50.93540928140382,1.1677109761163214,53.58750110707231,2,b,1.1032583000001068,correct,b
321,2F4K,319,1,56.22293232175528,45.91846895301882,1.6095841119838314,49.106981454553306,2,n,1.1328816999998708,correct,n
322,2F4K,320,2,48.68376056242506,59.132616267170846,1.3760308518013629,60.58974744088913,2,b,0.5526408000000629,correct,b
323,2F4K,321,1,69.19471458127154,54.88554044961815,2.107951154855655,57.026793235136296,2,n,0.6230387000000519,correct,n
324,2F4K,322,2,55.35970816806128,42.853175864804,1.5809494565732836,46.33948690248752,1,b,0.5502841000002263,incorrect,v
325,2F4K,323,2,47.95889522938873,52.82854675649416,1.3554452657630955,55.24838373749756,2,v,0.6618650000000343,incorrect,b
326,2F4K,324,2,64.1285301074626,44.92992423254489,1.897179130045878,48.21562186375273,1,v,1.5397075999999288,correct,v
327,2F4K,325,2,46.37031451975415,55.437650637789424,1.311401486766545,57.49880822773885,2,b,0.6908519000003253,correct,b
328,2F4K,326,2,51.89637306699189,38.80745499628014,1.4710957916982157,42.6899204379228,1,b,0.9024672000000464,incorrect,v
329,2F4K,327,1,62.80014846353071,80.23552469300978,1.845490682720396,74.78604624505924,1,n,0.6232663000000684,incorrect,c
330,2F4K,328,1,35.88084634128428,45.993035742520114,1.0544022764530314,49.17414616854607,1,c,1.5407182000003559,correct,c
331,2F4K,329,2,35.34254149344337,24.40097745452656,1.042665389531318,30.33582381825485,1,v,0.7644141999999192,correct,v
332,2F4K,330,1,44.7434645394496,49.533661160483646,1.2677795802071132,52.34540888510384,1,n,1.1945415999998659,incorrect,c
333,2F4K,331,2,47.95856709077587,30.631320813867347,1.355436016980797,35.490293170224994,1,b,1.867311200000131,incorrect,v
334,2F4K,332,1,60.17673326325645,74.51816896929762,1.74751155838112,71.6533683430785,1,c,0.7272485000003144,correct,c
335,2F4K,333,1,29.395963939020383,41.92821511302309,0.9213868532320376,45.50353255602968,1,c,1.0610626000002412,correct,c
336,2F4K,334,2,77.54430988655866,58.66402668676699,2.507638346543549,60.20487841029876,1,v,2.3346933000002537,correct,v
337,2F4K,335,2,42.32757743576791,54.982465287126175,1.2056635125554775,57.109829812190114,2,b,0.6786938999998711,correct,b
338,2F4K,336,1,43.2990457370208,50.87447071356478,1.2302669319029165,53.533704261165575,1,n,1.3280278000002,incorrect,c
339,2F4K,337,2,63.43508444877536,48.58459747296753,1.8700184880354107,51.49949831049154,1,b,0.15823450000016237,incorrect,v
340,2F4K,338,1,52.22498452738613,66.71317265301488,1.481182629745171,66.46325807762592,1,c,1.0671035999998821,correct,c
341,2F4K,339,1,50.939101013443285,34.39084986320607,1.4421018203437337,38.75655389979188,2,n,0.7029905999997936,correct,n
342,2F4K,340,2,61.60995923137999,50.47173561782698,1.8003766724992885,53.17768999233412,1,b,0.7878838999999971,incorrect,v
343,2F4K,341,2,60.90636989311209,43.75288650014295,1.7742276057417354,47.15262752272306,1,v,0.6301625999999487,correct,v
344,2F4K,342,2,49.76691084170533,33.586095468048384,1.4073755212243606,38.04974039743515,1,v,0.6543851000001268,correct,v
345,2F4K,343,1,59.82816982759927,37.05361213709379,1.7348910854331632,41.118708328986486,2,c,0.6232561000001624,incorrect,n
346,2F4K,344,1,61.97958134024252,47.7932965761109,1.814267819673132,50.791615289775336,2,n,2.2510870999999497,correct,n
347,2F4K,345,2,74.82408063709948,57.32259253896443,2.369729551602932,59.09122700154086,1,v,2.3186944000003678,correct,v
348,2F4K,346,1,37.19305805068164,51.77706054841815,1.0835695381980317,54.32846567677994,1,c,2.153413399999863,correct,c
349,2F4K,347,2,35.096934237891304,43.069019568447175,1.0373538023945226,46.534579899716405,2,b,1.6011554000001524,correct,b
350,2F4K,348,1,46.30053675861368,53.898748115048335,1.3095000390935263,56.17737894897475,1,c,2.1100406999998995,correct,c
351,2F4K,349,2,55.90317673585226,39.78670114519539,1.5989172790776145,43.57095228745651,1,b,1.2919837000004009,incorrect,v
352,2F4K,350,2,63.98143212923218,57.36740814790613,1.891384873584681,59.128707053405485,1,v,0.8062789000000521,correct,v
353,2F4K,351,2,58.80633439300561,37.029092799049415,1.6984161935407176,41.09681640260372,1,b,1.3280846000002384,incorrect,v
354,2F4K,352,2,49.603980893349096,68.83457112116182,1.402615354826794,67.96937165415257,2,v,0.6049106999998912,incorrect,b
355,2F4K,353,1,38.38270816072999,53.27233343104503,1.1107092750113523,55.634552209906985,1,c,1.9339930999999524,correct,c
356,2F4K,354,1,27.307027359275047,40.33409825109685,0.8822202744752117,44.06432403071807,1,c,1.7892821999998887,correct,c
357,2F4K,355,2,50.48150547773376,61.61296725862781,1.4284446788671104,62.58811881234125,2,b,0.7211747000001196,correct,b
358,2F4K,356,2,53.73964774379896,39.90555466167471,1.528577216616654,43.67802821156258,1,b,0.7513965999996799,incorrect,v
359,2F4K,357,1,47.09024169788455,53.887945946144,1.3311814648976008,56.168041341438034,1,c,0.769748200000322,correct,c
360,2F4K,358,1,44.34240208247472,60.87838592281903,1.257250443623006,62.00335797423876,1,c,0.6180117999997492,correct,c
361,2F4K,359,1,66.84264920741995,54.66596493543677,2.007332316071337,56.83841386911944,2,c,0.6134027000002789,incorrect,n
362,2F4K,360,1,33.57268849977517,44.567271194159375,1.0049896578515842,47.88825676710319,1,c,1.4008260999999038,correct,c
363,2F4K,361,2,39.56899191250322,31.08663532269723,1.138449074179303,35.88063983712794,1,b,1.169261600000027,incorrect,v
364,2F4K,362,1,49.845197627973846,63.61883345582162,1.409668493069076,64.15225393297683,1,c,1.1157249999996566,correct,c
365,2F4K,363,1,36.708728149307376,54.345127754330775,1.0727112927776348,56.56250573427586,1,n,1.6314776999997775,incorrect,c
366,2F4K,364,1,58.03015701432107,43.030991016139694,1.6712235303903544,46.50020760418627,2,n,0.8545923000001494,correct,n
367,2F4K,365,1,56.30493629402609,36.89115871136013,1.612331156010306,40.9737056111522,2,c,2.080650400000195,incorrect,n
368,2F4K,366,2,50.50473237942944,65.63722941420814,1.4291347697779044,65.67447313492353,2,v,0.7942175000002862,incorrect,b
369,2F4K,367,2,60.70452108899917,47.11230531456136,1.7667961976778148,50.18079005090385,1,b,0.3705328000000918,incorrect,v
370,2F4K,368,1,47.63036320422924,30.712353373061557,1.3462169215271007,35.55964646709501,2,c,1.23714340000015,incorrect,n
371,2F4K,369,2,34.62915550592496,51.05929527049257,1.0273121872640985,53.69680820143774,2,b,0.9942332000000533,correct,b
372,2F4K,370,1,62.20310848352917,46.69078148791583,1.8227203764672244,49.80204055932941,2,c,1.2612984000002143,incorrect,n
373,2F4K,371,2,43.360245607232585,57.04549288183198,1.2318335853622224,58.85907693708979,2,v,1.7823649000001751,incorrect,b
374,2F4K,372,2,34.941974512916914,21.532186572155545,1.0340165202037543,28.10369400259154,1,v,0.7142021999998178,correct,v
375,2F4K,373,1,49.2408592722371,60.04301056529575,1.3920642293568295,61.33100982304703,1,n,1.8271485000000212,incorrect,c
376,2F4K,374,2,45.53657326514251,64.4656734668038,1.288861461363267,64.79748013772483,2,b,1.2249596999999994,correct,b
377,2F4K,375,2,46.23515083339243,61.11130160623457,1.3077207714071224,62.1894362446731,2,v,0.709023100000195,incorrect,b
378,2F4K,376,2,54.20300488545296,58.06938424634118,1.5433766096809949,59.71333693127747,2,b,0.9576271999999335,correct,b
379,2F4K,377,2,55.025669417067775,62.812881515918086,1.570006010796953,63.52969920912504,2,v,0.8061705000000075,incorrect,b
380,2F4K,378,2,63.53290682112423,43.66619384611526,1.8738262745709025,47.07428947655626,1,b,0.47837440000012066,incorrect,v
381,2F4K,379,1,28.790672695243394,41.15093430134644,0.9098623338436084,44.80142753157971,1,c,0.00040289999969900236,correct,c
382,2F4K,380,1,63.317302066835865,52.928095152456216,1.865444013472176,55.33511945288803,2,n,0.5329962000000705,correct,n
383,2F4K,381,1,35.66158601703032,46.56991482866302,1.0496057878172431,49.69335483328182,1,n,0.05502299999989191,incorrect,c
384,2F4K,382,1,60.400880536455794,44.18993843466681,1.7556757417704207,47.547484866185705,2,c,2.682791400000042,incorrect,n
385,2F4K,383,1,40.785113213101134,57.63049270946174,1.1676058922108994,59.3483548941427,1,c,3.7144861000001583,correct,c
386,2F4K,384,1,37.91399849812617,49.56407411939266,1.099936283814811,52.37245464125821,1,n,0.8242250999996941,incorrect,c
387,2F4K,385,1,35.702348005897164,43.2896290718236,1.0504958336484336,46.7339738088738,1,n,0.5694524999998976,incorrect,c
388,2F4K,386,2,55.96460498454472,36.83464810420477,1.600960984283316,40.92328921531456,1,v,0.6727525000001151,correct,v
389,2F4K,387,1,53.32850136072361,34.17170296421463,1.5155642779228735,38.56371259906717,2,c,0.6301813000000038,incorrect,n
390,2F4K,388,1,64.94836459498796,59.437980799043046,1.9297994651864308,60.83934858547002,2,n,0.4364230999999563,correct,n
391,2F4K,389,2,55.076448616466806,40.92394787960964,1.5716646930247058,44.59650778458417,1,v,1.4130009999998947,correct,v
392,2F4K,390,1,53.67673566790859,33.82860089206724,1.5265788090369208,38.26233929194789,2,n,0.988153699999657,correct,n
393,2F4K,391,2,57.31057863200667,69.6941206517107,1.6464028206040968,68.56024486503348,2,v,0.6362202000000252,incorrect,b
394,2F4K,392,2,58.91997199647912,43.008467705023634,1.7024343433991918,46.47984971800926,1,b,0.46625540000013643,incorrect,v
395,2F4K,393,2,55.2867109457211,66.44150130198202,1.5785514991783034,66.26563232174126,2,v,0.5708617999998751,incorrect,b
396,2F4K,394,1,33.703118958243905,22.96006398164531,1.0077191158425245,29.202074961976734,2,n,0.8607148999999481,correct,n
397,2F4K,395,1,43.23664263395983,53.61091600568373,1.2286715285333214,55.92829101407812,1,c,0.46163960000012594,correct,c
398,2F4K,396,2,58.91730579082705,44.34361059807074,1.7023399593308648,47.686284238982566,1,b,0.46765370000002804,incorrect,v
399,2F4K,397,2,47.13733326940616,33.081435035322656,1.3324856517522874,37.60845476005706,1,v,0.9760155999997551,correct,v
400,2F4K,398,2,60.87315265811968,41.81806502866283,1.7730025113695926,45.404006392214754,1,b,0.36368569999967804,incorrect,v
401,2F4K,399,1,50.94003256389551,64.91112469725375,1.4421297556365638,65.13310770432432,1,c,0.8607197000001179,correct,c
402,2F4K,400,1,63.26684294700687,77.73322027795076,1.863487689484384,73.4896703230601,1,n,2.3103046000001086,incorrect,c
