,condition,trial,sub_task,x,y,xt,yt,cat,resp,rt,acc,correct_resp
0,2F4K,1,1,62.87011373222325,53.37518184349727,1.8481776169872497,55.57085575997928,2,n,5.0,NA,n
1,2F4K,2,1,63.65448574590933,42.25996268903825,1.878569605634219,45.7297574777227,2,c,1.6132162999999764,incorrect,n
2,2F4K,3,2,46.31676891937398,64.62026575747495,1.3099421201081034,64.68765963216615,2,b,2.091823599999998,correct,b
3,2F4K,4,2,61.63165700299913,41.75695943378246,1.8011891721921782,45.278870799439126,1,b,2.1989684000000125,incorrect,v
4,2F4K,5,1,49.006475551471965,37.65058446907159,1.3852959930100837,41.61206023300097,2,n,3.307919700000184,correct,n
5,2F4K,6,2,59.38625669613422,43.039356487121545,1.7190216334543935,46.4285612393851,1,v,2.317210199999863,correct,v
6,2F4K,7,1,53.10519679926748,39.37494517959848,1.5085430876864545,43.147502006012246,2,n,1.862078800000063,correct,n
7,2F4K,8,1,80.63708036997218,64.33224895863646,2.674209350229848,64.47158666430174,2,c,3.0772799000001214,incorrect,n
8,2F4K,9,1,50.45091791525754,67.42280722450471,1.427536404827129,66.73137494708243,1,n,1.9458795999998983,incorrect,c
9,2F4K,10,2,61.75384652428711,48.45396487843816,1.8057715602464484,51.2645447602908,1,b,1.3579031000001578,incorrect,v
10,2F4K,11,1,53.97985441310182,41.32946062303763,1.5362314949759297,44.89580405556205,2,c,2.907425299999886,incorrect,n
11,2F4K,12,2,38.53264240706957,47.69037324080354,1.114177642859834,50.58661534032732,2,b,2.3611716000000342,correct,b
12,2F4K,13,2,64.49870649937698,50.72907390269311,1.9118392106299995,53.27083043460038,1,v,2.804445499999929,correct,v
13,2F4K,14,1,36.01953193421862,47.164919905974656,1.0574474410821777,50.11903440980249,1,n,1.874213999999938,incorrect,c
14,2F4K,15,2,73.35769155730408,58.94421196811904,2.298560670710017,60.24453915429996,1,v,2.798199199999999,correct,v
15,2F4K,16,2,61.194296341242456,43.38439544117244,1.7848822357733185,46.737918141622345,1,v,1.637113600000248,correct,v
16,2F4K,17,2,35.025424410820484,53.42986852762112,1.0358123983730223,55.61793409570271,2,b,1.407170099999803,correct,b
17,2F4K,18,2,61.89116581396063,49.14962988794,1.810935263528822,51.88034203061716,1,v,2.6949916999997185,correct,v
18,2F4K,19,2,26.389549467615023,45.24357136721301,0.8655484503995967,48.40345796424666,2,b,1.329734400000234,correct,b
19,2F4K,20,2,68.92992596657344,51.34511300779928,2.096376408698404,53.80988752486297,1,v,1.067326900000353,correct,v
20,2F4K,21,2,58.64835306080346,73.94951826076375,1.6928458311754846,71.03148061220138,2,v,1.6799418999999034,incorrect,b
21,2F4K,22,2,42.01026765441539,27.26196927769562,1.1977344054393533,32.68758437754338,1,b,1.9348985999999968,incorrect,v
22,2F4K,23,1,33.34099790126595,49.82641577602497,1.0001593929112815,52.477545985889066,1,n,5.0,incorrect,c
23,2F4K,24,2,41.01455108671115,55.75322939586879,1.1731898808997134,57.59814227170264,2,b,2.065192200000183,correct,b
24,2F4K,25,2,45.52168302455459,58.52681256085695,1.2884624480060862,59.90378167678194,2,b,1.1473132000000987,correct,b
25,2F4K,26,2,44.789582702909534,57.50202400153356,1.2689959643036222,59.06000702623137,2,b,0.9941986999997425,correct,b
26,2F4K,27,2,38.74964875587553,51.82920261361774,1.1192167529328332,54.23204130205213,2,b,0.6421942999995736,correct,b
27,2F4K,28,1,44.2906854333273,36.243503153172526,1.255899101270066,40.36639289261845,2,n,1.2551739000000453,correct,n
28,2F4K,29,1,47.04366022822508,30.30920183420268,1.3298926609877155,35.22633079535538,2,n,1.296881299999768,correct,n
29,2F4K,30,2,63.46096218765959,51.5213996461,1.871025039064585,53.96377102466566,1,v,2.2883804000002783,correct,v
30,2F4K,31,2,56.64604516837685,43.95016460615756,1.6238083348955294,47.24507820053192,1,v,0.9473200999996152,correct,v
31,2F4K,32,2,30.60214366911383,46.36648199340695,0.9447891553068974,49.40709399957758,2,b,1.0430464999999458,correct,b
32,2F4K,33,2,58.34731542867667,37.4988806263601,1.6822818820225611,41.477407399433766,1,v,0.8789270000002034,correct,v
33,2F4K,34,1,39.17207959140895,53.74699773990968,1.1290914866173751,55.89054155330749,1,n,1.3825796999999511,incorrect,c
34,2F4K,35,1,30.7830293755159,39.78925884802688,0.9483495889983288,43.51754678944748,1,n,0.8735701999999037,incorrect,c
35,2F4K,36,1,46.78052015426845,27.60389638180863,1.3226355687413267,32.968248383060256,2,c,2.2520236000000295,incorrect,n
36,2F4K,37,1,58.47659109253785,46.23435188137921,1.6868102960667826,49.28912959520952,2,c,1.3310213999998268,incorrect,n
37,2F4K,38,2,69.19128578180535,56.79888945144502,2.107800863548194,58.47544273396049,1,v,2.755390299999817,correct,v
38,2F4K,39,2,50.14710406591261,64.62715423306015,1.4185461843731215,64.6928141268466,2,v,1.2612014000001182,incorrect,b
39,2F4K,40,1,44.15426340867075,35.862827740878544,1.2523413949532658,40.03076226864502,2,n,1.0123977999996896,correct,n
40,2F4K,41,1,25.93258001195513,35.38849846678973,0.8573626060486259,39.61347663134137,1,n,3.623360700000376,incorrect,c
41,2F4K,42,2,47.326045864014986,36.42870393466269,1.3377248223927585,40.52990453051931,1,v,1.9714100999999573,correct,v
42,2F4K,43,2,51.96852195980084,58.9846411569314,1.4733045244198877,60.27745255941572,2,v,1.4736243000002105,incorrect,b
43,2F4K,44,1,53.58810406595006,41.51645475457843,1.523767850794208,45.06334368538699,2,n,3.919435500000418,correct,n
44,2F4K,45,2,46.16596564599745,33.80262730770674,1.3058407512981864,38.22655244793649,1,b,3.192666299999928,incorrect,v
45,2F4K,46,1,44.50437067059702,53.60028154130005,1.261492055008012,55.764508395184826,1,c,1.6072729000002255,correct,c
46,2F4K,47,2,54.14182742384517,76.09855479661866,1.5414144521637725,72.29152000617731,2,v,1.8984669000001304,incorrect,b
47,2F4K,48,2,61.56310304303752,43.46444701954545,1.7986233351263736,46.80968638061571,1,b,0.6862236000001758,incorrect,v
48,2F4K,49,2,43.40543593418653,57.73055253879222,1.2329916913595311,59.24902888398268,2,b,0.8363855000002332,correct,b
49,2F4K,50,1,70.31058805730532,63.38874285251299,2.157435819056931,63.75627310873326,2,n,1.0606944000001022,correct,n
50,2F4K,51,2,59.7696756879448,75.57226093635933,1.732782131039029,71.99051213757183,2,b,1.6799601999996412,correct,b
51,2F4K,52,1,64.64587256823494,46.19482202718098,1.917698844217916,49.25383026550363,2,n,0.8242162000001372,correct,n
52,2F4K,53,1,55.6911727945886,66.51745969434741,1.5918839699668474,66.08313189390306,1,n,0.7635709000001043,incorrect,c
53,2F4K,54,1,55.993651167625046,74.5436856204918,1.601928254237219,71.38799678124977,1,c,1.0002297000000908,correct,c
54,2F4K,55,1,66.69965620979286,51.13073463025663,2.001372467229599,53.62252543126479,2,n,0.7627925000001596,correct,n
55,2F4K,56,1,43.151766665120256,59.52104114591169,1.226504901995351,60.7125639315086,1,c,1.121788899999956,correct,c
56,2F4K,57,1,35.06713585657636,45.94334527154565,1.0367112156743434,49.02918943518089,1,c,0.8303432999996403,correct,c
57,2F4K,58,2,44.94417230836396,55.5947891034769,1.273081843048539,57.46441673720654,2,b,1.8369662999998582,correct,b
58,2F4K,59,1,57.273212733037816,72.25146970336328,1.645124059142025,69.97920408121107,1,n,2.3430582999999388,incorrect,c
59,2F4K,60,1,64.88028373413681,52.4347381227768,1.927069377748826,54.75819794054009,2,c,0.5102035999998407,incorrect,n
60,2F4K,61,2,58.47861548642129,42.75075475050473,1.6868813056750014,46.16979321049431,1,v,1.0305911000000378,correct,v
61,2F4K,62,1,46.68644620732682,54.27233246740347,1.3200507412616709,56.34057952472757,1,n,2.7496004000004177,incorrect,c
62,2F4K,63,2,45.55352189775086,60.587654560859455,1.2893157837658138,61.56881468872948,2,v,0.9302529000001414,incorrect,b
63,2F4K,64,1,45.70156685563126,57.96456202523255,1.2932910690126311,59.44207883554277,1,c,3.8284143000000768,correct,c
64,2F4K,65,1,59.602940081708944,44.53516640226613,1.7267846848412236,47.76923871732214,2,n,0.7999414999999317,correct,n
65,2F4K,66,1,56.49623298793092,71.33325715389842,1.618757626288515,69.39006371540226,1,c,2.6343565000001945,correct,c
66,2F4K,67,2,54.34182187766539,45.16711647796058,1.5478381850308265,48.33504284852009,1,b,1.2868318999999246,incorrect,v
67,2F4K,68,2,37.904605988334666,54.71220083350058,1.0997214743119716,56.71586329980386,2,b,2.3747629999998026,correct,b
68,2F4K,69,1,47.36004375224112,24.58660373124927,1.3386708830189418,30.532752843259686,2,c,1.752831000000242,incorrect,n
69,2F4K,70,2,53.67788671253231,38.874143938663465,1.5266153485960847,42.70073130392792,1,v,1.6611034000002292,correct,v
70,2F4K,71,2,27.8114763555798,40.870551543668086,0.8915232272754309,44.484794378980204,2,b,3.685349700000188,correct,b
71,2F4K,72,2,54.94667094044535,68.07942228785701,1.5674290365250656,67.19408639148048,2,v,2.0441430999999284,incorrect,b
72,2F4K,73,1,63.57373117574631,47.21468256062909,1.8754176759177144,50.16335072267682,2,n,1.0912687000000005,correct,n
73,2F4K,74,2,28.460631958701853,37.45794833951695,0.9036393235416964,41.4410893097847,2,v,1.006364400000166,incorrect,b
74,2F4K,75,1,41.86625657023493,63.76549670843489,1.1941530036340158,64.04326662086442,1,n,1.0488107999999556,incorrect,c
75,2F4K,76,1,64.20596574370244,49.7668212529326,1.9002364833556933,52.4250387015134,2,n,1.9788548000001356,correct,n
76,2F4K,77,2,33.3774291261214,49.466571359610334,1.0009173667570883,52.1602582729366,2,v,1.923350500000197,incorrect,b
77,2F4K,78,1,52.29302761453059,43.4562297448528,1.483279862427642,46.80231949920605,2,n,4.605202900000222,correct,n
78,2F4K,79,2,66.0920869128258,55.75043812193477,1.9762460888607591,57.59578816829943,1,b,1.2239606999996795,incorrect,v
79,2F4K,80,2,62.06809051464997,68.46800740078493,1.8176100480557988,67.46491223684474,2,b,2.3721874999996544,correct,b
80,2F4K,81,1,38.04194102463525,31.984578239977125,1.1028665495918564,36.65467128562173,2,c,4.720287200000257,incorrect,n
81,2F4K,82,2,53.3499743960829,72.21187925086375,1.5162411576070014,69.95408965676144,2,b,2.5917950000002747,correct,b
82,2F4K,83,2,53.27329421724825,68.23530669880768,1.513825408016967,67.3030014808782,2,b,1.3537844999996196,correct,b
83,2F4K,84,1,39.28052695253964,55.46194184152749,1.131640573381534,57.35213587930687,1,n,1.5707730999997693,incorrect,c
84,2F4K,85,2,55.17551908418917,70.81428590065887,1.5749058364575643,69.05099009117427,2,b,1.3097799999995914,correct,b
85,2F4K,86,1,59.810131145010686,47.36524019166541,1.7342404431283682,50.297387564190025,2,c,1.1702211000001626,incorrect,n
86,2F4K,87,2,47.69464492810644,64.67783307595558,1.3480176140828632,64.73071679348651,2,b,1.018572899999981,correct,b
87,2F4K,88,2,69.40775740947677,53.61125839665972,2.1173103072136787,55.77394293564168,1,b,1.1034395000001496,incorrect,v
88,2F4K,89,1,28.20064992833998,43.259125687597766,0.8987672732606989,46.62560641010762,1,c,2.056597000000238,correct,c
89,2F4K,90,1,64.84104210878027,46.98518048764892,1.925497517715009,49.95890995385245,2,c,3.459642399999666,incorrect,n
90,2F4K,91,1,38.05493509970379,55.69829467472501,1.1031645890239457,57.551799778539085,1,n,0.9640822999999727,incorrect,c
91,2F4K,92,2,24.535718721854177,39.22253744260111,0.8328170798816183,43.01147371698686,2,b,1.6921369000001505,correct,b
92,2F4K,93,1,52.80096889509883,35.924964045382886,1.499029803314931,40.08550244473369,2,c,1.0181345999999394,incorrect,n
93,2F4K,94,1,56.44361911771595,36.48933463943607,1.616987553039074,40.58346574929015,2,n,1.9728386000001592,correct,n
94,2F4K,95,2,53.30017855071367,66.30519297381943,1.5146719396279296,65.92945948930212,2,v,1.4243451000002096,incorrect,b
95,2F4K,96,2,57.26131429597447,71.30011518800544,1.6447170711820425,69.36854065340523,2,b,1.7216232999999193,correct,b
96,2F4K,97,1,31.191710781383662,46.29405750474906,0.9564432822748292,49.34243897577518,1,n,1.2308721999997942,incorrect,c
97,2F4K,98,1,48.770817342052496,65.06123434039469,1.378524129455569,65.01636096312173,1,c,2.198170399999981,correct,c
98,2F4K,99,2,64.03763330448336,50.19457357288376,1.8935965715729797,52.80156248472437,1,v,1.4918588000000454,correct,v
99,2F4K,100,1,30.33227548419009,52.07471739973261,0.9395020824263138,54.44563378159261,1,c,3.19883850000042,correct,c
100,2F4K,101,2,52.47939960893278,42.421971576336,1.4890394620463188,45.875005310943095,1,v,1.1268810999999914,correct,v
101,2F4K,102,2,57.48608837890054,43.74763236334,1.6524225477090653,47.0635466110749,1,v,1.8923672000000806,correct,v
102,2F4K,103,2,58.32592683860069,44.44389140186781,1.681533831268685,47.68747769646576,1,v,1.673945200000162,correct,v
103,2F4K,104,1,46.74048508033419,66.53866684990638,1.3215349249590738,66.09845017086445,1,c,1.0115476999999373,correct,c
104,2F4K,105,1,41.2475794005538,29.547792715817167,1.1788885884406914,34.58439623868572,2,c,1.2736206999998103,incorrect,n
105,2F4K,106,2,34.66796239053389,48.43376704542881,1.028141528343515,51.24663864512084,2,b,1.5649312999998983,correct,b
106,2F4K,107,1,48.99436107923914,57.08416575477048,1.3849470623825697,58.71314794566351,1,c,1.461518199999773,correct,c
107,2F4K,108,1,47.52913580259132,65.47834516215377,1.3433861628765331,65.32488586877037,1,c,1.352267899999788,correct,c
108,2F4K,109,1,45.62267805757924,58.77256493868856,1.291171233498316,60.10461897599335,1,c,0.9577426000000742,correct,c
109,2F4K,110,2,53.58303031496492,40.89314791358813,1.523607093102827,44.50502638294535,1,v,1.4433128999999099,correct,v
110,2F4K,111,2,51.72281045456583,71.75636720670121,1.46579598085081,69.66326291286882,2,v,1.2976054999999178,incorrect,b
111,2F4K,112,1,56.29081386809119,66.40841494977919,1.6118577361203277,66.0042670379689,1,c,0.8476342999997541,correct,c
112,2F4K,113,1,59.63189718552479,77.88446639368883,1.7278247745230364,73.27546235788891,1,c,0.9456313000000591,correct,c
113,2F4K,114,1,41.66581824545453,54.248758013168526,1.189186134692677,56.320426306321856,1,c,5.0,correct,c
114,2F4K,115,2,40.31057659234344,54.16631636943754,1.156140953362898,56.24991736321909,2,b,1.1719858999999815,correct,b
115,2F4K,116,1,53.62030395469986,42.18604636348214,1.5247884736706196,45.66349156839027,2,c,1.1534897999999885,incorrect,n
116,2F4K,117,1,40.10341056347309,54.54995082901752,1.1511711302648462,56.57760283200813,1,n,0.7332022000000507,incorrect,c
117,2F4K,118,1,50.72937904870796,37.18632442624671,1.4358264420150595,41.20023493060767,2,n,0.951590699999997,correct,n
118,2F4K,119,2,36.7630269165836,57.4245319229741,1.0739231870833834,58.99580186225985,2,b,0.8364185000000361,correct,b
119,2F4K,120,1,56.47638667735999,38.439198688417065,1.6180897151062252,42.313232818698296,2,c,0.939560899999833,incorrect,n
120,2F4K,121,2,42.05180639776184,47.34960854301901,1.1987694240866695,50.283474221859805,2,b,4.283297299999958,correct,b
121,2F4K,122,2,42.19373934234309,59.22161014658322,1.2023127135650835,60.47003696089089,2,b,0.7817848999998205,correct,b
122,2F4K,123,2,53.04284704713917,40.209263460372966,1.506588488743897,43.89302217487852,1,b,0.9577745000001414,incorrect,v
123,2F4K,124,2,53.89177727313135,70.22132323804144,1.5334204426038731,68.65828039348469,2,v,2.6161488000002464,incorrect,b
124,2F4K,125,2,56.34387203057592,50.14348958960592,1.6136371018940845,52.75664086226004,1,b,0.9424549999998817,incorrect,v
125,2F4K,126,2,62.9454522282865,47.20742762270958,1.851075278150332,50.15689024382178,1,v,0.9881107000001066,correct,v
126,2F4K,127,1,45.53414805930369,65.36461931193716,1.2887964647679253,65.2409989477777,1,n,0.982025799999974,incorrect,c
127,2F4K,128,1,53.43518094553712,35.26807136542708,1.5189300460097064,39.50770161414904,2,c,0.963228799999797,incorrect,n
128,2F4K,129,1,38.25131364944173,55.09914731857544,1.107678657223728,57.04479267983469,1,n,1.0238398000001325,incorrect,c
129,2F4K,130,1,57.665963764609785,70.95434978447673,1.6586148484116594,69.14293067047751,1,n,0.853924100000313,incorrect,c
130,2F4K,131,1,58.95369206588624,53.52256279709036,1.7036284904698007,55.69768604786159,2,c,0.9395752999998876,incorrect,n
131,2F4K,132,1,73.70796475545453,55.58676308763228,2.315363878426116,57.45763727401399,2,c,1.3219143000001168,incorrect,n
132,2F4K,133,1,24.944427910824277,34.927887017227846,0.839925245759894,39.20929256458631,1,n,0.5566843999999946,incorrect,c
133,2F4K,134,2,46.71920785276748,59.40199871205761,1.3209503444561783,60.61625490474801,2,b,0.9884799000001294,correct,b
134,2F4K,135,1,57.82220179126896,47.48131338505208,1.6640122494190572,50.40067899611319,2,n,0.9031763000002684,correct,n
135,2F4K,136,1,50.834301028666495,67.55189295395743,1.4389625354715507,66.82283992956424,1,n,1.534300499999972,incorrect,c
136,2F4K,137,2,65.91885912860498,47.4775863864511,1.9691401196253508,50.39736302781062,1,b,1.3819104999997762,incorrect,v
137,2F4K,138,2,50.70510696419653,41.37245200500328,1.435101929079943,44.93431978820361,1,b,1.260716699999648,incorrect,v
138,2F4K,139,2,69.90878225131829,53.18651775164346,2.13948485663351,55.40828637421829,1,b,0.951727099999971,incorrect,v
139,2F4K,140,2,41.05837693156016,47.82315413925291,1.1742595346779745,50.70463923130368,2,v,1.8863101000001734,incorrect,b
140,2F4K,141,1,64.05892617426626,50.03488716204053,1.894435190235628,52.66109881962495,2,c,1.6678399000002173,incorrect,n
141,2F4K,142,1,26.49126993509448,37.42421519036026,0.8673812114259136,41.41116320364382,1,n,0.6179299000000356,incorrect,c
142,2F4K,143,1,49.68612023771328,67.08501616122237,1.4050131246248188,66.49088586570213,1,c,1.691244000000097,correct,c
143,2F4K,144,2,74.84499550641945,56.45025128032055,2.3707604007099063,58.18397199048657,1,b,3.937619799999993,incorrect,v
144,2F4K,145,2,42.97855295524964,53.65789146964555,1.2220951276712408,55.81401455935418,2,v,1.649631600000248,incorrect,b
145,2F4K,146,1,45.28793790296478,58.53647969050665,1.2822149518129808,59.91169322831928,1,n,5.0,incorrect,c
146,2F4K,147,2,59.33769491515297,54.97083949568463,1.717286617774327,56.935849906352765,1,b,1.0492777999997998,incorrect,v
147,2F4K,148,1,59.00700416111417,37.58407846509854,1.7055181697952968,41.55301962718423,2,c,1.067242399999941,incorrect,n
148,2F4K,149,2,52.28352595847994,55.94086544785997,1.482986822891483,57.75624422251571,2,b,2.069908299999952,correct,b
149,2F4K,150,2,50.770865439167856,65.67325748427909,1.4370656427332358,65.46824883108488,2,v,0.9655773999998019,incorrect,b
150,2F4K,151,1,77.0256415467987,59.06034838971176,2.4807377791048677,60.339041542587424,2,n,0.86068750000004,correct,n
151,2F4K,152,2,63.51896010690358,39.17753396747847,1.8732829179444408,42.97131716394578,1,b,0.41159379999999146,incorrect,v
152,2F4K,153,1,67.51865466090399,52.544335042315936,2.0357489240598667,54.853191876116846,2,n,1.4857872000002317,correct,n
153,2F4K,154,1,30.74273687463756,39.5548511150989,0.9475553385400812,43.3081404060174,1,c,2.215525599999637,correct,c
154,2F4K,155,1,46.88314156606262,28.4664895114473,1.325461023532955,33.68120367498491,2,n,0.8139023999997335,correct,n
155,2F4K,156,1,57.70130871968016,42.86916528549743,1.6598343413978374,46.27596345151585,2,n,0.7575157999999647,correct,n
156,2F4K,157,1,52.898089249010944,44.66510369107966,1.50206024447093,47.885616347132256,2,n,1.3158692000001793,correct,n
157,2F4K,158,1,59.852316262943575,42.49101789475127,1.7357624120768151,45.93691067167546,2,n,1.0002510999997867,correct,n
158,2F4K,159,2,50.82697369247903,66.09304325955975,1.438743300801652,65.77524162283115,2,b,2.6221909999999298,correct,b
159,2F4K,160,1,52.72180193349707,67.72893642987923,1.496564084580017,66.94788996790935,1,n,1.816501899999821,incorrect,c
160,2F4K,161,1,56.56937272826787,43.31082706748845,1.6212214649068526,46.67196031848469,2,n,2.7121587999999974,correct,n
161,2F4K,162,2,55.773223612274606,40.3320355726409,1.5946023588639002,44.002837150783606,1,b,1.9303279000000657,incorrect,v
162,2F4K,163,1,35.551877611323086,56.76006669957855,1.0472140280956352,58.44303826404729,1,c,1.8377550000000156,correct,c
163,2F4K,164,1,73.43277324538963,55.80059227309435,2.302152170020551,57.63807745106825,2,n,2.7511374000000615,correct,n
164,2F4K,164,1,73.43277324538963,55.80059227309435,2.302152170020551,57.63807745106825,2,many,2.7511374000000615,correct,n
165,2F4K,165,2,52.24107400148283,38.51844774571323,1.481678273716654,42.38379815809102,1,b,0.7098661999998512,incorrect,v
166,2F4K,166,2,56.66715793635928,43.45526181452883,1.624521388195729,46.80145173678878,1,v,0.42978919999995924,correct,v
167,2F4K,167,1,39.953500832275,29.653758115321853,1.1475881889348492,34.673448358423954,2,n,1.928788700000041,correct,n
168,2F4K,168,1,48.83961372698153,63.75266944616988,1.3804976306316663,64.03352490250863,1,c,0.4779172999997172,correct,c
169,2F4K,169,1,50.32265396187754,64.1545847497608,1.4237339900495634,64.33776271878531,1,n,0.6481265000002168,incorrect,c
170,2F4K,170,2,29.315099800264058,41.91442307891661,0.9198388224020893,45.42000399149338,2,b,1.6253971000001002,correct,b
171,2F4K,171,1,60.405509826175766,47.9616207554411,1.755844757175,50.82765668095377,2,c,4.410961000000043,incorrect,n
172,2F4K,172,2,36.74028349668017,52.50410567664866,1.0734154100990303,54.8183313785504,2,b,1.8499221000001853,correct,b
173,2F4K,173,2,63.684937283795854,48.02124281984938,1.879759533808004,50.88060715310677,1,v,0.7210526000003483,correct,v
174,2F4K,174,1,53.85057769325372,46.32303075593835,1.532107291416959,49.36830548395876,2,n,1.2612343000000692,correct,n
175,2F4K,175,2,50.71224774648093,70.07287535575372,1.435315040881426,68.55909192099942,2,b,1.5094908999999461,correct,b
176,2F4K,176,2,50.8030655032275,66.50525752834253,1.4380281975326008,66.07431519411384,2,v,1.2735689000001003,incorrect,b
177,2F4K,177,2,62.87154769377116,80.38576319434462,1.8482327274937875,74.55378851554639,2,v,1.3704663999997138,incorrect,b
178,2F4K,178,2,50.30673903833093,54.74417994131491,1.4232628952990782,56.743090819945735,2,b,0.9820346999999856,correct,b
179,2F4K,179,1,27.86705241118858,44.72942639272087,0.8925541309171259,47.94321939713294,1,n,2.1670301000003747,incorrect,c
180,2F4K,180,2,41.27698626681832,61.04009211689361,1.1796096976102262,61.92828808149613,2,b,4.09681750000027,correct,b
181,2F4K,181,2,52.1183057358516,36.93384180697565,1.4779005298164083,40.97659533881175,1,v,0.8728158999997504,correct,v
182,2F4K,182,2,47.89719734490672,35.874298997887806,1.353707383263479,40.0408667900408,1,b,0.8549551999999494,incorrect,v
183,2F4K,183,1,67.04897607036935,61.47423043983624,2.015963169849305,62.27106193315053,2,n,3.453611300000375,correct,n
184,2F4K,184,1,58.66401170534662,43.824874076601816,1.6933971324512178,47.13278218369685,2,n,1.2132039999996778,correct,n
185,2F4K,185,2,44.42185433296355,34.374259788806924,1.2593293432842858,38.724923180170656,1,v,0.8788635000000795,correct,v
186,2F4K,186,2,40.64925745667155,26.40133773746816,1.1643120125148942,31.9862534302324,1,v,0.8667304000000513,correct,v
187,2F4K,187,2,33.78159809939511,49.97124590184323,1.009364983348644,52.60508560851644,2,v,0.5388997999998537,incorrect,b
188,2F4K,188,1,57.00020933272285,39.60888664901503,1.6358112377072078,43.35640253074215,2,n,4.277223900000081,correct,n
189,2F4K,189,2,38.92725987388394,56.08369880898871,1.123358020650929,57.87640041338755,2,v,1.2915656999998646,incorrect,b
190,2F4K,190,1,48.48327215567433,61.89611926202066,1.370306066935588,62.60209355670928,1,n,0.6896888000001127,incorrect,c
191,2F4K,191,1,53.431508197395466,73.385787161677,1.5188140457257295,70.68757963672077,1,c,0.8182011000003513,correct,c
192,2F4K,192,2,20.98452414891571,37.09793726260683,0.7735335249013985,41.12191785004772,2,v,0.678568499999983,incorrect,b
193,2F4K,193,2,31.230779603576305,39.95761288684318,0.9572206252548972,43.668012412760845,2,b,0.8303145999998378,correct,b
194,2F4K,194,1,50.426417521205785,41.09223192543061,1.426809301131671,44.683306521049616,2,n,2.6707182000000103,correct,n
195,2F4K,195,1,59.074768912075854,49.13855660896942,1.7079231579251275,51.870554852976895,2,n,0.8948427999998785,correct,n
196,2F4K,196,1,56.03567644707719,72.40145985299507,1.6033287769748292,70.07411414686874,1,c,2.937742099999923,correct,c
197,2F4K,197,1,43.04653142894874,30.7241200400437,1.2238238694477444,35.57810049476484,2,c,0.8999511000001803,incorrect,n
198,2F4K,198,2,56.58471005821335,36.15856918105025,1.6217386048438298,40.29145429446893,1,b,0.8804125000001477,incorrect,v
199,2F4K,199,1,35.95098694363276,26.717458298030355,1.0559412788516205,32.242997821354315,2,c,2.141220500000145,incorrect,n
200,2F4K,200,2,49.84906557428786,61.99911221260465,1.4097818796375647,62.68259143671195,2,v,1.2976088000000345,incorrect,b
201,2F4K,201,1,49.936608036869714,27.89205632304176,1.4123505758934805,33.2056474092291,2,n,3.991995400000178,correct,n
202,2F4K,202,2,38.44347136117235,51.99995134939167,1.112113582321945,54.38062620729123,2,b,1.079134300000078,correct,b
203,2F4K,203,1,54.2171388141633,45.61691863166217,1.5438302852043964,48.73740996730133,2,n,0.5752963999998428,correct,n
204,2F4K,204,2,48.62701609575869,63.39938323831698,1.3744081369761445,63.76440294857773,2,b,0.39400660000001153,correct,b
205,2F4K,205,2,32.27814674477744,41.848929898017616,0.9782969861109172,45.36130108101746,2,v,0.93348879999985,incorrect,b
206,2F4K,206,2,71.64464339977437,50.16037325337602,2.218122897805677,52.77148917405554,1,v,0.7028804000001401,correct,v
207,2F4K,207,1,54.49317759081116,72.71566580180102,1.5527174534394523,70.27171532213531,1,n,0.8417558000001009,incorrect,c
208,2F4K,208,1,42.13581753672104,61.67712822061676,1.20086545965918,62.43052137725441,1,n,2.2330034000001433,incorrect,c
209,2F4K,209,1,54.38368996438378,62.77289884566608,1.5491863543956637,63.28334284510159,1,n,4.5763396999996075,incorrect,c
210,2F4K,210,1,60.63904680539295,48.81756039404488,1.7643923424172718,51.58662834002974,2,c,0.6363728999999694,incorrect,n
211,2F4K,211,1,42.87055139796794,55.79349034064449,1.2193535903545982,57.63209045061006,1,c,0.6543541000000914,correct,c
212,2F4K,212,1,42.4226385178119,60.796951308228834,1.208049152518888,61.73538881816562,1,c,0.5815220999998019,correct,c
213,2F4K,213,1,48.130771966207135,36.54895732625401,1.3602983980835204,40.6361511963155,2,n,1.0361432999998215,correct,n
214,2F4K,214,1,45.26297353444974,54.535036925713285,1.2815495018319878,56.56488417222064,1,n,2.7079383000000234,incorrect,c
215,2F4K,215,2,53.97221387669683,41.17934026244384,1.5359874371548334,44.761326768814826,1,b,4.406406999999945,incorrect,v
216,2F4K,216,1,46.03526111431693,55.84747765467533,1.3022963937805692,57.67759192441874,1,c,0.8418484999997418,correct,c
217,2F4K,217,2,31.505286841356977,50.31189983128199,0.9627002734480798,52.904688681983465,2,b,1.4190128000000186,correct,b
218,2F4K,218,1,45.72695639060346,65.82792828357051,1.2939740559397157,65.58164337851673,1,n,3.113777300000038,incorrect,c
219,2F4K,219,2,55.38813129790758,62.00651706939718,1.5818841408779116,62.68837417285396,2,v,0.6969849000001886,incorrect,b
220,2F4K,220,2,57.01490226509299,45.94699659006798,1.6363111050099133,49.0324520379932,1,v,0.9881406999998035,correct,v
221,2F4K,221,1,67.56643090166176,47.31592098266353,2.03777240283524,50.25348735197426,2,n,1.097331099999792,correct,n
222,2F4K,221,1,67.56643090166176,47.31592098266353,2.03777240283524,50.25348735197426,2,many,1.097331099999792,correct,n
223,2F4K,222,2,55.51245412379373,37.16011378303724,1.5859789508801538,41.1770075042258,1,b,0.7818074000001616,incorrect,v
224,2F4K,223,1,53.94116296842844,38.576425996414805,1.534995992475761,42.43543461590208,2,c,0.860682099999849,incorrect,n
225,2F4K,224,1,50.59269094438151,34.711066413920776,1.4317511163350325,39.01940396385216,2,n,1.1823271000002933,correct,n
226,2F4K,225,1,64.62266246410435,55.69593125946724,1.9167735083187325,57.54980546920504,2,n,0.6970878999995875,correct,n
227,2F4K,226,2,41.89347696814387,58.64656705805672,1.1948291240946969,60.00172364767222,2,b,1.3826328000000103,correct,b
228,2F4K,227,2,75.17426587802963,62.21403878917745,2.3870486604552323,62.850172726599375,1,b,1.0912996999995812,incorrect,v
229,2F4K,228,2,43.60862500009584,50.04085466444786,1.2382123465802306,52.66635009979012,2,v,3.6462765999999647,incorrect,b
230,2F4K,229,2,56.01203073244845,68.17488422456178,1.602540615903446,67.26082776006399,2,v,0.8175773000002664,incorrect,b
231,2F4K,230,1,50.69305810433644,35.17582998516004,1.4347424107710467,39.426730822197975,2,n,0.7332292999999481,correct,n
232,2F4K,231,1,47.636130897797806,63.991289160638495,1.346378390834963,64.2144024131917,1,c,0.6474184999997306,correct,c
233,2F4K,232,1,33.33398483238177,49.530517092688,1.0000135476336254,52.21668264538869,1,c,0.6846851000000242,correct,c
234,2F4K,233,2,33.672654822969335,47.182975396574406,1.0070809441798985,50.13511459386044,2,b,0.4904892999998083,correct,b
235,2F4K,234,2,62.6471993331477,72.02809182570917,1.8396304463473123,69.83716190214967,2,b,0.5451653999998598,correct,b
236,2F4K,235,2,24.357598531641734,43.6748074866215,0.8297381099707005,46.99826690890249,2,v,1.1641300999999658,incorrect,b
237,2F4K,236,1,63.21926681763288,49.81032987134503,1.8616450195899423,52.46337465091391,2,n,2.9438247999996747,correct,n
238,2F4K,237,1,60.77850152687208,45.93670801139184,1.7695162932717423,49.02325870290186,2,c,0.6422014999998282,incorrect,n
239,2F4K,238,1,50.22488902522497,28.150080381879697,1.4208425292119005,33.41888124124174,2,n,4.720489300000281,correct,n
240,2F4K,239,2,49.69886644442859,46.43193372950255,1.4053855725939557,49.465514046147455,1,v,0.8546111999999084,correct,v
241,2F4K,240,2,51.73976130514075,42.61035426757634,1.4663127401264242,46.04390749824897,1,v,0.6361432999997305,correct,v
242,2F4K,241,1,42.189463674066666,55.85052678696752,1.202205820666875,57.68016107396476,1,n,1.5280836000001727,incorrect,c
243,2F4K,242,1,78.96943981220055,65.66473381032145,2.583063651104091,65.46199029489757,2,c,1.9545923000000585,incorrect,n
244,2F4K,243,2,60.31004788764681,65.18320759097293,1.752362730467343,65.10682345007575,2,v,1.3637057999999342,incorrect,b
245,2F4K,244,1,41.96159383018345,33.45338973123166,1.196522739374997,37.92299922335645,2,n,1.4737254000001485,correct,n
246,2F4K,245,1,50.31471512662701,28.8318273611028,1.423498974546628,33.98521710891475,2,c,1.7588636999998926,incorrect,n
247,2F4K,246,1,36.49825843194874,20.647159499286403,1.0680267288774687,27.509638105688044,2,n,1.7217752999999902,correct,n
248,2F4K,247,2,52.105585931400505,64.59035583559513,1.4775096754923862,64.66527146222379,2,b,0.6907196999995904,correct,b
249,2F4K,248,2,49.68985574275718,34.49097317159934,1.4051222669725767,38.826900738531926,1,b,1.6859779999999773,incorrect,v
250,2F4K,249,2,50.43185721000688,61.55139203555403,1.4269707040062725,62.33175990919149,2,v,1.0080455999996047,incorrect,b
251,2F4K,250,2,59.98745888516952,70.76411048540929,1.7406471324710788,69.01797725366421,2,b,1.000269500000286,correct,b
252,2F4K,251,2,44.92023350756691,58.15250932873968,1.2724482690572472,59.59675374003853,2,b,1.048059700000067,correct,b
253,2F4K,252,1,71.83055725374703,57.18430304778087,2.2267146912947173,58.79641479019976,2,n,1.6133461999997962,correct,n
254,2F4K,253,2,40.32966546295564,51.49875193948291,1.156599965250276,53.94401106374092,2,v,1.6557530999998562,incorrect,b
255,2F4K,254,2,53.4528748030454,34.35456166130052,1.519489013966559,38.70771935387794,1,b,2.137420999999904,incorrect,v
256,2F4K,255,1,49.67544008212423,60.87784404230597,1.4047011232902888,61.79963942963425,1,n,2.4780025999998543,incorrect,c
257,2F4K,256,1,39.006144539428384,47.31357614369975,1.125202244964198,50.25139997933224,1,c,0.37869339999997464,correct,c
258,2F4K,257,2,36.879046945683015,51.4635160991802,1.0765172284243931,53.91326239803669,2,b,0.8318546000000424,correct,b
259,2F4K,258,1,56.97677323813967,47.726367744648456,1.6350142358654391,50.61861498772133,2,c,1.3393495000000257,incorrect,n
260,2F4K,259,2,46.335010345750135,29.27507042929983,1.3104391013397632,34.35563947491221,1,b,0.6543483000000379,incorrect,v
261,2F4K,260,1,43.94166188005176,35.86415838767872,1.246817108416847,40.03193434602319,2,c,3.058960599999864,incorrect,n
262,2F4K,261,1,42.820960466597626,65.43621700712559,1.2180968234490637,65.29383157837516,1,n,2.6519037000002754,incorrect,c
263,2F4K,262,2,39.226439998132896,21.448685505995435,1.1303685252360125,28.108941058975613,1,v,5.0,incorrect,v
264,2F4K,263,1,58.849497281940046,44.54380541051897,1.6999412862920305,47.77697678365451,2,n,1.0579302000001007,correct,n
265,2F4K,264,1,49.902633438720834,42.05016815304885,1.411353128145408,45.54168328390708,2,n,0.8302053000002161,correct,n
266,2F4K,265,2,61.671487044092416,45.94869894237,1.8026816114374755,49.03397315046316,1,b,0.8730847000001631,incorrect,v
267,2F4K,266,1,29.92719605815033,50.37909194644254,0.9316215272005206,52.9637188468496,1,n,1.7710408000002644,incorrect,c
268,2F4K,267,2,49.37328520659414,40.45872331205858,1.3959028671556686,44.11618033254452,1,v,1.6124548000002505,correct,v
269,2F4K,268,1,33.91479859738173,45.60593479625366,1.0121646246869287,48.7275885274716,1,n,4.975408400000106,incorrect,c
270,2F4K,269,1,45.82891865270747,29.701231234623144,1.296720509332693,34.71337466746289,2,c,3.906583099999807,incorrect,n
271,2F4K,270,2,49.50466760585222,31.01532839937574,1.3997217161811162,35.82578257084267,1,b,3.848203399999875,incorrect,v
272,2F4K,271,1,33.67339235742956,55.58805935566896,1.0070963894938816,57.4587322486392,1,c,1.0245574000000488,correct,c
273,2F4K,272,2,50.7665418975653,65.74389225829091,1.4369364484068574,65.52007436663048,2,v,0.42369989999997415,incorrect,b
274,2F4K,273,2,46.70874951094112,63.66993617109361,1.3206631018771549,63.97064262560562,2,v,0.6239568999999392,incorrect,b
275,2F4K,274,2,46.042749468061146,26.188578560107377,1.302499197875296,31.814032103418544,1,b,2.974177300000065,incorrect,v
276,2F4K,275,1,56.44748982651164,77.61472038859668,1.6171177081929975,73.1305980356845,1,c,2.185214900000119,correct,c
277,2F4K,276,1,54.06411626510518,36.90023678350882,1.538925602447632,40.946847414939256,2,n,2.439934600000015,correct,n
278,2F4K,277,1,50.4810098916927,37.133115566414105,1.4284299582177242,41.15308478393635,2,n,3.54603330000009,correct,n
279,2F4K,278,1,36.61009889156045,52.89226974520977,1.0705134832396943,55.15426979516639,1,n,0.9395895000002383,incorrect,c
280,2F4K,279,2,55.17612693051007,46.33609410092407,1.5749257430921904,49.37996745809816,1,b,0.7567371000000094,incorrect,v
281,2F4K,280,2,58.35152913167735,43.507432256145314,1.6824292925268087,46.84822269889555,1,v,2.7868320999996286,correct,v
282,2F4K,281,1,70.17025049189527,58.1945851624123,2.151149086209164,59.63133463114032,2,n,2.5127246000001833,correct,n
283,2F4K,282,1,48.85271551502616,34.65204504820009,1.380873790199202,38.9677561428816,2,n,0.8257669999998143,correct,n
284,2F4K,283,1,43.20530013392177,55.21248731302456,1.2278710040338996,57.1409203642503,1,n,0.38122729999986404,incorrect,c
285,2F4K,284,2,77.96370203434681,63.11474563818247,2.5296031354428608,63.54643837059608,1,b,0.6656568000003062,incorrect,v
286,2F4K,285,2,39.02623016314162,55.973060356893306,1.125672304997306,57.78334245257065,2,b,0.829526700000315,correct,b
287,2F4K,286,2,55.84024754937785,44.5021264221589,1.5968263432394478,47.73964365431584,1,v,0.6179531000002498,correct,v
288,2F4K,287,2,48.54526623821887,63.95442118695203,1.37207370967931,64.1865034142167,2,b,1.2733655000001818,correct,b
289,2F4K,288,1,49.8824923134989,59.85912309177839,1.410762144867626,60.98527794999535,1,n,0.799974900000052,incorrect,c
290,2F4K,289,1,31.8641196742306,46.769054747472445,0.9699105393972676,49.76625616341964,1,n,1.5457542999997713,incorrect,c
291,2F4K,290,2,31.72737678868761,47.94945629620696,0.9671565274173236,50.81685195718354,2,b,0.7506677999999738,correct,b
292,2F4K,291,1,57.4764174684727,43.861282986536594,1.652090277410846,47.165416013276015,2,n,0.9940574000002016,correct,n
293,2F4K,292,2,73.64350582846254,59.548369183368266,2.3122624767827094,60.73465245142642,1,v,1.0973125000000437,correct,v
294,2F4K,293,2,57.24818260379277,38.376003511181565,1.6442680164102303,42.25697509268088,1,v,1.0245313000000351,correct,v
295,2F4K,294,1,40.17364961913383,56.601540294841584,1.1528537364029825,58.31058316325944,1,n,0.9278316999998424,incorrect,c
296,2F4K,295,2,39.16291176752009,47.62467906750644,1.1288762576537672,50.52820183839126,2,b,0.6664927000001626,correct,b
297,2F4K,296,1,37.28054421333836,49.19603964463,1.0855425876493718,51.92135612573991,1,n,0.9277437999999165,incorrect,c
298,2F4K,297,1,58.20209959877842,75.71740031116428,1.6772095941354916,72.07401897368855,1,c,1.0973370000001523,correct,c
299,2F4K,298,2,42.68529148408062,54.715279135994685,1.2146652236648416,56.71848455071316,2,b,0.6603555000001506,correct,b
300,2F4K,299,2,45.94447706987882,50.89489203564983,1.2998402362704478,53.41612237197245,2,b,0.8782776999996713,correct,b
301,2F4K,300,2,48.90636596729435,40.98941237412136,1.382415193796228,44.59122542202878,1,b,0.9759745999999723,incorrect,v
302,2F4K,301,2,61.67123362456609,43.60150883835007,1.8026721118515592,46.93255968377078,1,v,0.9155719999998837,correct,v
303,2F4K,302,2,35.51344355760518,56.50599891602458,1.0463774146803455,58.23064918328635,2,b,0.6850781000002826,correct,b
304,2F4K,303,1,49.47126637392074,58.54134155085015,1.398749864279927,59.9156718147345,1,n,0.6361323000000993,incorrect,c
305,2F4K,304,2,74.27358661333557,61.46946592458989,2.342757452186007,62.26731175983343,1,v,1.3826711000001524,correct,v
306,2F4K,305,2,49.34251307722598,64.09302099370606,1.3950099307660462,64.29129518378542,2,v,1.4132157999997617,incorrect,b
307,2F4K,306,1,51.34538318829989,35.573318084150046,1.4543368844108473,39.77594476574384,2,n,1.8741987999997036,correct,n
308,2F4K,307,2,53.018426751610576,44.25593791643887,1.505823628633189,47.51908896634247,1,b,2.8952892000002066,incorrect,v
309,2F4K,308,1,60.311929316114,52.68993580178216,1.7524312898550212,54.97927716838964,2,n,1.0855654000001778,correct,n
310,2F4K,309,1,35.83781793786861,45.34577361637783,1.0534592714338964,48.49489876115744,1,n,0.8121516999999585,incorrect,c
311,2F4K,310,2,73.59170505058948,61.22311989380648,2.3097731251567444,62.073058304658055,1,v,1.0845431999996435,correct,v
312,2F4K,311,2,64.06560536302764,48.53321310628986,1.8946983262821333,51.334786921827074,1,v,0.5989008000001377,correct,v
313,2F4K,312,2,27.814053755914426,37.95421325569925,0.8915710102186694,41.88179229400179,2,b,0.5935485999998491,correct,b
314,2F4K,313,1,32.124958244221254,41.36142628967701,0.975185613207518,44.92444174146078,1,n,0.7878381000000445,incorrect,c
315,2F4K,314,1,46.14292209953009,58.9432246403506,1.3052151722362957,60.24373516522495,1,c,2.336785399999826,correct,c
316,2F4K,315,2,53.04979234011498,68.24947624094511,1.5068060909492642,67.31288366570246,2,v,1.4311326000001827,incorrect,b
317,2F4K,316,2,74.41355708095931,57.14737797735348,2.349586224619616,58.76572109318124,1,v,0.5026050000001305,correct,v
318,2F4K,317,1,69.65774415920596,59.43376543761579,2.128345438619556,60.64196949755269,2,n,0.9631400999996913,correct,n
319,2F4K,318,1,44.797590556945366,56.29460410438162,1.2692072933847287,58.05350864851916,1,c,1.5273885000001428,correct,c
320,2F4K,319,2,62.228778695305,49.27822729210026,1.823693598951143,51.9939668961738,1,v,0.9344944999998006,correct,v
321,2F4K,320,2,53.81275958896425,36.93303311132956,1.530902907643241,40.97587941244868,1,b,1.2126995000003262,incorrect,v
322,2F4K,321,1,53.193957255958935,41.42024925610857,1.5113300097134552,44.97714315660075,2,n,3.4641579999997703,correct,n
323,2F4K,322,1,22.019088030874137,38.4345442375208,0.7903549608147689,42.30908893389229,1,c,0.7881882000001497,correct,c
324,2F4K,323,2,55.13932542999292,64.81994122927878,1.5737209675026604,64.83681863581617,2,b,0.8120942999998988,correct,b
325,2F4K,324,2,61.11717211939107,47.94413263487934,1.7820220194939247,50.81212321815687,1,b,1.1216465000002245,incorrect,v
326,2F4K,325,2,42.29152801051876,58.48455119032216,1.2047600536368943,59.86918434323795,2,v,0.4185628000000179,incorrect,b
327,2F4K,326,1,49.423543093125865,62.81611193013161,1.3973624645966405,63.316679941125855,1,n,0.6543610000003355,incorrect,c
328,2F4K,327,1,32.13740155712883,43.55479245766792,0.97543797651579,46.89068027495063,1,n,0.9266491999997015,incorrect,c
329,2F4K,328,1,50.401191248294,64.87972709401697,1.4260610423294695,64.88137651399622,1,c,0.6111463000002004,correct,c
330,2F4K,329,1,32.77271190690358,44.57701658620235,0.9884098939680576,47.80672368052983,1,n,0.49640229999977237,incorrect,c
331,2F4K,330,2,69.98044891238268,53.82504428582188,2.142675635826008,55.95752489213567,1,v,1.88513039999998,correct,v
332,2F4K,331,1,54.52656602617752,46.12171151241301,1.5537958686155149,49.18853524675265,2,c,0.7689205000001493,incorrect,n
333,2F4K,332,2,46.06153447843022,36.306319397502094,1.3030080838071134,40.42183645819548,1,v,1.1523090999999113,correct,v
334,2F4K,333,1,28.035968900678583,38.27274061590433,0.8956947573705568,42.16507317565896,1,c,3.6098934999999983,correct,c
335,2F4K,334,2,63.71908840423993,50.697091212054,1.881094924010268,53.242790711768855,1,v,0.8187432000004264,correct,v
336,2F4K,335,1,66.14106536117298,49.57874173911553,1.978259877748836,52.25922344480799,2,c,0.7211239999996906,incorrect,n
337,2F4K,336,1,37.33135444364122,52.20181191673888,1.086690144464856,54.55606404901855,1,n,0.7575001999998676,incorrect,c
338,2F4K,337,2,47.33759043718192,31.012964536867223,1.3380459987085938,35.823769441295816,1,b,1.0851832999996986,incorrect,v
339,2F4K,338,1,44.02503343407134,23.29028603179375,1.2489805435581938,29.51701727056729,2,n,0.7757212000001346,correct,n
340,2F4K,339,1,44.82164835476885,61.05474066775572,1.2698423958258025,61.93988859874207,1,c,5.0,correct,c
341,2F4K,340,2,42.732862576384505,54.77431004264223,1.2158673808585505,56.76873700269083,2,b,0.6179026999998314,correct,b
342,2F4K,341,2,43.30379564258837,48.23175415645297,1.230388453226269,51.06746695426917,2,b,1.091302999999698,correct,b
343,2F4K,342,1,44.59290120850259,26.73603469982761,1.26381652612896,32.25811655229225,2,n,0.6239966000002823,correct,n
344,2F4K,343,1,58.18014651735976,41.83690821306688,1.6764441201821412,45.35052609194218,2,c,0.7091671000002862,incorrect,n
345,2F4K,344,1,32.609735400291434,47.55494079931167,0.9850658413691568,50.46617789326386,1,n,0.7939478999996936,incorrect,c
346,2F4K,345,2,51.905021938083486,44.89604184699431,1.4713603894484004,48.09240513904825,1,b,2.5666999000000033,incorrect,v
347,2F4K,346,2,30.661867234657592,44.8111356440246,0.9459632335754512,48.01638540292104,2,v,1.1541459999998551,incorrect,b
348,2F4K,347,2,52.22854064574694,37.010077614802064,1.4812921634030327,41.04409695039024,1,v,1.1096974000001865,correct,v
349,2F4K,348,1,48.2439208366429,66.32285066671594,1.363502764292939,65.94226705059607,1,n,0.7392838000000665,incorrect,c
350,2F4K,349,2,73.49520889443264,57.31482149959904,2.305143024815873,58.90480859782248,1,b,1.4797035999999935,incorrect,v
351,2F4K,350,1,54.58938441084378,40.37569279773588,1.5558268742436776,44.04189287766304,2,c,0.8303431000003911,incorrect,n
352,2F4K,351,1,36.442360643593226,50.81669322573951,1.0667860165903202,53.3476210982015,1,c,0.9274308999997629,correct,c
353,2F4K,352,2,42.345780522078414,58.86568158311105,1.206119969753176,60.18056069022862,2,v,1.2066423000001123,incorrect,b
354,2F4K,353,2,42.84103705231828,63.7689019249536,1.218605461728884,64.04585237583825,2,b,0.6305081000000428,correct,b
355,2F4K,354,1,38.141485786056585,48.37797041439688,1.1051518203226998,51.19716528436894,1,n,1.0428947999998854,incorrect,c
356,2F4K,355,1,63.714390776815584,51.53323162854043,1.880911179325564,53.97409321127041,2,n,0.8728172000000995,correct,n
357,2F4K,356,1,59.50546233430529,48.11469222002973,1.723288049788034,50.96357584695005,2,n,0.5755072000001746,correct,n
358,2F4K,357,2,66.58563294838497,58.28024247458697,1.9966327401938608,59.70168125104305,1,v,1.2187254999998913,correct,v
359,2F4K,358,2,48.17772256779483,68.87079879215247,1.361627119955875,67.74324334470397,2,v,2.0766712999998163,incorrect,b
360,2F4K,359,2,42.71898422706016,57.46932864937582,1.215516541690589,59.03292439412621,2,b,1.0381800999998632,correct,b
361,2F4K,360,2,48.69203011320588,55.8128330044666,1.3762674950652771,57.64839554106268,2,b,1.6071543000002748,correct,b
362,2F4K,361,2,26.416814182518085,48.52379914574758,0.866039315525263,51.32644399673755,2,v,0.7953271999999743,incorrect,b
363,2F4K,362,2,48.76053786923068,35.242164780948755,1.3782294936555477,39.48495623330599,1,b,1.4129637000000912,incorrect,v
364,2F4K,363,1,61.48613533305172,71.60844650001155,1.7957469435575222,69.5680849267883,1,n,1.8191311000000496,incorrect,c
365,2F4K,364,2,34.87483386425493,47.27224998538978,1.0325738847835315,50.21460889443432,2,v,0.7636893000003511,incorrect,b
366,2F4K,365,1,58.81631003171943,48.084164807625946,1.698768545422279,50.93647543487656,2,c,1.4129542999999103,incorrect,n
367,2F4K,366,1,46.38735698362812,67.71954078877071,1.3118663141728328,66.94126514425886,1,c,0.9086297999997441,correct,c
368,2F4K,367,2,42.592048043206624,60.55584771052043,1.2123123390126131,61.54345818403152,2,b,0.9395690000001196,correct,b
369,2F4K,368,2,36.19927952527655,26.58535348856207,1.0614073069848728,32.135582469506225,1,v,0.6179141000002346,correct,v
370,2F4K,369,1,68.5323751520165,54.36725439891276,2.0791174438963016,56.42168501649185,2,c,0.4963991999998143,incorrect,n
371,2F4K,370,1,70.53655189110484,59.57717388692295,2.167597001826352,60.7579261220808,2,n,0.6422029999998813,correct,n
372,2F4K,371,2,37.19133155102269,50.06317979372128,1.0835306370691682,52.68599429644701,2,b,0.4722480999998879,correct,b
373,2F4K,372,1,69.9300599680322,48.69138838864816,2.140431697593657,51.47491748737911,2,n,0.06712419999985286,correct,n
374,2F4K,373,2,58.73690089073428,42.13323333931852,1.6959657402769783,45.61614618726408,1,v,0.7150319000002128,correct,v
375,2F4K,374,2,57.09907996678004,40.46502302833202,1.6391778549570848,44.121817134502045,1,v,0.38122370000019146,correct,v
376,2F4K,375,1,30.261354617382462,39.76794556195907,0.9381175654107542,43.49850209112857,1,c,0.8546157999999195,correct,c
377,2F4K,376,1,44.87731587184992,35.24897172790399,1.27131318280892,39.49093225723272,2,c,1.0427918000000318,incorrect,n
378,2F4K,377,1,40.18438600215471,53.344581238084935,1.153111147582296,55.54450373652188,1,n,0.4602239000000736,incorrect,c
379,2F4K,378,1,41.96191181780152,60.36307511632142,1.1965306512481864,61.38954280468531,1,c,1.1401371000001745,correct,c
380,2F4K,379,1,56.833220362196165,47.0998641457348,1.630140835324834,50.061088377502784,2,c,0.5207679000000098,incorrect,n
381,2F4K,380,2,45.6457873190972,56.36906221125984,1.2917918466542853,58.115945163480326,2,v,1.255155299999842,incorrect,b
382,2F4K,381,2,46.068233252767705,29.64221510456054,1.3031896016918814,34.66374318229973,1,b,1.1392620999999963,incorrect,v
383,2F4K,382,1,56.004285928018135,44.735847602548304,1.6022825496327475,47.94896952457657,2,n,0.599713999999949,correct,n
384,2F4K,383,2,56.46172417759528,39.67045184070277,1.6175964378118872,43.41139728469364,1,v,0.6482945000002474,correct,v
385,2F4K,384,1,54.53618060083672,41.25216092416891,1.5541065492398003,44.82655633517324,2,n,1.1640996999999516,correct,n
386,2F4K,385,1,29.240060826911563,44.829975248717496,0.9184046328842888,48.03325401555788,1,n,0.4481343000002198,incorrect,c
387,2F4K,386,2,35.150213275227934,23.53862787236992,1.038503730236571,29.710083221216923,1,v,0.4540268000000651,correct,v
388,2F4K,387,1,32.12171068312785,43.74360358965943,0.9751197600403362,47.059935324647,1,c,1.2126898000001347,correct,c
389,2F4K,388,2,46.79468001173474,59.25475788910607,1.3230250707798108,60.49693059268976,2,b,1.0245377999999619,correct,b
390,2F4K,389,2,39.52833958915172,54.350727638366855,1.1374871028139495,56.407568549314064,2,b,1.0427270000000135,correct,b
391,2F4K,390,2,70.85157302546102,57.1717920810521,2.1818428459187675,58.786016515106674,1,v,0.9104264999996303,correct,v
392,2F4K,391,2,46.41966175228925,32.23519013802857,1.3127478679494802,36.87007263340798,1,b,1.5525141999996777,incorrect,v
393,2F4K,392,2,59.84258320816572,41.74905953840464,1.735411141143624,45.27179064173539,1,v,0.7820190000002185,correct,v
394,2F4K,393,2,74.72210206674166,64.15349015331459,2.3647096636708964,64.33693695819929,1,v,0.5694286000002649,correct,v
395,2F4K,394,1,56.07013337890727,39.470512273413306,1.6044779925538697,43.23282522950842,2,c,0.9995745999999599,incorrect,n
396,2F4K,395,1,52.583935954637454,36.50579637300652,1.4922798152506265,40.5980106693448,2,n,0.3690477000000101,correct,n
397,2F4K,396,1,48.67347162106685,29.17626369943017,1.375736478024048,34.272918067991306,2,n,0.8426306000001205,correct,n
398,2F4K,397,2,61.120245443340266,52.23003593148001,1.7821359085516064,54.58057435004507,1,v,0.8546187999995709,correct,v
399,2F4K,398,1,42.5978589554575,34.4557987353119,1.2124588370470144,38.79615955907983,2,n,0.9820458000003782,correct,n
400,2F4K,399,2,44.31375304367427,62.10126094095261,1.2565016722846531,62.76230629890642,2,b,0.8783713000002535,correct,b
401,2F4K,400,1,45.857509739235766,59.00375294014373,1.2974916841930504,60.29300573868802,1,n,1.1155696000000717,incorrect,c
