,condition,trial,sub_task,x,y,xt,yt,cat,resp,rt,acc,correct_resp
0,2F4K,1,1,66.88407511578771,53.40262627811812,2.0090622324174463,54.958578580476136,2,c,3.192623200000071,incorrect,n
1,2F4K,2,1,42.283984695947794,62.69320080987068,1.2045710912209413,62.43017855845192,1,c,2.104917099999966,correct,c
2,2F4K,3,1,46.2290495457379,31.34250194475481,1.307554867853384,35.86679871526734,2,c,1.230980000000045,incorrect,n
3,2F4K,4,2,40.08310717520909,52.71202712648591,1.1506852117475466,54.37465943456797,2,v,1.8392688000001272,incorrect,b
4,2F4K,5,2,29.52319366094305,42.54779162799839,0.9238277641563776,45.54803223014067,2,v,2.342350500000066,incorrect,b
5,2F4K,6,1,45.88426348772651,62.393005490279855,1.2982137166984535,62.20242288566935,1,n,2.3804130999999416,incorrect,c
6,2F4K,7,1,47.2915774365554,56.710159072454,1.336766350590735,57.708152530189146,1,n,0.9702301999998326,incorrect,c
7,2F4K,8,2,63.3739561749705,39.91943784639148,1.8676429676834043,43.24216398124914,1,b,1.0321338999999625,incorrect,v
8,2F4K,9,1,43.35467401365927,30.241504698085343,1.23169087581532,34.95015367083213,2,c,1.558303700000124,incorrect,n
9,2F4K,10,1,76.14168588606526,57.8700404350499,2.435555023500399,58.65129813727286,2,c,1.0686092999999346,incorrect,n
10,2F4K,11,2,51.81903379287298,63.61585531549382,1.4687318400699012,63.12342230020771,2,b,0.49930280000012317,correct,b
11,2F4K,12,2,50.35681939845025,68.6899748798117,1.4247458416554166,66.73721272191416,2,b,1.5405362999999852,correct,b
12,2F4K,13,1,36.696390506513374,48.07128725030421,1.0724361196299548,50.38446545121346,1,n,1.2370370999999523,incorrect,c
13,2F4K,14,1,60.857952632541085,47.67154080544568,1.7724421970105753,50.03654527918782,2,c,2.5105089999999564,incorrect,n
14,2F4K,15,2,48.11750790590536,35.87968076087742,1.3599232545211288,39.72713904931243,1,b,1.0147724000000835,incorrect,v
15,2F4K,16,2,41.13500685737503,25.80120613341705,1.1761321789246844,31.35763921450721,1,v,0.624261499999875,correct,v
16,2F4K,17,2,67.80941827615416,55.51961051814186,2.048094875938006,56.7281095614771,1,v,0.534512100000029,correct,v
17,2F4K,18,2,34.24715665143154,50.6289581170609,1.0191841167665727,52.59636504991131,2,b,0.8972206999999344,correct,b
18,2F4K,19,2,63.58000887894065,53.39332248110581,1.875662511111968,54.95073242083761,1,v,0.45436399999994137,correct,v
19,2F4K,20,2,53.65854694226778,38.20630834395527,1.5260015295976723,41.745434769456665,1,v,1.1035673000001225,correct,v
20,2F4K,21,2,51.31870076446908,66.75032670174768,1.4535301760924315,65.39752350730811,2,v,0.6498027000000093,incorrect,b
21,2F4K,22,1,49.0507125649752,42.32764539532346,1.3865708893039672,45.35468501301207,2,c,1.2617342999999437,incorrect,n
22,2F4K,23,1,60.23409754724623,73.71779012878793,1.7495973331095442,69.94258850601003,1,n,0.9760587999999188,incorrect,c
23,2F4K,24,1,26.307383509493537,40.98035984187297,0.8640708429930479,44.172015078373896,1,c,1.6558251000001292,correct,c
24,2F4K,25,1,67.19209084850543,48.820831487754944,2.0219715884080296,51.03538091179755,2,n,0.7394153000000188,correct,n
25,2F4K,26,1,61.07078674637778,52.11411452617568,1.780303986890637,53.866724888459935,2,n,0.5899365999998736,correct,n
26,2F4K,27,2,60.3046325237104,46.26674035583731,1.7521654091893497,48.81027966402528,1,v,0.8911499999999251,correct,v
27,2F4K,28,2,28.60958036138277,45.18363045443351,0.9064424999562086,47.861818219062144,2,b,0.7505847999998423,correct,b
28,2F4K,29,2,58.739810955291794,71.24024814950421,1.6960683715118945,68.41330335188783,2,v,0.9275589000001219,incorrect,b
29,2F4K,30,2,45.16575318264938,69.4810560240247,1.2789612867087776,67.26778054410048,2,v,2.098823799999991,incorrect,b
30,2F4K,31,2,58.05354221480186,39.54137464049686,1.672036413227174,42.91127590969016,1,v,2.821728699999994,correct,v
31,2F4K,32,1,53.826781538004056,38.38794246134052,1.53134935069176,41.90377098687548,2,c,0.8900427999999465,incorrect,n
32,2F4K,33,1,52.98213183168693,35.13072122334241,1.50468756465841,39.08212320554457,2,c,0.7091002999998182,incorrect,n
33,2F4K,34,2,54.245317136333,36.45112285450766,1.544735160322244,40.220947724056295,1,v,0.7879613999998583,correct,v
34,2F4K,35,1,51.67381074166356,46.087129870173385,1.4643032120805075,48.6531515059163,2,n,0.5951705999998467,correct,n
35,2F4K,36,1,40.86187747176369,30.03091473772028,1.169471192360847,34.77588194580623,2,n,0.8304614999999558,correct,n
36,2F4K,37,1,62.809992301684446,45.30704966771945,1.8458684875344684,47.96999688058894,2,n,0.655850300000111,correct,n
37,2F4K,38,1,46.94354456583306,53.537579514142,1.3271269083107389,55.07232413443101,1,c,1.4312764999999672,correct,c
38,2F4K,39,2,51.28529030644462,67.2491315577212,1.4525206853442227,65.74718267245187,2,v,0.8972320000000309,incorrect,b
39,2F4K,40,1,55.32038530535519,37.65207559047559,1.5796572490058074,41.26290877126922,2,n,4.186870900000031,correct,n
40,2F4K,41,1,48.508194832722246,25.33119492215045,1.3710164155343834,30.988480876171234,2,c,5.0,correct,n
41,2F4K,42,2,50.29146224091359,41.48944758637162,1.4228108362335774,44.61873048917506,1,v,1.7589904000001297,correct,v
42,2F4K,43,2,72.48797595057783,59.39460010803133,2.257364323293629,59.871958993245975,1,v,1.3635079999999107,correct,v
43,2F4K,44,1,36.16087038809184,47.91794091694457,1.0605599041408451,50.25106026095232,1,n,0.592803899999808,incorrect,c
44,2F4K,45,1,62.354967159074704,58.074447442707125,1.828485282900423,58.81624874612714,2,c,0.6437289999998939,incorrect,n
45,2F4K,46,1,64.48325672453079,44.32143009794667,1.911225094542864,47.10552671045114,2,n,0.7954408000000512,correct,n
46,2F4K,47,2,43.88387373330204,56.33853171534928,1.2453197446416917,57.403489546082,2,b,0.7931427000000895,correct,b
47,2F4K,48,2,44.93342565422866,60.89261573473481,1.272797378737883,61.0485379165036,2,v,1.0138785999999982,incorrect,b
48,2F4K,49,2,43.87769972870687,32.57978589510006,1.2451598747576471,36.90724652911391,1,v,0.9822205999998914,correct,v
49,2F4K,50,2,39.87553897268232,62.4036552224901,1.1457292591333783,62.21052091349188,2,v,0.7165188999999828,incorrect,b
50,2F4K,51,2,46.30445193555368,59.493165619,1.3096066548283332,59.95009118081151,2,b,1.0550006999999368,correct,b
51,2F4K,52,1,57.63880206946486,41.59452267056727,1.6576783080606523,44.71096277051557,2,n,1.3282738999998855,correct,n
52,2F4K,53,1,48.62151164101079,56.95064803523924,1.3742508285868311,57.904679419205614,1,c,1.0007474999999886,correct,c
53,2F4K,54,1,73.85767482034359,57.3785156823389,2.3225831462154383,58.25308317197725,2,n,0.44351690000007693,correct,n
54,2F4K,55,2,46.57899181958358,35.69784499385927,1.3171044452322034,39.57030241125086,1,b,0.9154364000000896,incorrect,v
55,2F4K,56,1,41.49881661601343,50.38831705963338,1.1850636088003206,52.38945862665254,1,c,3.8844923000001472,correct,c
56,2F4K,57,2,35.50707555863417,52.174455490380936,1.0462388637956033,53.91808166484903,2,b,1.0480342000000746,correct,b
57,2F4K,58,1,40.90961427031854,57.1446091741526,1.170632654626975,58.06281792612379,1,n,0.7893627999999353,incorrect,c
58,2F4K,59,2,66.64503629322614,53.85402530514957,1.999100620339703,55.33856189318002,1,v,1.2492780000000039,correct,v
59,2F4K,60,1,29.09830638370078,43.2344176271771,0.9157014368960072,46.15110374132161,1,c,1.7408230000000913,correct,c
60,2F4K,61,1,36.80130919630612,58.32943805195311,1.074778432195007,59.02147107917652,1,c,2.6403276000000915,correct,c
61,2F4K,62,2,53.237228071264106,70.84826661626205,1.51269050330941,68.16224386843848,2,v,1.5106341000000612,incorrect,b
62,2F4K,63,2,57.20841384489492,73.48309569120238,1.6429088213070524,69.80207086286565,2,b,1.425207399999863,correct,b
63,2F4K,64,2,50.43393197164395,68.31234360538971,1.427032269781229,66.4806557631193,2,b,1.8089047999999366,correct,b
64,2F4K,65,2,60.92203754028562,41.33038861551008,1.7748057424952364,44.479130979521216,1,b,0.9665030999999544,incorrect,v
65,2F4K,66,1,52.99008087942416,43.38692534027973,1.5049363037515855,46.28504492497899,2,n,0.8975966999998946,correct,n
66,2F4K,67,2,40.28079456215802,52.83974969798955,1.1554251770402542,54.482879892637904,2,v,1.0491366000001108,incorrect,b
67,2F4K,68,1,40.25033902287955,33.82697944414667,1.154693671999348,37.965981397596494,2,n,1.1219111999998859,correct,n
68,2F4K,69,1,58.83039128301682,43.76023837766665,1.699266037031817,46.61287264419487,2,c,0.7394427000001542,incorrect,n
69,2F4K,70,1,39.45459804078013,45.49041813302216,1.1357442026305522,48.1306778242708,1,n,1.2066692999999304,incorrect,c
70,2F4K,71,2,66.3223208999598,51.809784492541,1.9857302123161344,53.6073872481712,1,b,1.08679230000007,incorrect,v
71,2F4K,72,1,58.22620262395756,70.39719517923804,1.6780504362366586,67.87034418804336,1,c,0.8550686999999471,correct,c
72,2F4K,73,2,63.93020606994993,53.97732736654906,1.8893712129188784,55.44211557116152,1,v,0.7333803999999873,correct,v
73,2F4K,74,2,53.33684549005184,63.640906555645614,1.515827268253388,63.14209978519541,2,v,0.6193149000000631,incorrect,b
74,2F4K,75,2,50.13753213107097,68.8818464713647,1.418263861081775,66.8667590330553,2,b,0.7750094000000445,correct,b
75,2F4K,76,2,61.340928532504506,44.37917170979443,1.7903328806330698,47.156201704116334,1,v,0.856118300000162,correct,v
76,2F4K,77,1,28.11826600528002,47.9612666310191,0.8972288902064097,50.28875963198199,1,n,0.8548048000000108,incorrect,c
77,2F4K,78,2,78.16769417478012,61.94968491163897,2.540356242842965,61.86415076694365,1,v,0.9821597000000111,correct,v
78,2F4K,79,2,46.372530640171405,52.46529769599512,1.311461921380078,54.16531947737228,2,b,0.7758612000000085,correct,b
79,2F4K,80,2,50.461343519393154,35.44697507106336,1.4278459201940243,39.35416827123859,1,v,0.788149699999849,correct,v
80,2F4K,81,2,73.63698189335084,56.269148057223305,2.3119488132554453,57.34647981358546,1,v,1.6496465000000171,correct,v
81,2F4K,82,1,39.237280907400006,53.49917677429884,1.1306233733559663,55.03996862619742,1,c,1.2188999999998487,correct,c
82,2F4K,83,1,44.42990201168865,57.92309339454489,1.2595401056226885,58.69414759719824,1,c,1.6740524999997888,correct,c
83,2F4K,84,1,78.0558387300527,60.76547709566698,2.5344543205329866,60.9496056733864,2,n,1.9423702999999932,correct,n
84,2F4K,85,2,64.55177877516107,50.61084816626733,1.913950294358764,52.58080362074928,1,v,0.6301918999999998,correct,v
85,2F4K,86,1,42.44736794654059,55.09034847103887,1.208670532237303,56.3719637287102,1,n,0.6535380000000259,incorrect,c
86,2F4K,87,2,52.25408070976086,37.946069680170446,1.482079072837944,41.51874669197987,1,b,1.2249345000000176,incorrect,v
87,2F4K,88,2,61.13381790459197,50.60919819028763,1.7826389542439105,52.57938575790482,1,v,0.9168034999997872,correct,v
88,2F4K,89,2,78.52083442440394,57.21142844459912,2.5590796172485435,58.11721983859342,1,v,0.6726284999999734,correct,v
89,2F4K,90,2,39.06921066427689,50.50865182970352,1.1266788292934662,52.4929589572516,2,b,0.8183340999999018,correct,b
90,2F4K,91,2,53.49358016723947,69.76776904783584,1.5207757211956845,67.45774235373345,2,b,5.0,correct,b
91,2F4K,92,2,46.23254944384106,24.860957424826346,1.3076500329826215,30.62149690845157,1,b,0.9338975999999093,incorrect,v
92,2F4K,93,2,46.70067082155614,61.66156183625206,1.3204412601734052,61.64308709701636,2,b,0.8304703999999674,correct,b
93,2F4K,94,2,62.83133631709734,43.75378823130923,1.8466879328533563,46.60720898179046,1,v,0.6426188000000366,correct,v
94,2F4K,95,2,66.42927899770295,57.63544949248057,1.990151651778536,58.46151518607417,1,v,0.7090783000001011,correct,v
95,2F4K,96,1,63.49954885322239,48.12016045469685,1.8725269279869712,50.42696699969895,2,c,0.8985290000000532,incorrect,n
96,2F4K,97,1,42.26355038385451,30.13587518210801,1.2040593541167517,34.862697223103176,2,n,0.5451966000000539,correct,n
97,2F4K,98,2,54.18053264983564,40.07853486870283,1.542655562901765,43.38149028534375,1,b,0.8082393999998203,incorrect,v
98,2F4K,99,2,35.90856781805946,48.48751003670263,1.0550102638738237,50.74616523347335,2,b,0.4669045999999071,correct,b
99,2F4K,100,2,58.57283498398522,40.81035563435975,1.6901895497088877,44.02290403654665,1,v,0.4859532999998919,correct,v
100,2F4K,101,1,61.64250094942827,72.04844206820519,1.801595374487332,68.92319651203015,1,n,1.357425800000101,incorrect,c
101,2F4K,102,1,33.20896014514941,46.836416598089286,0.9974170737673084,49.30816918623904,1,n,0.842610200000081,incorrect,c
102,2F4K,103,2,41.46549565029378,60.35715739495457,1.1842427744793391,60.63069343225352,2,b,3.2351800999999796,correct,b
103,2F4K,104,1,56.943028036585645,61.79303934856488,1.633867329627831,61.74408129470221,1,c,0.6846848999998656,correct,c
104,2F4K,105,1,52.203929573153125,38.31441213403922,1.4805342722157722,41.83966081069009,2,c,0.716582500000186,incorrect,n
105,2F4K,106,2,66.5915110467951,51.71688703180515,1.996876806764664,53.52811933833234,1,v,0.6692533999998886,correct,v
106,2F4K,107,2,26.61528662000476,38.58082822068407,0.8696209480716885,42.07201773875927,2,b,0.5577215000000706,correct,b
107,2F4K,108,1,36.22454642859121,48.3145589969274,1.06196512804125,50.59594215313697,1,c,0.4009196999998039,correct,c
108,2F4K,109,1,46.93567365131909,38.93967445558393,1.3269097138095003,42.38529000588869,2,c,1.1281082999998944,incorrect,n
109,2F4K,110,2,52.49126294335238,33.19150289828627,1.489406840147925,37.42535327292419,1,v,1.8186848999998801,correct,v
110,2F4K,111,1,60.00906426230464,51.80896010235931,1.7414293307715238,53.60668402183139,2,n,1.4737163000002056,correct,n
111,2F4K,112,2,61.35587504153226,42.80105561005502,1.7908894095876644,45.77047703555444,1,v,0.8425988000001325,correct,v
112,2F4K,113,2,48.82388836754384,66.81442364276923,1.3800462821797552,65.44265032227986,2,b,1.0054967999999462,correct,b
113,2F4K,114,2,63.765112909300576,56.81291034383258,1.8828960927132643,57.79218158601376,1,v,0.7711501999999655,correct,v
114,2F4K,115,1,37.90712617420184,49.46041912494272,1.0997791075967924,51.58914499200454,1,n,0.7893370000001596,incorrect,c
115,2F4K,116,2,61.395279876719954,75.05843437779744,1.7923574666686173,70.72732101821966,2,v,0.5512996000002204,incorrect,b
116,2F4K,117,1,34.28338031862491,56.68446338919936,1.019952106393525,57.68712469068156,1,n,0.7883575000000747,incorrect,c
117,2F4K,118,2,33.86984046037658,50.53632703698016,1.0112188162442466,52.51675266554882,2,v,1.5283729999996467,incorrect,b
118,2F4K,119,1,45.840824859624426,63.20089797595347,1.2970415945302116,62.81291914578152,1,c,1.030780600000071,correct,c
119,2F4K,120,1,59.60812254790939,44.4497790635676,1.7269707841601174,47.21816349579821,2,n,0.9644444000000476,correct,n
120,2F4K,121,2,41.11200167754401,52.61697184972673,1.1755696762315817,54.29405285486536,2,b,2.2685538999999153,correct,b
121,2F4K,122,1,55.11931680743644,64.856760331483,1.5730663293782194,64.03911243279379,1,c,1.0791392000000997,correct,c
122,2F4K,123,2,58.06033882322053,63.19504046041583,1.6722727413395526,62.808521035644766,2,v,0.7879304999996748,incorrect,b
123,2F4K,124,2,39.76220998583755,48.147567582836274,1.1430324010377766,50.45079755426482,2,b,1.4677249000001211,correct,b
124,2F4K,125,2,44.47742012415418,62.65690376660177,1.2607852866100004,62.40269693740492,2,b,1.2795547000000624,correct,b
125,2F4K,126,2,63.60428544723645,51.02232272894428,1.876609616557563,52.93397126119541,1,v,0.5455732999998872,correct,v
126,2F4K,127,2,63.27993657294731,48.11808182358552,1.8639951383647344,50.42515952348387,1,v,0.8015104000000974,correct,v
127,2F4K,128,2,41.05361919950828,55.598560307832415,1.1741433659303335,56.79345560799224,2,b,0.7335400000001755,correct,b
128,2F4K,129,1,49.360933155773736,34.3790047195606,1.3955443704154618,38.43747686063586,2,c,1.0199720999999045,incorrect,n
129,2F4K,130,1,48.90338667619788,38.31743836942093,1.3823295522104837,41.84229904251647,2,n,1.328097600000092,correct,n
130,2F4K,131,2,47.35588779441628,65.26615017157535,1.3385551991249511,64.3368661475384,2,b,0.8061928000001899,correct,b
131,2F4K,132,1,64.19380213845648,51.796246461119175,1.8997559077056836,53.59583847068792,2,n,1.783231600000363,correct,n
132,2F4K,133,2,43.00563995604481,51.89173587577555,1.2227836768499762,53.67727479990724,2,b,0.9592947999999524,correct,b
133,2F4K,134,1,51.95314746124318,35.963167845712846,1.4728335787832616,39.79919712441097,2,c,1.6557794999998805,incorrect,n
134,2F4K,135,2,55.66426198037882,63.08553391615706,1.5909934094137204,62.72622152369543,2,v,0.9700418999996145,incorrect,b
135,2F4K,136,1,41.97384713389303,53.39772404611897,1.1968276525574022,54.95444445828666,1,n,2.329464399999779,incorrect,c
136,2F4K,137,1,50.529162793904014,64.96081261206199,1.4298609778220144,64.11499865452771,1,n,1.3341737999999168,incorrect,c
137,2F4K,138,2,67.60801874840172,49.19899061856548,2.0395354203561524,51.36299317603444,1,v,0.7758427999997366,correct,v
138,2F4K,139,2,46.757289164945206,34.27321141178434,1.3219967910733643,38.34698780171819,1,b,0.8667280000004212,incorrect,v
139,2F4K,140,2,66.95845456949402,54.49396699444711,2.012172007573248,55.874849159568726,1,v,0.698283199999878,correct,v
140,2F4K,141,1,50.37616591471233,56.37973435440893,1.425319131498849,57.43732509647679,1,c,0.9154071000002659,correct,c
141,2F4K,142,2,59.49156331266418,45.22696184455323,1.7227900535472038,47.89980140907774,1,v,0.7391463000003569,correct,v
142,2F4K,143,2,59.61260557302066,39.94432617522059,1.7271317831387234,43.26395643284529,1,v,2.4886756000000787,correct,v
143,2F4K,144,1,33.94608237029522,50.08661391624824,1.0128232800964536,52.12966316429745,1,n,0.7638265000000501,incorrect,c
144,2F4K,145,2,45.12949986259251,57.45882093795475,1.2779974838502672,58.31829296459037,2,b,0.9943323000002238,correct,b
145,2F4K,146,1,44.72033235953312,34.85573752911084,1.2671698993184255,38.84597390374145,2,c,4.333558799999992,incorrect,n
146,2F4K,147,1,43.55032474771693,52.45407020938039,1.236712146945209,54.15578462075744,1,n,1.3220590000000811,incorrect,c
147,2F4K,148,1,52.4961569361938,43.59178234334166,1.4895584213993929,46.464949595251824,2,c,0.4932459999999992,incorrect,n
148,2F4K,149,1,55.99158238211847,42.67450449346988,1.6018593420712046,45.65932473577225,2,n,0.7686241999999766,correct,n
149,2F4K,150,1,53.45193805990477,38.19692287814509,1.5194594160888115,41.7372557680242,2,n,1.316348199999993,correct,n
150,2F4K,151,1,57.67575483909787,43.64667268402802,1.6589525762273905,46.51315099269453,2,n,0.6982920000000377,correct,n
151,2F4K,152,1,57.96813915238154,41.11667602055704,1.669069667573127,44.291603296581705,2,n,0.5330727999998999,correct,n
152,2F4K,153,2,44.69665247296683,60.58621484728698,1.2665460865490208,60.809816017095,2,b,0.9152783999998064,correct,b
153,2F4K,154,2,46.20237598131074,61.00622789644204,1.3068298190251295,61.13679530455602,2,b,1.6619024999999965,correct,b
154,2F4K,155,1,46.5551965853823,36.2681264134012,1.3164528926457315,40.06266301853441,2,n,0.8601014999999279,correct,n
155,2F4K,156,2,49.48383975352919,63.61854567296495,1.399115623747558,63.12542852559237,2,b,0.6314444000004187,correct,b
156,2F4K,157,1,38.90977106411182,33.31599530660953,1.1229495637925395,37.53107680532971,2,n,0.734793599999648,correct,n
157,2F4K,158,1,39.90985207821814,28.55176389210422,1.1465470527083117,33.56207427730673,2,n,0.6487495999999737,correct,n
158,2F4K,159,1,58.74394535064878,38.227005391685,1.696214192737556,41.76347220959979,2,c,1.971627399999761,incorrect,n
159,2F4K,160,2,41.82071101660509,31.52752597401465,1.1930225648891168,36.02171722478069,1,b,1.0550305000001572,incorrect,v
160,2F4K,161,1,49.356843466127735,67.00116807120936,1.3954256945929897,65.57379855084152,1,c,4.357692099999895,correct,c
161,2F4K,162,1,34.48281914139886,50.83630726961553,1.0241908491849636,52.77441974000699,1,n,0.9700551000000814,incorrect,c
162,2F4K,163,1,45.76283418540049,34.30743237902886,1.294939795541327,38.37625173314313,2,c,1.2309927999999672,incorrect,n
163,2F4K,164,1,35.59090782215274,55.62184850129774,1.0480643029097756,56.81272164566845,1,n,0.8596076999997422,incorrect,c
164,2F4K,165,2,45.99970658815302,62.42380799485719,1.301333915552871,62.22584138548834,2,v,1.9497636000000966,incorrect,b
165,2F4K,166,1,56.49697330258197,46.01020991088878,1.618782546299555,48.58583940696599,2,c,2.251053399999819,incorrect,n
166,2F4K,167,1,21.852202798157982,37.35030215684227,0.7876169606872755,41.00059724777405,1,c,1.8804014000002098,correct,c
167,2F4K,168,2,65.97433485541886,52.23066018888918,1.971413001468045,53.96589889157951,1,v,0.7690483999999742,correct,v
168,2F4K,169,2,42.10114021045786,55.276804855351934,1.1999998340438929,56.526835828120255,2,b,0.4616512000002331,correct,b
169,2F4K,170,2,40.460603589553656,28.07844740521581,1.1597534257278657,33.17764977265412,1,b,1.111011800000142,incorrect,v
170,2F4K,171,1,59.95964352796241,41.60416763479423,1.739640626157403,44.71942933352472,2,n,0.7272944000001189,correct,n
171,2F4K,172,2,32.97294380810055,54.39538178474319,0.9925339211739864,55.79242169868602,2,b,0.8488320999999814,correct,b
172,2F4K,173,1,45.53823630451207,62.12784372314635,1.2889060334527334,62.00036741205216,1,c,2.1842133000000103,correct,c
173,2F4K,174,2,49.081934674495805,40.68478650397305,1.387471406532608,43.91279102164877,1,v,2.1110059000002366,correct,v
174,2F4K,175,2,51.814730603287394,62.95956394051874,1.4686004204293035,62.63136964537369,2,v,1.7217335000000276,incorrect,b
175,2F4K,176,2,68.41809606226721,50.25401393810764,2.0741825639576343,52.273863012659234,1,v,0.6969411000000036,correct,v
176,2F4K,177,1,29.255407109679133,43.94582664717676,0.9186977581643484,46.77582073673841,1,n,0.8440384000000449,incorrect,c
177,2F4K,178,1,33.740837858523015,45.490099613368486,1.0085098228064624,48.130398761474886,1,c,1.4009022999998706,correct,c
178,2F4K,179,2,66.09659376523473,46.74124037911093,1.976431306108216,49.22504019336586,1,v,0.7578774999997222,correct,v
179,2F4K,180,1,64.93192611087689,49.50104848970399,1.92913991713948,51.6242666172266,2,n,1.5176587000000836,correct,n
180,2F4K,181,2,62.34876214973156,48.988630954924886,1.828249369502141,51.1808198631548,1,v,0.6969687000000704,correct,v
181,2F4K,182,1,36.65185312321508,56.18509806115737,1.0714433653800444,57.27736586219082,1,c,0.7821309999999357,correct,c
182,2F4K,183,1,32.98185314131335,51.82862032364556,0.9927178193858336,53.62345366247306,1,c,1.299148900000091,correct,c
183,2F4K,184,2,55.77114258311184,43.38910317895553,1.5945333558774348,46.28695757884057,1,v,0.599696700000095,correct,v
184,2F4K,185,1,56.2195092509745,44.18424833682742,1.609469544647733,46.98512152535696,2,c,1.0987185000003592,incorrect,n
185,2F4K,186,1,60.223933081173485,54.04611024910688,1.749227570070068,55.4998362555048,2,n,0.9214694000002055,correct,n
186,2F4K,187,2,51.54682602329517,67.50270825080212,1.4604417131050158,65.92359115525039,2,v,1.5405353999999534,incorrect,b
187,2F4K,188,2,47.27461329536311,36.73451495469371,1.336294876859392,40.46633656902592,1,b,0.9896303000000444,incorrect,v
188,2F4K,189,1,44.089787594683806,62.66676765685947,1.2506634597693975,62.410166743761565,1,n,3.5335094000001845,incorrect,c
189,2F4K,190,2,52.06017106134751,35.20350864829599,1.4761150099445388,39.14469336670948,1,v,1.0988163000001805,correct,v
190,2F4K,191,1,50.90637394125674,34.18717748381405,1.441120745756923,38.273444165907634,2,c,2.0881133999996564,incorrect,n
191,2F4K,192,2,70.69854173651963,63.40556182941306,2.1749108292866977,62.96632827646596,1,v,0.7516742000002523,correct,v
192,2F4K,193,1,25.43927774654522,41.86958520821449,0.8486127927575,44.95244581217343,1,n,0.674023699999907,incorrect,c
193,2F4K,194,2,55.77035758415064,39.133198079235335,1.5945073275739534,42.55437037655203,1,v,1.7956927000000178,correct,v
194,2F4K,195,1,51.58940360643052,42.5077144052712,1.4617353256580876,45.51283281215373,2,n,2.1002220999998826,correct,n
195,2F4K,196,2,58.90251199773931,42.86731305252577,1.7018163519611529,45.82867254113318,1,v,0.4366450999996232,correct,v
196,2F4K,197,1,72.89019906265747,56.77195210855221,2.276324085181688,57.758697180390485,2,n,1.5467236999998022,correct,n
197,2F4K,198,1,59.17835175246325,44.3371265124217,1.7116058945922454,47.119302455260616,2,n,0.5891338000001269,correct,n
198,2F4K,199,2,63.11617048483869,41.3197013138724,1.8576582479261172,44.46975202548754,1,v,0.6497979999999188,correct,v
199,2F4K,200,1,39.63013383670277,33.26969350261932,1.1398974308998922,37.49174472309736,2,c,0.6498128000002907,incorrect,n
200,2F4K,201,2,40.01851641138873,25.277065870215168,1.149140732617944,30.946116433675776,1,b,1.1521592000003693,incorrect,v
201,2F4K,202,2,57.775483365123286,53.90228439559195,1.6623964758452787,55.37910416852707,1,v,0.5344380000001365,correct,v
202,2F4K,203,1,55.49818560143402,65.34646602310167,1.5855084518768454,64.39502217247274,1,c,1.4630220000003646,correct,c
203,2F4K,204,1,51.04379112413457,32.891673855497324,1.4452446519246265,37.17111489517682,2,n,1.87461280000025,correct,n
204,2F4K,205,1,51.65048803538004,47.63344384264254,1.463593223496763,50.00336146303509,2,c,0.8728430000001026,incorrect,n
205,2F4K,206,2,71.80822170730751,59.287538581452864,2.2256807234780878,59.78698102106003,1,v,0.5213282999998228,correct,v
206,2F4K,207,1,61.578817576237945,45.12079603292023,1.7992111754643605,47.80673426016543,2,n,1.0610923999997794,correct,n
207,2F4K,208,1,54.53050761933767,45.9149916556934,1.553923227800721,48.50249824916498,2,n,0.6729887000001327,correct,n
208,2F4K,209,2,53.23551224494337,32.204811453335644,1.5126365320721584,36.59083409629191,1,v,0.473792499999945,correct,v
209,2F4K,210,2,44.37129786452233,60.95447092428425,1.2580061158311562,61.09660644190391,2,b,0.4896496000001207,correct,b
210,2F4K,211,1,42.94945747804076,64.34784674082151,1.2213559551042086,63.66594050402109,1,c,4.303274100000181,correct,c
211,2F4K,212,1,38.18504912983106,29.684895732403746,1.1061534025035606,34.49030563832288,2,c,1.588214599999901,incorrect,n
212,2F4K,213,1,53.61836783997562,37.67119414429354,1.5247270863523428,41.2795375355586,2,c,0.7155178000002707,incorrect,n
213,2F4K,214,1,24.176206058920044,44.89856058072038,0.8266142741296673,47.61186654432016,1,n,3.0530785000000833,incorrect,c
214,2F4K,215,1,38.54991894971892,58.06616353535743,1.114577989331844,58.809571426516975,1,c,0.8234950999999455,correct,c
215,2F4K,216,2,36.97906551071016,44.02757110516514,1.078758528608842,46.8475857602527,2,b,1.3892708999997012,correct,b
216,2F4K,217,2,57.19270257075187,70.493989839863,1.6423721595572858,67.9332506605803,2,v,0.4845186000002286,incorrect,b
217,2F4K,218,1,48.93337612528086,70.48954753291743,1.3831918598209172,67.93036682093991,1,n,2.864926700000069,incorrect,c
218,2F4K,219,1,33.174284543452856,57.534922823894725,0.9966981365718334,58.380036024989415,1,c,1.0369184000001042,correct,c
219,2F4K,220,1,48.13060606870743,39.34271965003618,1.3602937054137436,42.73752755201341,2,n,0.8426259000002574,correct,n
220,2F4K,221,2,72.56354406442877,60.44978117541866,2.2609143222382424,60.70319260098493,1,v,3.2666768999997657,correct,v
221,2F4K,222,2,69.7646266778169,47.15065120822135,2.133081073643972,49.58246344893739,1,v,1.212817300000097,correct,v
222,2F4K,223,2,56.54412541874275,71.82170848685936,1.620370542093415,68.78121052062089,2,v,0.9336325999997825,incorrect,b
223,2F4K,224,2,23.063970321671427,42.51432346309841,0.8077154886065193,45.518637457124605,2,b,0.9835542000000714,correct,b
224,2F4K,225,2,60.95241374672966,76.67710366669337,1.7759271623632875,71.63321913752102,2,v,1.1035941999998613,incorrect,b
225,2F4K,226,1,51.06134426784537,65.38956566018074,1.445772273149707,64.42619504852094,1,n,2.3407031000001552,incorrect,c
226,2F4K,227,1,34.7286994294423,54.42583234510271,1.0294408824286063,55.81788900816342,1,c,0.7641782999999123,correct,c
227,2F4K,228,1,32.9663011697956,47.274631238048514,0.9923968321496944,49.69061239516869,1,c,0.8985804000003554,correct,c
228,2F4K,229,1,46.56068233903425,62.72069187406496,1.3166030729952265,62.45098247861999,1,n,0.6241264999998748,incorrect,c
229,2F4K,230,2,44.04969001477437,60.64319778310247,1.2496210840353543,60.85428922235381,2,b,0.9154450999999426,correct,b
230,2F4K,231,2,51.41155950802396,62.79312890186996,1.456339571949805,62.505756251915024,2,v,0.5101146999995763,incorrect,b
231,2F4K,232,1,28.707525079698197,36.10618367768652,0.9082905355718708,39.922704945755086,1,c,3.2762614999996913,correct,c
232,2F4K,233,1,53.80453933515748,45.89401342798342,1.5306412445488542,48.48413436899917,2,n,1.5647589999998672,correct,n
233,2F4K,234,1,51.74458500520943,61.82572694473117,1.4664598275027203,61.76915965076429,1,n,0.8486745999998675,incorrect,c
234,2F4K,235,1,26.227059216971217,35.083392398912565,0.8626287929705463,39.041451800175146,1,c,0.739672199999859,correct,c
235,2F4K,236,2,50.60176382617882,56.03298644435952,1.4320212635333325,57.15213721919752,2,v,1.1632869999998547,incorrect,b
236,2F4K,237,1,36.23685002220316,48.90479197857836,1.062236862369952,51.108166493025934,1,n,0.8973455000000286,incorrect,c
237,2F4K,238,1,51.3987177349358,58.51262339521449,1.4559507270806042,59.168522609810495,1,n,0.8790318999999727,incorrect,c
238,2F4K,239,2,38.56178758257936,31.42000219634341,1.114853102556396,35.931659123187224,1,b,1.5223533000003044,incorrect,v
239,2F4K,240,2,70.70647067037523,56.15594307295157,2.1752694528072016,57.253378210897225,1,v,0.8430622999999287,correct,v
240,2F4K,241,1,58.97397177453649,48.971431607583696,1.704347070091332,51.16591742087648,2,c,2.561273799999981,incorrect,n
241,2F4K,242,1,56.6708628931584,38.868845614398126,1.624646550061167,42.32343028804569,2,n,0.7211926999998468,correct,n
242,2F4K,243,1,46.49706536158083,62.53693613350769,1.3148625194675532,62.31175461784606,1,c,0.7567008999999416,correct,c
243,2F4K,244,1,60.7278738097293,46.73252803692033,1.7676543731738923,49.21742952106249,2,n,1.3355350000001636,correct,n
244,2F4K,245,2,49.79353994925297,65.00102707541711,1.4081550525432998,64.1442895804124,2,b,1.6740500000000793,correct,b
245,2F4K,246,1,70.11571909335714,58.11992347359077,2.148711176305863,58.852893688937606,2,c,0.5708805000003849,incorrect,n
246,2F4K,247,2,53.4647232556123,67.63837579833917,1.5198634342922115,66.01759592694773,2,v,3.6478117999999995,incorrect,b
247,2F4K,248,1,69.49273727186466,56.24746251749199,2.121055127922425,57.32865348413982,2,n,1.5708403999997245,correct,n
248,2F4K,249,1,55.4045779104496,42.0001430371555,1.5824252341263625,45.06708261770188,2,c,1.4616292999999132,incorrect,n
249,2F4K,250,2,49.49034009075552,36.64478094745258,1.3993047559857583,40.38860173730773,1,v,0.8125202000001082,correct,v
250,2F4K,251,1,42.45979253994308,52.46181604358652,1.2089828473060864,54.16236279199615,1,n,0.9339462999996613,incorrect,c
251,2F4K,252,1,78.32829381713378,57.811073248997,2.548854136548937,58.60364144685423,2,n,0.47378600000001825,correct,n
252,2F4K,253,1,53.77932605957067,68.9582611044041,1.5298389468365303,66.91819940342013,1,c,0.6619042000002082,correct,c
253,2F4K,254,1,74.30959253371589,66.10105445945698,2.344512183206344,64.93720666845087,2,n,0.8668882000001759,correct,n
254,2F4K,255,1,29.69193816698068,48.44935517310876,0.9270751175107332,50.71303344126103,1,c,0.7117084999999861,correct,c
255,2F4K,256,2,62.433747986712106,43.39388259601864,1.8314831646852603,46.29115502392866,1,v,0.7081628000000819,correct,v
256,2F4K,257,2,50.9965224092914,67.75679754815482,1.4438247823293426,66.09943524188967,2,v,2.050220199999785,incorrect,b
257,2F4K,258,2,48.32573114504699,31.988363553913707,1.3658243259966918,36.4086140404752,1,b,1.3463353000001916,incorrect,v
258,2F4K,259,2,36.71656617276091,57.33596774400442,1.0728861451462204,58.218509833622825,2,v,0.8509441000001061,incorrect,b
259,2F4K,260,1,43.381459700684125,55.66754707700503,1.232377109741674,56.85051503236656,1,n,1.9653519999997116,incorrect,c
260,2F4K,261,1,37.016033088605575,60.00042424554376,1.0795881097880562,60.35062089488617,1,c,1.449471700000231,correct,c
261,2F4K,262,2,24.061746381028325,37.65775500442443,0.8246491707561088,41.26784843555776,2,b,1.0786129000002802,correct,b
262,2F4K,263,1,46.84338915740431,54.17860376067265,1.3243658129344569,55.610927918707496,1,n,1.2020995999996558,incorrect,c
263,2F4K,264,1,33.382368121617496,54.985729009266144,1.0010201697770005,56.28495000948028,1,c,0.7763972000002468,correct,c
264,2F4K,265,2,30.425956553434588,48.690557940001966,0.9413340567508628,50.922393974848646,2,b,0.7408771000000343,correct,b
265,2F4K,266,1,36.55335272082186,29.5782137782493,1.069251018641493,34.402454751448445,2,c,2.2944947999999386,incorrect,n
266,2F4K,267,2,49.75583677984528,35.94370956202672,1.407051470012076,39.78239987131384,1,v,0.914176000000225,correct,v
267,2F4K,268,1,33.05819133413977,50.96342960462161,0.994294919106444,52.88347574375514,1,c,1.6815209999999752,correct,c
268,2F4K,269,1,26.294472497783296,45.44323647220155,0.863838891034623,48.08933899102309,1,c,0.9765346999997746,correct,c
269,2F4K,270,1,49.452536943108754,61.37586160125952,1.3982052026473917,61.42295309693521,1,n,0.5587610000002314,incorrect,c
270,2F4K,271,1,70.21773023372528,52.813258058261816,2.153273993491964,54.46044162996642,2,n,1.0732127999999648,correct,n
271,2F4K,272,2,48.40883362429454,63.22975840936856,1.3681866030911358,62.834582885629565,2,v,1.3513809000000947,incorrect,b
272,2F4K,273,1,61.66956824266137,48.24199312930463,1.802609685237872,50.53288143624807,2,n,0.9943878000003679,correct,n
273,2F4K,274,2,42.17400583208609,60.37731164135984,1.201819449590122,60.64647648752242,2,b,0.7151556000003438,correct,b
274,2F4K,275,1,33.91941364414951,52.39115019227083,1.012261763952569,54.10233627690851,1,c,2.4704416999998102,correct,c
275,2F4K,276,1,42.624659161971046,55.96297383102391,1.213134722159042,57.09443449991499,1,c,0.8972453000001224,correct,c
276,2F4K,277,2,63.24165897370067,74.68497928647649,1.8625120625484404,70.51181716999109,2,v,1.4608454000003803,incorrect,b
277,2F4K,278,1,53.79314557583727,41.04306012204713,1.5302786379346234,44.22701847841232,2,n,0.8850650999997924,correct,n
278,2F4K,279,1,35.69770760309371,47.95114049074478,1.0503944715069766,50.27994902853156,1,c,0.6798655999996299,correct,c
279,2F4K,280,2,64.88622906897714,52.61984373208878,1.927307635605822,54.29648901400192,1,v,0.5101739000001544,correct,v
280,2F4K,281,2,39.56927458285122,62.40832430711063,1.138455765962375,62.21407085336941,2,b,1.6509219999998095,correct,b
281,2F4K,282,2,53.48766562226539,68.61956361828067,1.5205886932436992,66.68953597161942,2,v,0.6656007000001409,incorrect,b
282,2F4K,283,1,61.214377148323386,52.14772236174037,1.7856277022597091,53.89533145812077,2,c,0.9579317000002447,incorrect,n
283,2F4K,284,2,51.721603426195,39.24899059975188,1.4657591906405216,42.65558012610243,1,v,0.4980387000000519,correct,v
284,2F4K,285,2,38.83913831325292,50.69589837108443,1.121301423459439,52.65387118577109,2,b,1.4191749000001437,correct,b
285,2F4K,286,2,43.89919771897712,57.46922760082667,1.2457166331492884,58.32673918761141,2,v,1.1108917999999903,incorrect,b
286,2F4K,287,1,39.94143409229066,19.70759179259429,1.147300271307638,26.769728536668005,2,c,1.5103336000001946,incorrect,n
287,2F4K,288,2,63.671650033611975,47.765482681304654,1.8792402268665385,50.11835304141694,1,v,0.5283595000000787,correct,v
288,2F4K,289,1,36.49947918398957,52.33431925659669,1.0680538408932538,54.05404005698753,1,c,1.487312899999779,correct,c
289,2F4K,290,2,46.92716846690996,61.88266841875227,1.3266750568606511,61.81281673859019,2,b,1.0185914000003322,correct,b
290,2F4K,291,2,32.44144154472579,43.418128561927865,0.9816245572165104,46.31244852669524,2,v,0.43131729999959134,incorrect,b
291,2F4K,292,2,38.30215636078424,28.340577457464832,1.1088503636290843,33.390302327260585,1,b,1.4919949999998607,incorrect,v
292,2F4K,293,1,62.59410365237076,44.26819480893302,1.8376004429293435,47.05880379182261,2,n,1.3766446999998152,correct,n
293,2F4K,294,1,32.42457709554704,47.86035963530485,0.9812803752251844,50.20094727929556,1,c,0.601225500000055,correct,c
294,2F4K,295,1,40.00789272217629,51.46404589844222,1.1488869000624145,53.31213236066653,1,n,1.9655321999998705,incorrect,c
295,2F4K,296,1,56.29909719225608,70.02925296173223,1.6121353975048367,67.62989247921278,1,n,0.7697589999997945,incorrect,c
296,2F4K,297,2,46.66970886101247,66.67526740249762,1.319591386345307,65.34460603635539,2,b,1.2005143000001226,correct,b
297,2F4K,298,1,47.33238003054458,60.3212511409716,1.3379010328104095,60.60256408150382,1,c,0.9289683000001787,correct,c
298,2F4K,299,1,32.89812694066866,46.88417240635272,0.9909909642330478,49.34987158464707,1,c,0.7507936000001791,correct,c
299,2F4K,300,1,38.34472135907263,49.49129840640204,1.109832257374368,51.6158388901906,1,c,0.9943412000002354,correct,c
300,2F4K,301,2,70.06065119904872,59.51424504113236,2.146252085329573,59.96678791485186,1,v,0.5706260000001748,correct,v
301,2F4K,302,1,66.11734600835292,49.50541661542619,1.977284381070996,51.62804218612381,2,n,1.1034334999999373,correct,n
302,2F4K,303,2,54.52193757177135,44.4377076948218,1.5536463291690603,47.20757056440844,1,v,0.41916870000022755,correct,v
303,2F4K,304,1,46.76674467931694,62.14361082283934,1.322256750142041,62.0124049508508,1,c,0.9518404999998893,correct,c
304,2F4K,305,1,50.09321360891907,62.4768133304063,1.416957422733913,62.26611414088087,1,n,1.115600600000107,incorrect,c
305,2F4K,306,1,56.00417374800434,44.19328099591007,1.6022788119640694,46.99305004530869,2,n,0.5940476999999191,correct,n
306,2F4K,307,2,62.84561995344801,52.40258855392265,1.8472365173255063,54.11205452702488,1,v,0.6194134000002123,correct,v
307,2F4K,308,2,49.20001552050292,62.25231929857521,1.390882420603009,62.09532088948093,2,v,1.0309488000002602,incorrect,b
308,2F4K,309,1,69.26500330032283,50.56007534087325,2.1110344160121124,52.53716727411683,2,n,1.2796118999999635,correct,n
309,2F4K,310,2,25.98362911557213,40.85667992204,0.8582732107836105,44.06353157518703,2,b,1.1525619999997616,correct,b
310,2F4K,311,1,57.90826043775714,47.433915931000456,1.6669927306927248,49.82949466156726,2,n,1.6194172000000435,correct,n
311,2F4K,312,2,47.81705973835041,43.27939528961858,1.3514534239429494,46.19060643257245,1,b,1.2976063000000977,incorrect,v
312,2F4K,313,1,38.2294423493302,52.07725223751887,1.107174998514162,53.83534062872841,1,c,0.9642809000001762,correct,c
313,2F4K,314,2,59.12998736287351,46.616756698924334,1.709885382095364,49.11627986076624,1,v,0.6049636000002465,correct,v
314,2F4K,315,2,70.58873810534959,56.6022146673203,2.169950515445694,57.61977929954031,1,v,0.6835129999999481,correct,v
315,2F4K,316,1,33.43877241560808,40.69033507966012,1.0021949494604017,43.91765618174342,1,n,1.1583903999999166,incorrect,c
316,2F4K,317,1,36.90948408825329,47.50689258250277,1.0771987961602965,49.89309949270981,1,c,0.5829030999998395,correct,c
317,2F4K,318,2,56.006845508082286,38.761172062615465,1.6023678333448117,42.22941589581313,1,v,1.0246617000002516,correct,v
318,2F4K,319,1,67.25969568896058,51.04781603455628,2.024816081339234,52.955823944286,2,n,0.7286196000000018,correct,n
319,2F4K,320,2,46.57063564108343,54.602360420494605,1.3168756026137036,55.96539599899848,2,b,0.890134599999783,correct,b
320,2F4K,321,2,46.83235626265544,65.83116051253873,1.32406200834188,64.74416282590057,2,b,2.7684627000003275,correct,b
321,2F4K,322,2,44.9875328289465,31.691589882334064,1.274230243447201,36.1592884199427,1,b,2.440102100000331,incorrect,v
322,2F4K,323,2,32.23000539000389,53.16140147039041,0.9773181310796052,54.75496384183843,2,b,0.7211645000002136,correct,b
323,2F4K,324,1,66.61951343907725,54.74465866013447,1.9980399135072968,56.084134822447695,2,n,2.0684817999999723,correct,n
324,2F4K,325,2,56.77593172964068,32.81226841743544,1.6282000314963012,37.10387674473796,1,v,0.8126079000003301,correct,v
325,2F4K,326,2,43.033582287693086,27.962793919883943,1.2234943749750222,33.08402407694939,1,b,0.3948405000001003,incorrect,v
326,2F4K,327,2,61.88434942258085,51.12065956027385,1.8106785945508803,53.01824642074735,1,v,0.680192000000261,correct,v
327,2F4K,328,1,45.63378067842104,32.30440296773201,1.2914693638555608,36.67478186707869,2,c,2.1102749000001495,incorrect,n
328,2F4K,329,2,48.17166663774413,36.25932802217086,1.361455661695202,40.05505623469448,1,v,4.2061625999999706,correct,v
329,2F4K,330,2,77.67940881831431,61.82279621524367,2.5146929678948595,61.76691165422417,1,v,0.6422911999998178,correct,v
330,2F4K,331,2,47.6740531715263,64.50488794565952,1.3474405252097288,63.78144954050372,2,b,1.1096585000000232,correct,b
331,2F4K,332,2,54.15040704346087,42.62134488542857,1.5416894776348544,45.61263410089267,1,v,0.8561095999998543,correct,v
332,2F4K,333,1,56.47048181598849,73.4550823029845,1.6178910450766193,69.78523668349467,1,n,1.0661760000002687,incorrect,c
333,2F4K,334,2,60.12157332528024,46.21204752689437,1.745508279125962,48.76244009829452,1,v,0.6778561999999511,correct,v
334,2F4K,335,2,26.793656408181395,37.89850055741727,0.8728524444530934,41.47733271819654,2,b,0.42521290000013323,correct,b
335,2F4K,336,2,56.14304558185935,38.43094568114888,1.6069124936445087,41.94127206464894,1,v,0.8971937999999682,correct,v
336,2F4K,337,2,51.72559923013714,65.76315198051248,1.4658809862283304,64.69536388305997,2,v,1.165682199999992,incorrect,b
337,2F4K,338,2,62.625662446632745,47.46189957291468,1.8388067578921925,49.85388642063328,1,v,0.7273316000000705,correct,v
338,2F4K,339,2,63.38990891183389,46.24411030051181,1.8682626196182728,48.790486037009146,1,v,0.7090808000002653,correct,v
339,2F4K,340,2,34.64460873481228,47.50805123461799,1.0276423576926677,49.89410922243631,2,b,1.4205395999997563,correct,b
340,2F4K,341,2,41.16053160542668,59.35133878520248,1.1767566029045031,59.837635059235744,2,b,1.0936907000000247,correct,b
341,2F4K,342,1,42.14032747384079,53.13922608202563,1.2009780839114097,54.736226935108775,1,n,1.2795806999997694,incorrect,c
342,2F4K,343,1,61.73811378234026,52.67079545945323,1.8051808929777733,54.33970192548202,2,n,0.4373599999998987,correct,n
343,2F4K,344,1,58.07791561320251,40.394245444835576,1.672884067188321,43.658097654277874,2,n,0.933606100000361,correct,n
344,2F4K,345,2,47.30195172547469,63.59740666968828,1.3370547586584007,63.10966255699751,2,v,1.3831319000000803,incorrect,b
345,2F4K,346,2,47.512707282710366,57.11977351145985,1.342927311705874,58.04258756450471,2,v,0.546586699999807,incorrect,b
346,2F4K,347,1,42.995338685782414,60.910538201044425,1.2225217737639742,61.062470018144,1,n,1.4675551999998788,incorrect,c
347,2F4K,348,2,61.56722468309191,44.26646685646116,1.7987774965145749,47.05728717988944,1,v,1.9713845999999648,correct,v
348,2F4K,349,2,46.05009218406296,61.432085260101786,1.3026980883880768,61.46634634727306,2,b,1.771859200000108,correct,b
349,2F4K,350,1,40.65079863338629,24.97657509328308,1.1643493268314755,30.711506334852256,2,c,2.9424411999998483,incorrect,n
350,2F4K,351,1,45.16326731881318,37.01489676327808,1.2788951762415846,40.70942447375676,2,n,1.0200102999997398,correct,n
351,2F4K,352,2,47.42233387710601,56.48186867959152,1.3404059691277277,57.52113636549021,2,v,0.6414991999999984,incorrect,b
352,2F4K,353,1,65.4421578281179,46.14720555352521,1.9497170024395063,48.705714888663344,2,n,1.5344728000000032,correct,n
353,2F4K,354,1,60.29214422454139,49.8076492235396,1.7517104538951618,51.88907829738146,2,n,1.097518100000343,correct,n
354,2F4K,355,1,38.71029338968309,46.37399156423811,1.118301192152343,48.90407293624524,1,c,0.9508740000001126,correct,c
355,2F4K,356,1,35.912546767598336,57.82003169225313,1.0550975589601643,58.61088363312032,1,c,1.1703372000001764,correct,c
356,2F4K,357,1,69.90378603978965,53.66655267046231,2.139262590041859,55.18091584383914,2,n,0.8182587000001149,correct,n
357,2F4K,358,1,45.31009288619386,33.726189768558115,1.2828058042372648,37.88007839125471,2,c,0.8304661000001943,incorrect,n
358,2F4K,359,1,41.44802211466695,53.52463764032389,1.1838125557128942,55.06142129880886,1,c,2.2870232000000215,correct,c
359,2F4K,360,2,44.4361532895049,32.30826337213266,1.259703845983886,36.6780372033124,1,v,0.5998470999998062,correct,v
360,2F4K,361,2,76.03493389838013,62.70368161420416,2.4301544648442728,62.438110989088656,1,v,0.9833337000000029,correct,v
361,2F4K,362,1,56.29758966320325,65.39677560094327,1.612084860777664,64.43140741147836,1,n,0.8061914999998407,incorrect,c
362,2F4K,363,2,48.77270327881821,59.16668256837627,1.3785781920310292,59.69091583796317,2,v,2.4157147000000805,incorrect,b
363,2F4K,364,1,39.50706817534914,48.92223043729995,1.1369840732539098,51.12328057594862,1,c,1.7165039000001343,correct,c
364,2F4K,365,1,52.92008260021164,39.76518516922853,1.5027473521312915,43.10712502347487,2,n,0.6423028999997769,correct,n
365,2F4K,366,1,38.32408425671445,57.277759825108994,1.1093560900443684,58.17118546220902,1,c,0.5354653999997936,correct,c
366,2F4K,367,1,43.512457272494174,53.88427466128195,1.2357387035234009,55.36397613384687,1,n,1.4848606000000473,incorrect,c
367,2F4K,368,1,72.84694221691575,59.854176787527976,2.274277450413362,60.2354164825693,2,n,0.8476538999998411,correct,n
368,2F4K,369,1,45.85111679808872,36.37136922628312,1.2973192103904567,40.15194710748001,2,c,0.8486744000001636,incorrect,n
369,2F4K,370,1,55.81237027675245,39.97708897577714,1.59590094469011,43.2926455879398,2,n,2.7072108000002117,correct,n
370,2F4K,371,2,53.07191853157836,69.7278789033636,1.507499533780026,67.43138819782588,2,v,0.8547376999999869,incorrect,b
371,2F4K,372,2,56.32414765267308,74.17033715526843,1.612975393201291,70.21091350465612,2,v,0.9325076000000081,incorrect,b
372,2F4K,373,1,49.402221124391765,39.778184856185966,1.3967430423251912,43.11850370124588,2,n,1.4981085999997958,correct,n
373,2F4K,374,1,44.51988268711163,56.427099122998015,1.261899031701919,57.47620343663863,1,c,0.661077899999782,correct,c
374,2F4K,375,2,49.31495455283231,54.700471248470215,1.3942107306438307,56.0472791914624,2,v,0.45557449999978417,incorrect,b
375,2F4K,376,1,33.23636589453023,51.34801957775158,0.9979856503265296,53.21290173843224,1,c,4.825186799999756,correct,c
376,2F4K,377,2,43.607242983939166,57.04147432847887,1.2381767630750975,57.97877201196384,2,v,0.5755115999995724,incorrect,b
377,2F4K,378,1,40.16776381507956,52.9230776820848,1.1527126451305278,54.55342956088065,1,n,1.71043120000013,incorrect,c
378,2F4K,379,1,63.05477656352238,44.20225776273252,1.8552881804123464,47.00092943662953,2,n,1.9531949000001987,correct,n
379,2F4K,380,2,40.22544963346308,51.19658860531166,1.15409620301905,53.08328364916549,2,b,1.0064655999999559,correct,b
380,2F4K,381,1,56.64283049065923,40.54951629086624,1.6236997912493207,43.79419536980319,2,c,0.41913270000031844,incorrect,n
381,2F4K,382,2,67.60128027432141,51.36672075735208,2.039249655312041,53.228900660215984,1,v,0.5952147000002697,correct,v
382,2F4K,383,2,42.598333550815134,61.80847485556568,1.212470802781113,61.75592513974716,2,b,0.7978347999996913,correct,b
383,2F4K,384,1,37.91585910353201,53.670017220240176,1.0999788413948035,55.18383135307448,1,c,1.1035581000001002,correct,c
384,2F4K,385,2,40.7437811385237,55.39689470662984,1.16660279371663,56.626441657914896,2,b,1.1824581999999282,correct,b
385,2F4K,386,1,33.06144582519809,39.69602254457509,0.9943622105297236,43.04659230684262,1,c,0.7651663999999982,correct,c
386,2F4K,387,2,45.23210888791959,63.73622258990108,1.2807272515155823,63.21309359402285,2,b,0.8061991999998099,correct,b
387,2F4K,388,1,37.65861823704805,25.888908271658508,1.094110572977513,31.42677821191605,2,n,1.9715707999998813,correct,n
388,2F4K,389,1,42.022595457071446,46.92086382603597,1.1980414833529078,49.38190814076264,1,n,0.5881552000000738,incorrect,c
389,2F4K,390,2,38.41135038688407,52.91046380872875,1.1113710086660649,54.54275282107885,2,b,1.2252384999997048,correct,b
390,2F4K,391,1,51.803724653690495,38.03867055408632,1.468264351635168,41.59938569497022,2,n,1.0138848999999936,correct,n
391,2F4K,392,1,55.09437391643133,47.584753417351386,1.5722506341597318,49.96094398021947,2,n,1.0125597999999627,correct,n
392,2F4K,393,2,56.73190867904176,51.31730515348176,1.626710204499469,53.186621398073456,1,v,1.0138996999999108,correct,v
393,2F4K,394,1,52.24490077341572,40.261772989864696,1.481796183675619,43.5420128299614,2,n,0.7218871000000036,correct,n
394,2F4K,395,2,67.66188351694109,47.38027597277322,2.041821156060168,49.78273341063245,1,v,0.6544487000001027,correct,v
395,2F4K,396,1,61.94170505039087,42.133826984458,1.812839437151668,45.184473921943344,2,n,0.9826029999999264,correct,n
396,2F4K,397,1,48.65580188708065,30.563152772982708,1.3752310815640405,35.2169987085028,2,c,1.1328059000002213,incorrect,n
397,2F4K,398,2,48.42425892499898,58.18847381204139,1.368625533169374,58.908095455913134,2,v,1.0735749999998916,incorrect,b
398,2F4K,399,2,31.39110733223501,43.84542059668304,0.9604172492605324,46.68766606004722,2,b,1.15211969999973,correct,b
399,2F4K,400,1,31.972885909103,49.13937863249149,0.972106698047694,51.311386410556096,1,c,1.6806335000001127,correct,c
