,condition,trial,sub_task,x,y,xt,yt,cat,resp,rt,acc,correct_resp
0,2F4K,1,1,54.15099398607418,44.19827546448133,1.5417082942679072,47.382697460920944,2,n,1.9655042999997931,correct,n
1,2F4K,2,1,53.979802476856754,63.05611181170132,1.536229835871613,63.31784057643405,1,n,1.9485356999998658,incorrect,c
2,2F4K,3,1,30.32968841343705,53.6740766516525,0.9394515417455552,55.691652227809534,1,n,2.791031999999859,incorrect,c
3,2F4K,4,2,58.333493331855465,77.31784712395608,1.6817984259688556,72.72761430275797,2,b,1.5176556999999775,correct,b
4,2F4K,5,2,52.73716442360133,69.44226029244251,1.4970422443356424,67.92175181154983,2,b,1.8431475999998383,correct,b
5,2F4K,6,1,56.21249186595235,42.13521085341256,1.609234704092672,45.54459630027916,2,n,3.420965600000045,correct,n
6,2F4K,7,1,58.81230528570632,37.88612614127845,1.6986270840647988,41.77136370773918,2,n,2.062459099999842,correct,n
7,2F4K,8,1,57.12625997747187,50.55238515341252,1.640104567738493,52.99631354339528,2,n,1.5343603000001167,correct,n
8,2F4K,9,1,50.18291673624978,59.61931600374528,1.419602974192924,60.62509083001485,1,n,1.8499825999999757,incorrect,c
9,2F4K,10,2,52.76360011756367,33.34259607354662,1.4978654168510284,37.80155961477433,1,b,3.230075199999874,incorrect,v
10,2F4K,11,2,57.92137631787886,51.575592653855175,1.667447443394499,53.88597668787902,1,b,2.15333099999998,incorrect,v
11,2F4K,12,2,35.54188927541295,54.84334423799957,1.0469965426467451,56.6850428122204,2,v,2.6707258999999794,incorrect,b
12,2F4K,13,1,25.059588728186405,39.95969652473048,0.8419390265615667,43.60856192045229,1,c,2.537262000000055,correct,c
13,2F4K,14,1,41.585112922048765,58.480267008961135,1.1871920924013009,59.70451687571788,1,n,3.9633850999998685,incorrect,c
14,2F4K,15,2,45.79628775201093,56.055246155768174,1.2958409303928011,57.70373064464185,2,v,3.338312099999939,incorrect,b
15,2F4K,16,2,32.974969656356784,47.10998330151591,0.9925757338663974,49.96933231384695,2,v,4.696586699999898,incorrect,b
16,2F4K,17,1,48.29748529112165,64.37382857507718,1.3650223364058742,64.31309975417419,1,n,1.0427632000000813,incorrect,c
17,2F4K,18,2,37.81039898185705,55.17672490956367,1.0975692511164432,56.96642547072485,2,b,4.034747199999856,correct,b
18,2F4K,19,1,46.491611244893214,60.56121753537212,1.3147134025700538,61.37621059997214,1,c,2.1538099000001694,correct,c
19,2F4K,20,1,54.94326675451512,63.3026434852714,1.567318085197103,63.505697664203865,1,n,1.614718099999891,incorrect,c
20,2F4K,21,1,45.77565027274392,54.91166098583425,1.2952849469288477,56.74277327992332,1,n,4.659352499999841,incorrect,c
21,2F4K,22,1,68.03792535525308,56.35923259247187,2.05784990722422,57.957383834360485,2,n,1.5282733999999891,correct,n
22,2F4K,23,2,39.03610950119808,29.28994727439733,1.1259035813096792,34.36413345306676,1,v,2.520087099999955,correct,v
23,2F4K,24,2,31.383320504300368,43.77418220639633,0.9602617486548822,47.00496337951674,2,v,2.8406305000000884,incorrect,b
24,2F4K,25,1,73.56809809074794,53.96936306102277,2.308639552114716,55.943445323041054,2,n,2.4644095999999536,correct,n
25,2F4K,26,1,51.03327432769579,66.46305849568982,1.4449286250127311,65.84456086622119,1,c,3.464270400000032,correct,c
26,2F4K,27,2,25.472367752460617,41.26154024549959,0.8491969134075125,44.7664625841895,2,b,4.0483524999999645,correct,b
27,2F4K,28,1,56.236303049341394,69.68522136019652,1.6100316972782305,68.08529526984097,1,n,1.825642499999958,incorrect,c
28,2F4K,29,2,48.26167817390739,54.79063740491305,1.3640063353566576,56.64047923345979,2,v,5.0,incorrect,b
29,2F4K,30,1,52.69843838839016,49.580217261491526,1.49583718355122,52.14625097336643,2,n,2.531058499999972,correct,n
30,2F4K,31,1,56.331216319008085,41.16177958779457,1.61321249991889,44.67765269783544,2,c,1.5675906000001305,incorrect,n
31,2F4K,32,1,55.59138735402616,46.2867140206099,1.5885842673125623,49.23963894526261,2,n,0.8902336000001014,correct,n
32,2F4K,33,1,61.19874328756197,72.88872819942168,1.785047294408621,70.15386450454496,1,n,0.8667430999998942,incorrect,c
33,2F4K,34,2,41.80566381279487,64.21891079941543,1.1926493291403606,64.19723443444433,2,b,5.0,incorrect,b
34,2F4K,35,1,58.35322076592843,42.80250565991821,1.682488475618038,46.139183503964254,2,n,1.3295078999999532,correct,n
35,2F4K,36,1,71.24205086692945,55.78237836927644,2.1996310028329367,57.47539056082561,2,n,1.3947861999999986,correct,n
36,2F4K,37,2,58.23904019373104,67.50746914073818,1.6784984511919678,66.587534457336,2,b,2.8945790000000216,correct,b
37,2F4K,38,2,54.539910018811455,46.48552257931936,1.554227076533799,49.41600062511445,1,b,3.267006199999969,incorrect,v
38,2F4K,39,1,41.30013780391442,53.59750144948322,1.180177725191811,55.62625774540825,1,c,2.5311369000000923,correct,c
39,2F4K,40,1,55.84676122862333,43.0646534627711,1.5970426450654107,46.372782897979256,2,c,2.43388949999985,incorrect,n
40,2F4K,41,1,75.88316933721771,53.74865295361667,2.4224973376706456,55.75530105194433,2,n,1.303755899999942,correct,n
41,2F4K,42,2,40.27327020398657,53.0185678352966,1.1552444080102906,55.13058225927452,2,b,3.301916399999982,correct,b
42,2F4K,43,1,40.16111931643454,22.22143833818524,1.1525533875961316,28.725624258101192,2,c,5.0,correct,n
43,2F4K,44,2,58.36816095405201,37.93524547723669,1.683011259685486,41.81474760330188,1,b,2.8647631000001184,incorrect,v
44,2F4K,45,2,54.74681595577757,66.66693449977711,1.5609285260035863,65.99081017732536,2,v,3.303357799999958,incorrect,b
45,2F4K,46,1,33.49496092509414,54.2875783786387,1.0033666056155317,56.21410317152801,1,c,3.8495838999999705,correct,c
46,2F4K,47,1,63.00064996286697,41.36605714920442,1.8532011707332587,44.85951757923486,2,n,0.945630200000096,correct,n
47,2F4K,48,1,61.333529695406426,50.75614688526765,1.7900574510653997,53.17391299518352,2,n,0.7150525000001835,correct,n
48,2F4K,49,2,57.42400853265238,43.94295467977842,1.6502907883785565,47.15530218804157,1,v,2.4400993000001563,correct,v
49,2F4K,50,1,54.340319819777264,71.4713023661771,1.547789839964529,69.25909372372155,1,n,2.2352513000000727,incorrect,c
50,2F4K,51,2,47.48908866791104,70.4582408713981,1.342267914654105,68.59952415391473,2,b,3.839642200000071,correct,b
51,2F4K,52,1,36.000542924134734,46.262201040336365,1.0570299741404454,49.21788751321368,1,c,4.8603764000001775,correct,c
52,2F4K,53,2,68.4041916518071,53.061272623224745,2.073582933766191,55.16722085323087,1,v,3.6416619999999966,correct,v
53,2F4K,54,2,52.26556696734886,46.97340045150358,1.4824331097212562,49.84839253550029,1,v,1.7287676999999348,correct,v
54,2F4K,55,2,77.16390115565805,58.57856527721035,2.4878802314949384,59.784470061942535,1,v,1.564956299999949,correct,v
55,2F4K,56,1,45.67547097153143,64.05759151100706,1.2925894567356686,64.07625330204763,1,c,4.775152899999966,correct,c
56,2F4K,57,1,40.353830885408726,29.115276279533507,1.1571813095317205,34.2188342423823,2,c,2.943862500000023,incorrect,n
57,2F4K,58,2,27.49789453190897,45.39399159211439,0.8857287392971439,48.44670880600562,2,b,4.544715300000007,correct,b
58,2F4K,59,2,59.48339369770328,48.189420980161685,1.7224974067530288,50.92321497988005,1,v,3.5993075999999746,correct,v
59,2F4K,60,2,30.36210392234299,44.11001290094605,0.940085003387664,47.30409437073301,2,b,1.3584177000000182,correct,b
60,2F4K,61,2,65.26781785238634,47.16465051890897,1.942661494412246,50.017724206121535,1,b,2.2337620999999217,incorrect,v
61,2F4K,62,2,46.42396103082838,60.77980164512901,1.3128652341467824,61.54915602091561,2,v,2.380882100000008,incorrect,b
62,2F4K,63,1,51.152443952429,69.32578199056347,1.4485136888880967,67.84302493722008,1,n,2.3499733000001015,incorrect,c
63,2F4K,64,2,39.8122349295236,28.849256986628284,1.1442220470967457,33.99805337568161,1,v,3.4642837000001236,correct,v
64,2F4K,65,2,35.78423821201676,48.81562654462289,1.0522862038373866,51.474807758708565,2,b,3.435376700000006,correct,b
65,2F4K,66,2,60.46486907585443,45.909536698685486,1.7580134063177637,48.90481214407344,1,v,1.9715995999999905,correct,v
66,2F4K,67,1,63.24635728722251,46.63485404716552,1.8626940364134263,49.54841115486733,2,n,1.940960700000005,correct,n
67,2F4K,68,2,37.89659050951413,24.65447990767507,1.0995381910948483,30.60581495161264,1,b,1.7831605999999738,incorrect,v
68,2F4K,69,2,49.28870360350806,68.23012148303926,1.3934498761309526,67.09239668753963,2,v,2.9620270000000346,incorrect,b
69,2F4K,70,1,38.38154836683455,25.33051825560378,1.110682488096588,31.140314982442785,2,c,3.7092276000000766,incorrect,n
70,2F4K,71,2,29.58716850330664,41.73663368573941,0.9250575680325812,45.189534122778426,2,b,4.349408600000061,correct,b
71,2F4K,72,2,35.36372027955822,53.403001186398114,1.0431246809943595,55.45997763831191,2,v,3.822304699999904,incorrect,b
72,2F4K,73,2,62.450909590637885,47.03422141918274,1.8321368745158,49.902253763345946,1,v,3.629629799999975,correct,v
73,2F4K,74,1,42.525092089856,54.25912820330421,1.2106255990355612,56.18993438815121,1,c,5.0,correct,c
74,2F4K,75,2,46.827082451905966,35.8720220482515,1.323916811968872,39.99993299385612,1,b,3.101642399999946,incorrect,v
75,2F4K,76,1,65.55953602030506,47.15298731030716,1.9544817054339212,50.0074005237905,2,n,1.6547866000000795,correct,n
76,2F4K,77,1,23.640865695944655,33.31818021625816,0.8174633586277135,37.7805117413115,1,c,1.388700100000051,correct,c
77,2F4K,78,1,50.79656976688346,57.50831973623228,1.4378339689343456,58.908996378434345,1,n,2.597880299999815,incorrect,c
78,2F4K,79,1,67.35460307769995,46.22309963127959,2.028816090092233,49.183188414995975,2,n,0.6087566000001061,correct,n
79,2F4K,80,2,71.06199944924941,56.80944959242143,2.191410841642788,58.33161189171739,1,v,1.7467796000000817,correct,v
80,2F4K,81,2,51.4467838925263,43.02937747246084,1.457406688469114,46.34134881141094,1,v,3.6961570000000847,correct,v
81,2F4K,82,1,46.19181627797043,60.58485987769527,1.3065428931017915,61.394941810662274,1,c,3.980091399999992,correct,c
82,2F4K,83,2,56.23102068477504,44.61547457067329,1.6098548551792429,47.754139698870695,1,v,2.2276564999999664,correct,v
83,2F4K,84,2,47.31144066656719,65.59574388063282,1.3373186082995605,65.21594988619303,2,v,2.342978599999924,incorrect,b
84,2F4K,85,2,50.104274205924426,38.9641226575862,1.4172833585076292,42.725124170614144,1,b,3.9436955999999554,incorrect,v
85,2F4K,86,1,56.26772209433413,46.083590503682565,1.6110839401709225,49.0593594993488,2,n,2.361197899999979,correct,n
86,2F4K,87,2,45.48514819599268,66.11379594866006,1.2874839485368104,65.59267039998664,2,b,3.675709999999981,correct,b
87,2F4K,88,1,40.42920967119915,56.44413930261339,1.1589965646806415,58.02809277048687,1,c,3.4475841999999375,correct,c
88,2F4K,89,2,64.04406442978913,45.46973278291789,1.8938498219996387,48.51404025489104,1,v,2.045910000000049,correct,v
89,2F4K,90,1,66.39381553631014,51.30477269910338,1.9886845714767607,53.65104147335975,2,n,1.7588995999999497,correct,n
90,2F4K,91,1,26.72843767629428,47.12428223583369,0.8716694970375592,49.98199064671474,1,c,2.6715487999999823,correct,c
91,2F4K,92,1,76.32454513067947,63.13270437124592,2.444833732105259,63.37628419963062,2,n,1.1124743999998827,correct,n
92,2F4K,93,2,44.464059330939314,27.83313129123475,1.260435051434711,33.16053636649646,1,b,3.7068828999999823,incorrect,v
93,2F4K,94,1,40.0796732379676,51.06827406343875,1.150603048027239,53.44555629406827,1,c,3.4293396999999004,correct,c
94,2F4K,95,2,60.29939278447908,50.64443547645227,1.7519745083524492,53.07657052408287,1,v,3.647775200000069,correct,v
95,2F4K,96,1,55.8596771631835,40.6228254189543,1.59747163528142,44.198063875305934,2,n,0.941090300000269,correct,n
96,2F4K,97,1,67.73033229719313,58.3798620503924,2.0447294563215213,59.62275326960462,2,n,2.9853586000003816,correct,n
97,2F4K,98,1,64.09821724766996,49.723592545821646,1.895983642390217,52.27188777005023,2,n,1.390221499999825,correct,n
98,2F4K,99,1,60.561628475897976,48.69729766993254,1.761554187191952,51.37068786308792,2,n,2.488593100000344,correct,n
99,2F4K,100,2,73.2690065411435,57.29539056402182,2.294325679185315,58.73354512388934,1,v,1.4432652999998936,correct,v
100,2F4K,101,1,42.19129014042721,30.84524988822701,1.2022514816720054,35.66898441120811,2,c,3.4475225000001046,incorrect,n
101,2F4K,102,1,51.18226563819911,39.97201555195094,1.449412226321265,43.61950627721664,2,n,1.8074271000000408,correct,n
102,2F4K,103,1,47.77040124110695,54.68793565908168,1.3501428308382493,56.55358497881876,1,c,3.271532600000228,correct,c
103,2F4K,104,2,51.62614042617746,31.973695765875934,1.4628524021425868,36.6273204719551,1,v,3.858696400000099,correct,v
104,2F4K,105,2,54.87359923779614,63.21762302524799,1.5650491627644354,63.440996705035786,2,v,1.255450699999983,incorrect,b
105,2F4K,106,1,46.14404817573862,52.9326767949412,1.3052457356385203,55.056856428834905,1,n,2.6047808000002988,incorrect,c
106,2F4K,107,1,56.4075273318633,43.38692370495973,1.6157744468901938,46.65994347608721,2,n,1.5404696000000513,correct,n
107,2F4K,108,1,57.08512612307375,38.348239158650834,1.6387022967929386,42.17981203265471,2,c,2.4218834999996943,incorrect,n
108,2F4K,109,1,66.51903267115812,52.746805779598,1.9938694897690052,54.89715028606601,2,n,0.8804012999999031,correct,n
109,2F4K,110,1,52.38188469645655,64.46035013327098,1.4860230983219498,64.37767547859586,1,n,1.9970502999999553,incorrect,c
110,2F4K,111,1,46.9929622199829,37.22256089760276,1.3284913797774744,41.18606533046025,2,c,1.4023511999998846,incorrect,n
111,2F4K,112,1,51.309851956264446,34.80325738453752,1.453262742724038,39.06697316280168,2,c,1.4130663999999342,incorrect,n
112,2F4K,113,1,44.69735631554493,52.42075308387107,1.266564623846812,54.61647382046572,1,n,1.3465241999997488,incorrect,c
113,2F4K,114,2,48.20030475626123,58.66809791519111,1.3622666676080075,59.8572113785027,2,b,4.441348800000014,correct,b
114,2F4K,115,1,55.06143266612214,61.16656489224821,1.57117402061982,61.853872884726485,1,n,1.2312009999996008,incorrect,c
115,2F4K,116,2,40.66006831965856,63.34020539166568,1.1645737857704128,63.5342539591606,2,v,3.4241548999998486,incorrect,b
116,2F4K,117,1,40.62225104549067,29.81435230750856,1.1636583387887427,34.80190445277023,2,c,2.658533499999976,incorrect,n
117,2F4K,118,1,47.93254914052848,65.9826954103232,1.3547028863942934,65.4976836105171,1,n,1.3462116999999125,incorrect,c
118,2F4K,119,1,48.44660772720043,64.84046135889918,1.369261722709395,64.66021699573943,1,n,1.661800200000016,incorrect,c
119,2F4K,120,2,48.08097320065112,62.34983325576778,1.3588904889210016,62.77556147071974,2,b,1.8620608999999604,correct,b
120,2F4K,121,2,24.237846423964367,41.24272091541533,0.8276744872685167,44.74970825831226,2,v,4.271148000000267,incorrect,b
121,2F4K,122,2,59.63125518710267,44.20745090995825,1.7278017082475614,47.390868365217415,1,v,1.6245969000001423,correct,v
122,2F4K,123,2,41.53971406963631,59.27145272017352,1.1860718613519452,60.345336873614656,2,v,1.8126074000001609,incorrect,b
123,2F4K,124,1,32.88476310473951,52.05998084890384,0.990715612887455,54.30515723390048,1,c,4.030918400000246,correct,c
124,2F4K,125,2,68.2805671592573,61.61486392887788,2.0682592218428533,62.204967548842205,1,v,2.397500100000343,correct,v
125,2F4K,126,2,34.963859117752776,50.5868836032418,1.0344871850094743,53.02639701213753,2,b,3.5263684000001376,correct,b
126,2F4K,127,1,74.68642620054729,53.99435152564013,2.362956033593386,55.9647252668732,2,n,1.2250574999998207,correct,n
127,2F4K,128,1,59.77958079064607,73.59327566450993,1.7331390703542684,70.58613210648271,1,n,1.4372784000001957,incorrect,c
128,2F4K,129,1,64.98908052308015,53.957623225523335,1.9314340486456767,55.93344627169861,2,n,1.485798799999884,correct,n
129,2F4K,130,2,47.09975914259367,60.72981046709182,1.3314449446923602,61.50964882914248,2,v,4.295703799999956,incorrect,b
130,2F4K,131,2,53.4883076390233,43.36812429933049,1.5206089937904934,46.64319293234875,1,v,4.367720900000222,correct,v
131,2F4K,132,1,57.04882946017838,40.41932954928208,1.6374659235698985,44.01708612568444,2,n,3.7873805999997785,correct,n
132,2F4K,133,2,48.505554066458615,42.680929599618494,1.3709411307155817,46.03084743149832,1,v,2.2808305999997174,correct,v
133,2F4K,134,2,54.3919342794152,37.74678376336384,1.5494519630274672,41.64833385350324,1,v,2.1669584999999643,correct,v
134,2F4K,135,2,30.446262623950297,51.31381088862214,0.9417316216845476,53.65888850753556,2,b,2.7617836999997962,correct,b
135,2F4K,136,2,66.97458972353012,47.97403704011184,2.012847247002452,50.7331762170502,1,b,2.3627222000000074,incorrect,v
136,2F4K,137,2,52.28869972426496,39.61117743567417,1.483146379256744,43.29905554680116,1,b,2.5007675000001655,incorrect,v
137,2F4K,138,2,40.23242207906864,55.38320766417939,1.1542635451700034,57.140271378080016,2,v,1.0457510000001093,incorrect,b
138,2F4K,139,1,32.14822891123474,50.26250752000209,0.9756576196374412,52.74330477082828,1,c,1.7588927000001604,correct,c
139,2F4K,140,1,62.204517878856336,79.53258664784902,1.8227737967220967,73.88191198518109,1,c,1.455458699999781,correct,c
140,2F4K,141,1,63.6078990894696,44.15725838892183,1.8767506370165417,47.34617011267476,2,n,2.1017283999999563,correct,n
141,2F4K,142,2,48.751230870265054,36.26072543795139,1.3779627857454932,40.34055114643806,1,b,1.715587599999708,incorrect,v
142,2F4K,143,1,58.52510064090685,45.27206471105164,1.6885126868178577,48.33830022855608,2,n,1.44330889999992,correct,n
143,2F4K,144,2,33.35699982353386,45.59252109747548,1.000492251944931,48.62317444643406,2,v,2.421855499999765,incorrect,b
144,2F4K,145,2,46.94169155540257,34.03138633510408,1.3270757720853612,38.39678877678776,1,v,2.7997505000003002,correct,v
145,2F4K,146,1,66.83912304084245,49.37844835039403,2.007185134683184,51.96929564603382,2,n,2.349015100000088,correct,n
146,2F4K,147,1,41.055842830259664,56.81252417049165,1.1741976585199083,58.33416150566562,1,c,3.7133812000001853,correct,c
147,2F4K,148,2,64.92041284213126,76.57685476468527,1.9286781137684563,72.32126215943624,2,b,3.3019208999999137,correct,b
148,2F4K,149,1,33.56658186578967,47.363297957669374,1.0048620484638977,50.19349822889091,1,c,2.3054253999998764,correct,c
149,2F4K,150,1,35.335969207077724,58.679956798097,1.0425229014707955,59.86684030153684,1,c,2.817863799999941,correct,c
150,2F4K,151,1,45.98942929181009,59.70470399013696,1.3010558367161378,60.693569612308806,1,n,1.3583604999998897,incorrect,c
151,2F4K,152,1,36.19558873710661,56.282436186835895,1.0613258494536986,57.89337641605963,1,c,1.1277303000001666,correct,c
152,2F4K,153,2,29.66669582133077,53.119115684628206,0.9265886236384424,55.21682849540869,2,v,2.5918335999999726,incorrect,b
153,2F4K,154,2,32.600711441264075,45.31675313984774,0.9848810131225938,48.378036696367374,2,v,1.2323848999999427,incorrect,b
154,2F4K,155,1,50.115667318537874,35.21897134448569,1.4176191713028194,39.42920795957763,2,n,1.5638472999999067,correct,n
155,2F4K,156,2,52.47137060950117,37.57506182869293,1.4887908752277028,41.49680283176247,1,v,2.724616999999853,correct,v
156,2F4K,157,2,64.72854637134643,48.582416067796245,1.920998498210637,51.26955112768773,1,b,1.9484973999997237,incorrect,v
157,2F4K,158,2,37.84389906112894,30.47452931971744,1.0983341002143112,35.35621234069212,1,v,1.303716599999916,correct,v
158,2F4K,159,2,62.08202955531612,52.02844860774684,1.8181369663270983,54.27791087190335,1,b,1.2309089000000313,incorrect,v
159,2F4K,160,1,34.29887878591761,45.193829769399485,1.0202808711314124,48.26872712453584,1,c,1.910575599999902,correct,c
160,2F4K,161,2,48.663950663718914,56.26637710479999,1.37546413290421,57.87998537862256,2,b,2.185023000000001,correct,b
161,2F4K,162,1,49.46750093068412,40.9900343388257,1.398640346186245,44.524785813132524,2,n,1.2066409999997632,correct,n
162,2F4K,163,2,55.719934332852894,69.704568707973,1.5928363277005613,68.09827927148073,2,b,0.87310830000024,correct,b
163,2F4K,164,2,56.20110037240452,33.947536059603976,1.6088535546075946,38.32418155600334,1,v,1.2068953999996666,correct,v
164,2F4K,165,1,41.08328890688611,23.49316157592208,1.1748679938886375,29.69964799290984,2,c,1.7346231999999873,incorrect,n
165,2F4K,166,2,59.67440369905216,48.49588919137106,1.7293526707115234,51.19334461233485,1,v,2.732311199999913,correct,v
166,2F4K,167,1,49.38986239547539,38.80937851613501,1.3963841358987852,42.588016326579925,2,n,2.4173148999998375,correct,n
167,2F4K,168,1,49.46745135807085,37.67166569267838,1.3986389044216463,41.58203600858023,2,n,2.5918133000000125,correct,n
168,2F4K,169,2,44.88852383636628,26.74639123619997,1.2716095134929302,32.27553464828575,1,b,1.5707640000000538,incorrect,v
169,2F4K,170,2,38.30789519413882,21.518826138468715,1.1089826969424363,28.19607558404411,1,v,2.640273900000011,correct,v
170,2F4K,171,2,41.61787267964336,22.67921816910053,1.1880011069355878,29.073973088304225,1,v,1.632941099999698,correct,v
171,2F4K,172,2,48.28721082969207,57.92800205578686,1.364730728598849,59.25359003446776,2,b,1.255292400000144,correct,b
172,2F4K,173,2,51.81375580138724,55.95570339165561,1.4685706515606851,57.6205025676802,2,b,1.006760299999769,correct,b
173,2F4K,174,2,66.31698642942264,49.64106232156625,1.9855099530475155,52.19957915328357,1,v,3.5750888000002305,correct,v
174,2F4K,175,2,39.58598462685987,47.620486421482994,1.1388514202951567,50.42090212867675,2,b,2.2262197000000015,correct,b
175,2F4K,176,2,46.195705391887,59.83700347359418,1.306648559915841,60.799520029206974,2,b,1.3282533999999941,correct,b
176,2F4K,177,2,56.82733146350864,42.35267064321558,1.6299412266853628,45.73834849111578,1,b,2.0016123999998854,incorrect,v
177,2F4K,178,1,61.74846635414824,45.54782792854077,1.8055695463521877,48.583454189927714,2,n,2.9741792000004352,correct,n
178,2F4K,179,2,43.52967906089876,50.48937718115866,1.2361813218381,52.94135401200174,2,v,1.940958000000137,incorrect,b
179,2F4K,180,2,27.092023394659133,35.192257495290164,0.8782847760743469,39.40590485588859,2,v,1.2789044000001013,incorrect,b
180,2F4K,181,1,55.60794554592673,67.76672421817484,1.5891313395226865,66.7695359411739,1,n,2.3794481999998425,incorrect,c
181,2F4K,182,1,37.85369957325901,52.565954941927146,1.098557959033296,54.74154928206265,1,c,1.0915413000002445,correct,c
182,2F4K,183,1,60.019718135306206,70.77670294574827,1.7418151716113228,68.80863420371476,1,n,1.7231541999999536,incorrect,c
183,2F4K,184,1,68.39722183664044,58.50267256345568,2.073282424467294,59.72274923382617,2,n,0.7453755999999885,correct,n
184,2F4K,185,1,45.10913844955891,65.04949485658248,1.277456489548748,64.81478450084636,1,c,2.573631000000205,correct,c
185,2F4K,186,1,33.89056217868138,46.19871799918813,1.0116546402967603,49.161550160213295,1,c,1.777488899999753,correct,c
186,2F4K,187,2,51.20113583758005,38.65351289003142,1.449981079691335,42.449977792611655,1,v,2.9691156999997474,correct,v
187,2F4K,188,1,58.25548104861465,44.3461425882295,1.679072390931912,47.51436667374522,2,n,1.941167200000109,correct,n
188,2F4K,189,1,63.473054695729445,50.08833518950587,1.871495579885048,52.59109275272323,2,n,1.0123977999996896,correct,n
189,2F4K,190,2,71.19583283448621,62.70671443970858,2.197518003681646,63.05032622564335,1,b,3.7751250999999684,incorrect,v
190,2F4K,191,1,44.38590851964207,53.93280589908922,1.2583883813566354,55.91230567563155,1,c,2.773881799999799,correct,c
191,2F4K,192,2,63.70256033082167,78.62187824348858,1.8804485185280608,73.4182940216263,2,b,2.4644062000002123,correct,b
192,2F4K,193,1,55.116203519182605,43.89684881170047,1.5729644939189502,47.11423394170823,2,n,3.7498679000000266,correct,n
193,2F4K,194,1,38.07824496019974,57.35724808265588,1.1036994389765804,58.7845574443242,1,c,1.3826340000000528,correct,c
194,2F4K,195,2,55.51288479510137,35.186956281570204,1.5859931542703607,39.401280900627846,1,v,3.773777699999755,correct,v
195,2F4K,196,2,44.60829035007741,63.92443371928669,1.2642210225018011,63.97614122816975,2,b,1.2553109000000404,correct,b
196,2F4K,197,2,49.21182089046635,65.65206502995086,1.3912239043540575,65.25708343285423,2,b,2.7617654000000584,correct,b
197,2F4K,198,1,61.72794770182593,47.52472359000485,1.8047993222194425,50.33625249035142,2,n,2.3248256999995647,correct,n
198,2F4K,199,2,39.94730120597072,47.31793395861007,1.1474402541501392,50.15336758594927,2,v,3.7267133000000285,incorrect,b
199,2F4K,200,1,39.72116817337829,25.083471797516573,1.142057307048041,30.944410114228926,2,c,3.210814300000038,incorrect,n
200,2F4K,201,1,41.47242798849389,46.16961745901966,1.184413500023001,49.13572228871279,1,n,1.8618560999998408,incorrect,c
201,2F4K,202,2,50.50205302510792,36.75221164312943,1.4290551468851318,40.7721459324506,1,v,3.4958709000002273,correct,v
202,2F4K,203,2,70.61667533199453,64.11407769272617,2.171211489039976,64.11865296322088,1,b,1.880278499999804,incorrect,v
203,2F4K,204,1,39.69183633342267,29.820931885291397,1.1413609347609768,34.80741155632176,2,n,5.0,incorrect,n
204,2F4K,205,2,41.67106517768924,64.86787135434685,1.1893158901702223,64.68051791971911,2,b,1.7858765999999378,correct,b
205,2F4K,206,1,46.1937963125166,59.68494924304744,1.3065966893633003,60.67773359421748,1,n,2.3619276000003993,incorrect,c
206,2F4K,207,2,49.96383987621108,42.31053739948644,1.4131505743943418,45.70080723319558,1,v,3.834449599999971,correct,v
207,2F4K,208,2,49.565802041477255,61.60133544103202,1.4015022507191757,62.194405933408376,2,b,1.3219138999997995,correct,b
208,2F4K,209,2,54.41655497366632,72.51705599937073,1.5502454436136957,69.92246045730236,2,b,1.2301995999996507,correct,b
209,2F4K,210,1,50.050356331681606,31.54348589590608,1.4156952041000013,36.26088062329053,2,n,2.4461731999999756,correct,n
210,2F4K,211,2,42.227339976352326,31.269951995688483,1.2031530696676405,36.0285782790362,1,v,1.6800148000002082,correct,v
211,2F4K,212,1,56.4096037857482,66.59721442289685,1.6158442153471564,65.9408625463237,1,n,1.818921699999919,incorrect,c
212,2F4K,213,1,48.95591092635109,57.10925453660468,1.383840172667695,58.57983575653564,1,c,2.0335049999998773,correct,c
213,2F4K,214,2,58.107291787951446,40.78483194911363,1.6739062779693632,44.34218619315564,1,v,2.4475252000002,correct,v
214,2F4K,215,2,57.50950553088226,43.10674879927454,1.6532273841761955,46.4102934165166,1,v,1.2564683999999033,correct,v
215,2F4K,216,1,38.44312238077002,51.05952920222608,1.112105511917053,53.43795252942523,1,c,2.031975700000203,correct,c
216,2F4K,217,2,50.056131875462015,62.96890738416481,1.415865237968735,63.25121212425152,2,b,3.6396835999998984,correct,b
217,2F4K,218,1,51.92312145976957,66.04045362176055,1.4719142680716009,65.53956059011324,1,n,1.8923758000000817,incorrect,c
218,2F4K,219,2,48.49591456867687,38.1508410970631,1.3706663562297965,42.00525826258172,1,v,2.901329600000281,correct,v
219,2F4K,220,2,57.10050687088543,42.97617140919741,1.6392264927685072,46.29393716181208,1,v,1.1125722000001588,correct,v
220,2F4K,221,2,62.50243728047497,50.52775071878704,1.8341010396374784,52.97482814885068,1,v,1.0063261000000239,correct,v
221,2F4K,222,2,59.70036221620565,48.58276118783107,1.7302864137666392,51.26985502930084,1,v,0.9456909000000451,correct,v
222,2F4K,223,1,38.59573144403678,53.16676136008009,1.1156402913258978,55.2576742483771,1,c,1.6376157999998213,correct,c
223,2F4K,224,2,76.98020174504664,63.61427277537457,2.4783948516622862,63.74208122977227,1,b,2.1549055999998927,incorrect,v
224,2F4K,225,1,25.01729864711683,41.562447530096186,0.8411989529320107,45.0343984821512,1,c,1.0366802999997162,correct,c
225,2F4K,226,2,56.18382166302421,44.197427169547126,1.60827559629904,47.38194203487615,1,v,1.1943011000003025,correct,v
226,2F4K,227,1,63.71340901436435,77.53188947139142,1.880872780584284,72.84313035616036,1,n,0.9213891999997941,incorrect,c
227,2F4K,228,1,37.6762290291745,54.45496850028235,1.0945113163461369,56.35618428698236,1,c,3.85185649999994,correct,c
228,2F4K,229,1,47.13235756587922,28.736552203244496,1.332347790796529,33.90470137346871,2,c,2.8770480999996835,incorrect,n
229,2F4K,230,1,44.22857054981236,58.07115651845944,1.2542779755577769,59.37075532461837,1,c,1.6331921000000875,correct,c
230,2F4K,231,1,60.75290993317656,69.44368976342695,1.768574874050333,67.92271668668504,1,n,1.2674961999996412,incorrect,c
231,2F4K,232,2,50.36815584035996,68.80854457100816,1.4250817432541998,67.49092599386081,2,b,2.4765088999997715,correct,b
232,2F4K,233,1,42.27629525297981,58.43679192518147,1.2043784987472683,59.66912543531348,1,c,2.386961700000029,correct,c
233,2F4K,234,1,46.19197270597181,62.31519051054569,1.3065471430691111,62.74880891258287,1,c,1.3282776999999442,correct,c
234,2F4K,235,2,35.280800203077405,51.30268699483506,1.0413275974670548,53.64923058440164,2,v,3.247248299999683,incorrect,b
235,2F4K,236,1,27.39912597445949,42.48295452136056,0.8839114659592201,45.85443652668232,1,c,1.5404349999998885,correct,c
236,2F4K,237,2,54.38875616587366,41.05671913710701,1.549349567758632,44.58413653717009,1,v,2.907214700000168,correct,v
237,2F4K,238,2,55.89727236205142,44.757566369955306,1.598720979260276,47.880604746759616,1,v,1.2627494999996998,correct,v
238,2F4K,239,2,46.35093576536177,33.928288488100975,1.310873137942569,38.30752040994621,1,v,1.691393600000083,correct,v
239,2F4K,240,1,45.79182652646295,36.218885339011706,1.2957207226491017,40.30385564840783,2,c,2.5371971999998095,incorrect,n
240,2F4K,241,2,54.85611992211106,68.99829776003979,1.56448041434632,67.62056889352839,2,b,2.2394987999996374,correct,b
241,2F4K,242,1,62.22828482222335,43.498957833962784,1.8236748700751024,46.75976486606196,2,n,2.8831246999998257,correct,n
242,2F4K,243,2,37.74326779261721,55.17214312453481,1.0960381640216343,56.96256411274351,2,b,2.4755623999999443,correct,b
243,2F4K,244,2,64.18345437569457,43.38232867701203,1.899347170417886,46.655849250352354,1,v,1.7107600999997885,correct,v
244,2F4K,245,1,61.39935133391671,73.10502773122627,1.7925092204785051,70.28746608495219,1,n,2.8473981000001913,incorrect,c
245,2F4K,246,1,34.308493112678185,53.70297841845727,1.0204848704666158,55.716323627991045,1,c,3.647119699999621,correct,c
246,2F4K,247,2,65.61140033720972,46.3793600225753,1.9565907278680537,49.32183571747443,1,v,1.5889856999997392,correct,v
247,2F4K,248,1,73.065429874551,52.81287465836445,2.2846337358879816,54.95394378347072,2,n,1.328297300000031,correct,n
248,2F4K,249,1,68.57731895550138,45.41563014570131,2.081061454001771,48.46594574248345,2,n,1.212670700000217,correct,n
249,2F4K,250,1,50.7921665921408,38.4346155074438,1.4377023248056924,42.25622808756571,2,c,1.3826317999996718,incorrect,n
250,2F4K,251,1,70.7808250307536,58.012976664513424,2.1786353589803107,59.32316114188461,2,n,0.8861770999997134,correct,n
251,2F4K,252,2,60.90566294804804,48.33999501161908,1.7742015238839572,51.05597642281627,1,b,2.317957100000058,incorrect,v
252,2F4K,253,1,80.46954309388401,67.5266171420035,2.6649090432804985,66.60101009124094,2,n,0.9053351000002294,correct,n
253,2F4K,254,1,46.279743271322666,57.97530112684036,1.308933948844453,59.29232351010236,1,c,0.9335112999997364,correct,c
254,2F4K,255,1,37.84454903594522,22.985276582817253,1.0983489452295612,29.308303037129097,2,c,1.721864099999948,incorrect,n
255,2F4K,256,1,54.78764536478026,45.0544351906806,1.5622543540537903,48.144743100732775,2,n,4.011995399999705,correct,n
256,2F4K,257,2,44.79477733201137,25.097476874221336,1.2691330477319658,30.955498209803824,1,v,3.799555000000055,correct,v
257,2F4K,258,1,65.85074644867821,47.77858234406276,1.9663530759053844,50.56058951439521,2,c,2.2034334999998464,incorrect,n
258,2F4K,259,1,71.00240353997873,51.26381474370908,2.188696791310424,53.61547591449144,2,n,1.1459351999997125,correct,n
259,2F4K,260,2,32.106069575768224,48.65690196951188,0.9748026561681916,51.33513083922467,2,b,1.6136077999999543,correct,b
260,2F4K,261,2,53.93036253777844,46.041357032757126,1.5346512885206691,49.02186484000232,1,b,1.3280085999999756,incorrect,v
261,2F4K,262,2,63.42136806181021,41.800089326372,1.8694851894758029,45.24605532253723,1,v,1.0668676999998752,correct,v
262,2F4K,263,2,54.7908918173472,38.85150366789314,1.562359822410815,42.625334374318825,1,v,1.5333544999998594,correct,v
263,2F4K,264,2,48.25698713074455,27.30650302571621,1.3638732864376963,32.730241990548514,1,b,1.103464299999814,incorrect,v
264,2F4K,265,1,54.14746932436799,64.61094966968,1.5415953015514994,64.48984401643318,1,n,3.1986861999998837,incorrect,c
265,2F4K,266,1,74.55334367358822,55.190246389227255,2.356425891875672,56.97781992026047,2,n,0.6664897999999084,correct,n
266,2F4K,267,1,47.578885708297136,33.28495680428586,1.3447766421221763,37.7518770582451,2,c,1.3523294999999962,incorrect,n
267,2F4K,268,2,35.926633635387454,56.79291586732833,1.0554066720403577,58.31789977611668,2,b,2.1661481999999523,correct,b
268,2F4K,269,1,41.12543596727601,54.75543165852125,1.1758981271376827,56.6107011468599,1,c,0.7030367000002116,correct,c
269,2F4K,270,2,62.83003906915413,51.91257725956136,1.846638118171592,54.1777391186845,1,b,2.1548642999996446,incorrect,v
270,2F4K,271,2,71.86467762078877,58.48750578238567,2.228295135114443,59.710407908840885,1,b,1.7215159000002132,incorrect,v
271,2F4K,272,1,67.83290277365758,49.63102585446012,2.049095299948111,52.19078370790373,2,n,0.727154100000007,correct,n
272,2F4K,273,1,42.05135006092947,58.30611410938389,1.1987580487086988,59.56263545507015,1,c,1.3453260999999657,correct,c
273,2F4K,274,2,53.74219662745198,40.163628892557,1.5286582372473048,43.78977315772328,1,v,3.0418687999999747,correct,v
274,2F4K,275,2,36.80154591667775,46.89022370306659,1.0747837227637451,49.77471788464163,2,v,1.970629800000097,incorrect,b
275,2F4K,276,2,48.63556095521525,33.64150863960957,1.3746523708746772,38.05952906577945,1,v,1.5707538000001477,correct,v
276,2F4K,277,1,41.11321406983364,51.79659587225102,1.1755993138792578,54.0773947196123,1,c,1.7470063999999184,correct,c
277,2F4K,278,2,47.93419268089881,63.06761533599855,1.354749186136124,63.32662288387864,2,b,1.6271539999997913,correct,b
278,2F4K,279,1,50.359302518124544,39.9276720664779,1.4248194103376914,43.58011237274601,2,n,4.283890100000008,correct,n
279,2F4K,280,1,60.86614159160883,50.94613307068194,1.772744042349771,53.33931710479052,2,n,1.0671927999997024,correct,n
280,2F4K,281,2,51.46166657426555,38.14870751164441,1.457857791632296,42.00337222512671,1,v,5.0,correct,v
281,2F4K,282,1,42.5887849895796,50.93501901793528,1.2122300824194154,53.32964617506223,1,c,1.1580582000001414,correct,c
282,2F4K,283,2,45.68420104861103,62.23778229431117,1.2928241306535675,62.68897970931353,2,b,1.8915483999999196,correct,b
283,2F4K,284,2,32.39685574256028,47.724375932988,0.9807148798158036,50.51270361462453,2,b,1.6496600000000399,correct,b
284,2F4K,285,1,70.26593175163234,58.37076459046949,2.155433350226173,59.61534004102378,2,n,1.2676194000000578,correct,n
285,2F4K,286,2,67.54982814122077,47.90075855411204,2.0370689941491382,50.66848568171143,1,v,1.1580550999997286,correct,v
286,2F4K,287,2,27.535110947803947,39.44773922418648,0.8864144644157651,43.15399806339149,2,v,3.3512854000000516,incorrect,b
287,2F4K,288,2,41.359847911118486,57.51855269544348,1.1816439873491429,58.917417820901015,2,b,1.5889796999999817,correct,b
288,2F4K,289,2,56.75500930962203,51.14206190802242,1.6274918054084102,53.50969974157467,1,b,2.245014600000104,incorrect,v
289,2F4K,290,1,58.129572869713456,70.69579770471118,1.6746820153854725,68.75566258683276,1,n,2.9201963000000433,incorrect,c
290,2F4K,291,1,31.54957859467065,45.31492533362749,0.9635873491752064,48.376411492454906,1,c,1.39392319999979,correct,c
291,2F4K,292,2,38.7872014547538,47.613292411671225,1.1200910754256426,50.414543944873735,2,v,1.2370026999997208,incorrect,b
292,2F4K,293,2,38.08653537247557,51.557291620546,1.10388972684501,53.87011331374657,2,b,2.943611400000009,correct,b
293,2F4K,294,1,33.65907026268407,47.83330862056522,1.0067965011208435,50.60892524512735,1,c,2.041041200000109,correct,c
294,2F4K,295,1,30.69544609410827,43.49097974025602,0.9466239856663284,46.752656618043325,1,n,2.671721599999728,incorrect,c
295,2F4K,296,1,56.06218808028407,39.86791497574648,1.6042129260627809,43.527031188932256,2,n,1.3704892000000655,correct,n
296,2F4K,297,2,33.87795771873877,42.264308417084166,1.0113895179578096,45.65961734079187,2,b,1.3340823999997156,correct,b
297,2F4K,298,2,65.7769622693689,50.98238603417566,1.963338415877844,53.37085830393118,1,v,1.6193401999998969,correct,v
298,2F4K,299,2,38.41123259557416,50.86465322418088,1.1113682864756598,53.26840240372114,2,v,1.9348962999997639,incorrect,b
299,2F4K,300,2,63.87624817463493,49.82775163787249,1.887252484023343,52.36310369459035,1,b,1.6524866999998267,incorrect,v
300,2F4K,301,1,53.41146437860335,43.58350289882807,1.51818113670647,46.83509036341093,2,n,1.299252599999818,correct,n
301,2F4K,302,1,44.39955233903437,53.76527389040191,1.258745455980092,55.76948134597947,1,c,2.7564061000002766,correct,c
302,2F4K,303,2,67.57904577990193,43.80517747972685,2.0383070194089794,47.03257464029857,1,v,2.581626800000322,correct,v
303,2F4K,304,2,71.34599941462811,56.313411478515015,2.2043907560168696,57.91919935430066,1,b,0.7333463999998457,incorrect,v
304,2F4K,305,1,47.940904411195255,63.756393197761895,1.3549382769442455,63.84948180893521,1,n,2.4150399000000107,incorrect,c
305,2F4K,306,1,46.34192995363151,57.78483973976559,1.310627672941144,59.136225790159166,1,c,1.8317274999999427,correct,c
306,2F4K,307,1,35.14375151542086,41.27258441868055,1.0383641974042792,44.77629507395876,1,n,1.5100641000003634,incorrect,c
307,2F4K,308,2,50.93854214545992,40.74007691968749,1.4420850612956273,44.30236814065902,1,b,1.2794420000000173,incorrect,v
308,2F4K,309,1,51.85998221571744,37.96438993784408,1.4699829956540462,41.84049260685071,2,n,2.1477663000000575,correct,n
309,2F4K,310,1,34.647721205798774,49.89647192904877,1.0277088709288256,52.42325812077176,1,c,1.170214499999929,correct,c
310,2F4K,311,2,39.25249184359045,53.74065011446623,1.1309810489488037,55.74847268164044,2,b,1.8438297000002422,correct,b
311,2F4K,312,2,33.35554889957225,45.60703111930815,1.0004620664329125,48.63606921618125,2,v,0.9580283000000236,incorrect,b
312,2F4K,313,1,57.0640770269585,72.78103422421809,1.6379851877704537,70.08705189416747,1,n,1.7103486000000885,incorrect,c
313,2F4K,314,2,49.78522481760815,36.50189791280096,1.4079115918934704,40.5522120727708,1,v,1.2548713999999563,correct,v
314,2F4K,315,1,42.41191094441007,53.15531288085351,1.207779698679177,55.24786103244651,1,c,1.437250099999801,correct,c
315,2F4K,316,1,58.907528812629,69.30467045539389,1.7019938976528182,67.82873351937191,1,n,0.9274193999999625,incorrect,c
316,2F4K,317,1,65.34230348907366,48.50275803450771,1.9456727856594644,51.19939517936656,2,n,1.601119800000106,correct,n
317,2F4K,318,1,56.44880416885955,69.76158800955788,1.6171619062099878,68.13651117320316,1,c,1.060951699999805,correct,c
318,2F4K,319,2,50.21423411863261,65.33655929896001,1.4205277585844056,65.02610415078712,2,b,1.5408118000000286,correct,b
319,2F4K,320,1,39.27339079921519,48.8380730604882,1.1314726592777404,51.49455288606157,1,c,0.7093828999995822,correct,c
320,2F4K,321,2,69.16769608202847,58.503793888659565,2.106767169076034,59.7236615758634,1,b,3.7794613000000936,incorrect,v
321,2F4K,322,1,41.19592748222189,28.28078676670741,1.177623057625728,33.528350011876945,2,c,2.8222993999997925,incorrect,n
322,2F4K,323,2,55.14642873071438,35.007916042752825,1.5739534373995918,39.2451954678906,1,v,3.229871000000003,correct,v
323,2F4K,324,1,35.4466924251288,47.29231259858602,1.0449259972491325,50.13069938972179,1,c,1.717465700000048,correct,c
324,2F4K,325,2,50.344900702309744,31.773178124372315,1.424392773096832,36.45636387856149,1,b,2.980300400000033,incorrect,v
325,2F4K,326,2,56.00973203221969,45.43183279664321,1.602464016088476,48.4803495911692,1,b,2.763275799999974,incorrect,v
326,2F4K,327,2,73.93760872787432,56.20147202600294,2.326446905105621,57.82584149467215,1,v,3.5992833999998766,correct,v
327,2F4K,328,1,61.19643381589381,47.33875571106513,1.7849615711535864,50.17178800096649,2,n,1.1459414999999353,correct,n
328,2F4K,329,2,50.10735903856021,62.1708975053931,1.4173742763121442,62.63722709890245,2,v,1.042782100000295,incorrect,b
329,2F4K,330,2,46.135119420887314,56.23111619942575,1.305003415459514,57.850575083360255,2,b,0.8054388000000472,correct,b
330,2F4K,331,2,30.460402957916067,43.64348000500108,0.9420085691452674,46.888525012160265,2,v,1.5647085999999035,incorrect,b
331,2F4K,332,2,31.82535949607125,48.20163251431025,0.9691291110692636,50.93398483479642,2,v,1.3280260999999882,incorrect,b
332,2F4K,333,1,45.12400219138336,33.53875173377753,1.2778513904311015,37.970787193939415,2,c,1.8620803999997406,incorrect,n
333,2F4K,334,1,74.06400991940465,65.18039020523725,2.3325698720139085,64.91127833117926,2,n,2.6828308000003744,correct,n
334,2F4K,335,1,44.77660146841745,55.7144257316998,1.2686534613374447,57.41843212363638,1,c,2.688947800000278,correct,c
335,2F4K,336,1,63.82374063597315,42.43276637076417,1.885192986335772,45.8097163574514,2,n,1.4554294999998092,correct,n
336,2F4K,337,1,58.18595703709175,63.661997272198974,1.676646691062466,63.77817502638979,1,n,2.9792578000001413,incorrect,c
337,2F4K,338,1,51.22354769149872,66.96702513170854,1.4506569883931093,66.20501205165442,1,n,3.332198999999946,incorrect,c
338,2F4K,339,1,47.231028667564416,62.7963967596987,1.3350843189449824,63.11913247362323,1,c,2.9938961000002564,correct,c
339,2F4K,340,2,34.42863434011373,46.95341085536568,1.02303750097423,49.83068820412744,2,b,1.036578400000053,correct,b
340,2F4K,341,1,31.898459078624548,51.20447461345284,0.970603368655364,53.56393237834471,1,c,1.7710453999998208,correct,c
341,2F4K,342,2,40.37381684703863,53.62939438308045,1.1576623298531898,55.65349886700325,2,b,2.6403936999995494,correct,b
342,2F4K,343,1,45.74804007167456,34.371660467963366,1.294541488076342,38.69183915597723,2,n,1.7543260000002192,correct,n
343,2F4K,344,2,49.16969460808964,65.80545057910162,1.3900057377861434,65.36888811339836,2,b,1.770960500000001,correct,b
344,2F4K,345,2,66.65629369445969,51.86301257098874,1.9995686467367413,54.13486633580154,1,b,1.1519788000000517,incorrect,v
345,2F4K,346,1,47.786514860982805,54.94370545283556,1.3505953034610811,56.7698399587662,1,c,2.007735000000139,correct,c
346,2F4K,347,2,46.93262509177708,67.65999829614692,1.3268255996701996,66.69473099232604,2,v,1.7653151999998045,incorrect,b
347,2F4K,348,1,27.944346347886203,45.38853479500308,0.8939898708206018,48.44185752625907,1,c,1.9849886000001788,correct,c
348,2F4K,349,2,40.70968769951404,27.633244902648627,1.1657760201166747,32.996903884258195,1,v,1.3401442999997926,correct,v
349,2F4K,350,2,74.36094941915093,59.54945496595991,2.3470173105513257,60.569008003653394,1,b,2.5918400999998994,incorrect,v
350,2F4K,351,1,53.39153812328125,66.92035078998103,1.5175522013285463,66.17178018518257,1,c,1.7133325999998306,correct,c
351,2F4K,352,2,38.25004563007524,55.415314843750885,1.107649450646481,57.167273586756295,2,b,1.7557887999996638,correct,b
352,2F4K,353,2,32.46133403758028,45.58861134357338,0.9820306929177628,48.61969986191634,2,b,2.270152600000074,correct,b
353,2F4K,354,2,33.452454497983226,44.54489270276778,1.002480125418045,47.69131156130941,2,b,1.9511183999998138,correct,b
354,2F4K,355,2,54.50626907553823,43.057555098367125,1.5531402068979578,46.36645762802325,1,v,1.561674099999891,correct,v
355,2F4K,356,2,41.59737191722096,64.92925012882027,1.187494768370015,64.72594149446604,2,b,1.4084709999997358,correct,b
356,2F4K,357,1,48.67476775026529,62.02642305453299,1.3757735577158312,62.52525929224942,1,n,1.2066374000000906,incorrect,c
357,2F4K,358,2,53.57012426047042,40.51676544486403,1.5231982516519686,44.10373234152984,1,v,1.8065550000001167,correct,v
358,2F4K,359,1,55.88600817530931,37.89858233530307,1.598346551215834,41.78236472325382,2,n,1.6551604000001134,correct,n
359,2F4K,360,2,57.82249953447438,46.86855512840476,1.6640225520095715,49.75552176497512,1,b,1.558626500000173,incorrect,v
360,2F4K,361,2,63.09118903335669,48.55761540245776,1.8566934921073452,51.2477113156458,1,v,3.1135795000000144,correct,v
361,2F4K,362,2,33.96563921202925,49.82425783110009,1.013235251833901,52.36004482048487,2,b,2.189789000000019,correct,b
362,2F4K,363,1,47.282179419678044,54.923612273858645,1.3365051368577754,56.75286896876975,1,c,2.1116526999999223,correct,c
363,2F4K,364,2,47.86483585113611,34.15201738909612,1.3527967280991615,38.50131427872548,1,v,1.8946123000000625,correct,v
364,2F4K,365,1,61.8885725483339,47.447725124146686,1.8108376106759945,50.26816966597278,2,n,0.7939378000000943,correct,n
365,2F4K,366,1,46.479766833001406,34.42801764579221,1.3143896316600197,38.74076737363962,2,c,1.4615085000000363,incorrect,n
366,2F4K,367,2,40.50200418318113,22.638693804675466,1.160752288676402,29.04303172420238,1,v,3.2523842999999033,correct,v
367,2F4K,368,2,55.77622141894416,44.237165872327736,1.594701765705628,47.41732958504812,1,v,1.5525674999998955,correct,v
368,2F4K,369,1,50.58515625788075,63.26898072663551,1.4315268080002612,63.48009083636855,1,c,2.19054049999977,correct,c
369,2F4K,370,1,46.65147485045393,37.65680967742215,1.3190911375429497,41.568926574738335,2,n,1.9243835000002036,correct,n
370,2F4K,371,2,23.120850431046414,40.85241146751427,0.8086714105126375,44.4023159854704,2,v,3.708512100000007,incorrect,b
371,2F4K,372,1,57.46407577923992,48.55419571788493,1.6516663423158815,51.24469971709115,2,n,0.8858832000000803,correct,n
372,2F4K,373,2,47.88583174872884,62.57896076420324,1.3533874846078222,62.95214330701948,2,b,1.9470069999997577,correct,b
373,2F4K,374,1,31.04752585885969,44.2775066000204,0.9535799292999853,47.45325180621138,1,c,1.0366862999999285,correct,c
374,2F4K,375,1,50.032532683904094,37.08506866294966,1.4151705989030905,41.06498301304283,2,n,3.555313400000159,correct,n
375,2F4K,376,2,38.4254556779668,44.659444810375376,1.1116970341329189,47.79327677626284,2,b,1.7710729000000356,correct,b
376,2F4K,377,2,27.357374317893104,38.08547973112695,0.8831443859214846,41.94748668430274,2,b,2.9923938000001726,correct,b
377,2F4K,378,2,53.02059503682334,42.50093269133331,1.505891525076096,45.87045613329447,1,v,3.6354802000000745,correct,v
378,2F4K,379,2,52.57322171955043,66.22694546726234,1.4919473779302397,65.67446017150316,2,b,1.334085999999843,correct,b
379,2F4K,380,1,66.1913658357534,56.88640264530709,1.9803301587199325,58.395400828805705,2,n,1.0844907999999123,correct,n
380,2F4K,381,1,56.108765438070215,68.52041966435797,1.6057674374593631,67.2930357075537,1,n,0.7748216999998476,incorrect,c
381,2F4K,382,1,49.09764550642552,64.7781142096647,1.3879247641149637,64.61400337634555,1,c,4.702303199999733,correct,c
382,2F4K,383,1,55.5486943250264,36.19894283025643,1.5871745852379673,40.2863678580992,2,n,0.9881104999999479,correct,n
383,2F4K,384,1,55.13796337605276,36.97528637355281,1.5736763954532214,40.96835356518218,2,n,2.403698600000098,correct,n
384,2F4K,385,1,29.074659494738533,47.11646752662981,0.9152512759119246,49.97507263474256,1,n,1.9910209999998187,incorrect,c
385,2F4K,386,2,31.44526700922585,53.416552336120056,0.9614994985541744,55.47157089322408,2,b,2.489511599999787,correct,b
386,2F4K,387,1,60.90759582456414,57.19861005658831,1.7742728358649646,58.65366347989757,2,n,2.2093258999998397,correct,n
387,2F4K,388,2,38.33726046692432,30.23676800236965,1.109660085926195,35.15617871061215,1,v,1.2189045999998598,correct,v
388,2F4K,389,2,35.81548603346023,55.37627156785064,1.0529701807495464,57.13443703695354,2,b,1.2965414999998757,correct,b
389,2F4K,390,2,51.10450702994847,68.47493204856276,1.4470705004865891,67.26168004649365,2,b,1.9107952999997906,correct,b
390,2F4K,391,2,66.6983450498856,55.1610959276523,2.0013179009458426,56.953253276217225,1,v,2.221633600000132,correct,v
391,2F4K,392,1,48.44289855937837,63.987473011415496,1.3691561156576286,64.02356424531439,1,c,1.8104620999997678,correct,c
392,2F4K,393,1,46.83617809182308,64.17363753905595,1.324167239310544,64.16331551882132,1,c,2.701065500000368,correct,c
393,2F4K,394,1,49.861217075500896,43.4776044257396,1.4101381530759354,46.740739546089785,2,n,1.1185522999999193,correct,n
394,2F4K,395,2,59.25769574695354,42.06303446303453,1.7144322246233754,45.48029315867571,1,v,1.4431775000002744,correct,v
395,2F4K,396,2,59.734429484850494,68.57010974876665,1.7315125983933328,67.32725284642903,2,b,1.109544299999925,correct,b
396,2F4K,397,2,49.59986824725557,43.28637869887455,1.4024954081905947,46.5703551167003,1,v,2.4340352999997776,correct,v
397,2F4K,398,2,55.577868961006494,47.63332334110414,1.5881377677875264,50.43224721528252,1,b,1.54793619999964,incorrect,v
398,2F4K,399,1,47.775322246326425,64.54923842917637,1.350280997249354,64.44391639105002,1,c,1.8373513999999886,correct,c
399,2F4K,400,1,39.65918992772552,59.48289642107437,1.1405863700831926,60.51552946343442,1,c,1.2127166000000216,correct,c
