,condition,trial,sub_task,x,y,xt,yt,cat,resp,rt,acc,correct_resp
0,2F4K,1,2,55.855284863557046,38.1058974521029,1.597325736388431,41.886730650473226,1,b,3.1985879999999725,incorrect,v
1,2F4K,2,2,49.82121455459644,40.74186706728854,1.4089656469433844,44.23923080545414,1,v,2.94994789999987,correct,v
2,2F4K,3,2,58.38490280914314,45.59277796532007,1.6835972803290609,48.58466498978799,1,v,3.168166700000029,correct,v
3,2F4K,4,1,51.16488191433282,55.598445785631824,1.4488883811343245,57.33473146303735,1,n,2.1539314999999988,incorrect,c
4,2F4K,5,2,53.66621789155075,43.90425687333055,1.5262449659513704,47.07305323855611,1,v,1.783189800000173,correct,v
5,2F4K,6,1,28.375205062869703,39.80024279747728,0.902035521435708,43.39716066798732,1,n,1.9652409000000262,incorrect,c
6,2F4K,7,1,50.97232352473437,30.91190927834992,1.4430984300710228,35.60898343289345,2,c,2.9802532000001065,incorrect,n
7,2F4K,8,2,53.99374487979536,45.71340088017426,1.5366752905236696,48.69249366266922,1,v,2.0379468000000998,correct,v
8,2F4K,9,1,53.97978173137447,35.11516019393069,1.5362291731572957,39.24406216161776,2,n,5.0,correct,n
9,2F4K,10,2,48.85605596064339,35.57170825363142,1.380969712633528,39.64502019099144,1,v,1.2003939999999602,correct,v
10,2F4K,11,1,50.32640065444578,33.19836814058193,1.4238449178869517,37.5726734356761,2,n,0.8181623999998919,correct,n
11,2F4K,12,1,60.60255461596637,43.72745893623989,1.763053969831312,46.914613059501576,2,c,1.2794860999999855,incorrect,n
12,2F4K,13,2,45.24153600462499,60.95100110508443,1.2809783388570186,61.7240989944864,2,v,0.8606516999998348,incorrect,b
13,2F4K,14,2,38.44379324111094,54.49701067388094,1.1121210260624328,56.39984642270556,2,v,1.2607433999999103,incorrect,b
14,2F4K,15,1,27.221028026258903,38.02798361592565,0.8806440046381877,41.817462082613424,1,n,1.3830204999999296,incorrect,c
15,2F4K,16,1,41.812124108422495,55.461529299970266,1.1928095581127969,57.21903448875055,1,c,5.0,incorrect,c
16,2F4K,17,1,45.754414030331375,41.01231331898616,1.294713081529082,44.48133211095528,2,c,1.1157599999999093,incorrect,n
17,2F4K,18,2,33.38309403919378,18.52119786045768,1.001035280322182,25.83544331511042,1,b,2.1234629000000496,incorrect,v
18,2F4K,19,2,48.77137711492561,35.06315123225002,1.3785401757761402,39.19845055496404,1,v,0.9760208999998667,correct,v
19,2F4K,20,2,40.41604238227496,28.954933026460942,1.158679267820284,33.95946622820192,1,v,1.3098176999999396,correct,v
20,2F4K,21,2,50.15948425183301,61.21180929025223,1.418911420110701,61.9305007014312,2,b,1.1398815000000013,correct,b
21,2F4K,22,2,51.094219096937465,62.45335612663702,1.4467609595588595,62.9023246265471,2,b,0.872856899999988,correct,b
22,2F4K,23,1,65.30115720114358,49.787591475787856,1.944008754707152,52.31149397254804,2,c,1.2247603000000709,incorrect,n
23,2F4K,24,2,68.51100085918722,53.12516246289724,2.0781935523741644,55.22298248481161,1,v,2.488681899999847,correct,v
24,2F4K,25,1,60.96308220543761,79.9262187528424,1.7763211854962784,74.19189726786338,1,n,1.4129778999999871,incorrect,c
25,2F4K,26,1,56.5988611927088,70.09877556994641,1.622215895277317,68.44159913512209,1,c,1.2849762000000737,correct,c
26,2F4K,27,2,49.25080296647052,31.03134650151681,1.3923521008444557,35.71064234023816,1,v,1.4183255000000372,correct,v
27,2F4K,28,2,39.910186016984966,56.46187123940286,1.146555014429134,58.06079563024368,2,b,1.4311623000000964,correct,b
28,2F4K,29,1,58.80105771857998,74.94714056616795,1.6982298444362065,71.49117290930722,1,c,2.5488794000000325,correct,c
29,2F4K,30,1,38.31155635304099,54.24660610376961,1.109067128849018,56.18602467410798,1,n,1.3401647000000594,incorrect,c
30,2F4K,31,2,59.71633581248926,49.67313619818413,1.7308612439277618,52.21063514076499,1,v,1.2554766999999174,correct,v
31,2F4K,32,2,54.94197230900919,70.93651697120067,1.567275897891618,68.99631662121824,2,b,0.8306007999999565,correct,b
32,2F4K,33,1,41.91944827522582,59.15747284389074,1.1954745755740626,60.28465052061195,1,c,1.3158145999998396,correct,c
33,2F4K,34,1,41.0802529181659,27.510659081163247,1.1747938249211114,32.76336592074022,2,n,0.9638886999998704,correct,n
34,2F4K,35,2,43.29524714214291,36.04804512534372,1.2301697574973491,40.064397673335954,1,v,1.3583505999999943,correct,v
35,2F4K,36,2,47.48931609206625,41.43005487866024,1.3422742624585904,44.85545819211545,1,b,2.7192947000000913,incorrect,v
36,2F4K,37,2,59.71158675886348,44.68425472304998,1.7306903232528268,47.77175848754151,1,v,2.952306500000077,correct,v
37,2F4K,38,2,46.235084955371,33.29408732644775,1.307718979968276,37.65563609059508,1,v,1.6426622999999836,correct,v
38,2F4K,39,2,39.60615645729618,54.63675725101596,1.1393292247344031,56.51897568499754,2,v,1.1936294999998154,incorrect,b
39,2F4K,40,2,73.58444794925025,59.25174235612162,2.3094245901069383,60.36115199755148,1,v,2.2337735999999495,correct,v
40,2F4K,41,2,63.468916243020416,53.305326949901975,1.871334532072089,55.37827760721411,1,v,2.7008417000001828,correct,v
41,2F4K,42,1,59.92700606802976,48.9131945772689,1.7384603728007948,51.53955656322109,2,c,2.429333799999995,incorrect,n
42,2F4K,43,2,52.157613476677874,74.34768556103947,1.4791090321927105,71.13574851082355,2,b,2.4037045000000035,correct,b
43,2F4K,44,2,57.803272313150046,44.77526751801901,1.6633573774473631,47.85324476767075,1,v,1.6731964000000517,correct,v
44,2F4K,45,2,50.13256368273569,66.39564179643193,1.4181173393321176,65.86067023147794,2,b,0.8121196000001873,correct,b
45,2F4K,46,2,32.48299334786896,43.35333461858313,0.9824730919880652,46.57928209417479,2,v,0.8060738000001493,incorrect,b
46,2F4K,47,2,50.860971112732,39.81032078444886,1.439760789318653,43.40616482491317,1,v,2.9438379999999142,correct,v
47,2F4K,48,1,28.54870288929032,44.57593424888466,0.905295750017069,47.67476342509398,1,n,1.5495078000001286,incorrect,c
48,2F4K,49,2,41.763243404559695,57.98642548852622,1.1915977479857809,59.32694748526853,2,b,1.1110100999999304,correct,b
49,2F4K,50,1,45.29450226604237,32.644540891699776,1.2823899887834844,37.09378295332035,2,c,2.568070700000135,incorrect,n
50,2F4K,51,1,58.26969839833928,49.13531280786898,1.6795688677583362,51.73594727260719,2,n,1.1398760999998103,correct,n
51,2F4K,52,2,35.278519884585336,42.67887335071209,1.0412782210802485,45.97466567514232,2,v,1.698190299999851,incorrect,b
52,2F4K,53,2,36.25480706309262,49.16918182401325,1.062633582230356,51.76587594124202,2,b,1.3516654000000017,correct,b
53,2F4K,54,1,50.46675561083392,38.06382105087686,1.42800662084079,41.84932068579607,2,c,1.479729799999859,incorrect,n
54,2F4K,55,1,48.02280453240748,34.63348168781367,1.3572477911632268,38.8221588367774,2,n,0.7817986999998539,correct,n
55,2F4K,56,2,42.25702557466786,53.0690034543445,1.2038959989161817,55.17453183314332,2,v,1.8310650999999325,incorrect,b
56,2F4K,57,1,49.96108844315711,34.83464256489504,1.4130697240858094,38.998211241312745,2,n,1.1155884999998307,correct,n
57,2F4K,58,1,53.10129610454396,31.120724124150755,1.5084207306965076,35.78678618911604,2,n,1.0062996000001476,correct,n
58,2F4K,59,2,27.31603668241367,35.14157216819622,0.8823855682873412,39.26723049201592,2,b,1.1217957000001206,correct,b
59,2F4K,60,1,47.41033695533143,34.90451295367174,1.3400716211308463,39.05940959492763,2,n,1.4918769999999313,correct,n
60,2F4K,61,2,41.25227802732751,49.69510235283093,1.1790037776096896,52.22999636442744,2,b,5.0,correct,b
61,2F4K,62,2,36.63557912396485,57.99834684282602,1.071080841395276,59.33676409389223,2,b,0.5931303999998363,correct,b
62,2F4K,63,2,57.16995471696,48.39544167630572,1.6415954547274,51.08103822176075,1,b,4.127264100000048,incorrect,v
63,2F4K,64,2,49.69484003657972,63.42432904186755,1.4052679090866471,63.649517982836,2,v,0.490700299999844,incorrect,b
64,2F4K,65,1,52.45097277462135,62.84763371530812,1.4881595220309016,63.20712558254191,1,n,1.1399536000001262,incorrect,c
65,2F4K,66,2,66.38284411208843,56.71871263681019,1.988230916073347,58.27555890752188,1,v,1.6920116999999664,correct,v
66,2F4K,67,1,35.004417444139875,44.140826262705104,1.0353600257490965,47.28502471403439,1,n,1.1822503999999299,incorrect,c
67,2F4K,68,2,30.15192421441961,50.61835681980578,0.9359852671718086,53.04175967354098,2,b,2.27015879999999,correct,b
68,2F4K,69,1,47.498684328831686,37.50801764259597,1.3425357723614182,41.35569073069844,2,c,0.9274880000000394,incorrect,n
69,2F4K,70,1,30.049976562313603,39.22034255073636,0.9340031345981324,42.87940938008773,1,c,1.5343275000000176,correct,c
70,2F4K,71,1,50.5580125292537,68.19999712365731,1.4307190279084625,67.1437773639372,1,n,1.1823475999999573,incorrect,c
71,2F4K,72,2,49.97243082371726,59.25795643951239,1.413403047436486,60.36619165816662,2,v,3.8170292000002064,incorrect,b
72,2F4K,73,1,45.45784930647699,65.28313749925677,1.2867532970726103,65.04659079028859,1,c,3.1319958000001407,correct,c
73,2F4K,74,1,44.99064354106891,60.86961472626462,1.2743126702571854,61.65953429613946,1,c,1.4493835999999192,correct,c
74,2F4K,75,1,59.8498482341468,48.013184018923184,1.73567333292488,50.7418938490041,2,n,1.000177499999836,correct,n
75,2F4K,76,1,55.06847486716522,41.18981930208,1.5714041177613918,44.64028234325893,2,n,0.4966730999999527,correct,n
76,2F4K,77,1,47.60992086892671,70.58038548352992,1.345644784618085,68.76186877385541,1,n,1.9288441000001058,incorrect,c
77,2F4K,78,1,61.86488856876085,47.10425183312203,1.8099460026683447,49.93358915378239,2,c,1.8559755000001132,incorrect,n
78,2F4K,79,1,50.20348530617061,58.88194617906591,1.420210284418154,60.06053948644842,1,c,1.4615617000001748,correct,c
79,2F4K,80,1,32.32729634606079,45.88122102905327,0.9792973531685558,48.84246845392252,1,n,1.9958189999999831,incorrect,c
80,2F4K,81,1,43.805804597027446,56.43552568291083,1.2432997301056885,58.03873405237167,1,c,1.984713499999998,correct,c
81,2F4K,82,2,57.39751965917782,37.534267319148455,1.6493820244579815,41.37898092580498,1,v,3.4910171000001355,correct,v
82,2F4K,83,2,59.9837345784893,46.188829917162025,1.7405123336562147,49.1172220609784,1,v,3.2222492999999304,correct,v
83,2F4K,84,1,41.74124545462844,56.97562285322251,1.1910527947045018,58.4898031323342,1,c,2.397389199999907,correct,c
84,2F4K,85,2,25.557564304889357,40.992273702875806,0.8507026947137101,44.46338965259927,2,b,1.5601547999999639,correct,b
85,2F4K,86,2,56.707340090359565,46.36756178176058,1.6258793476913067,49.27677133256832,1,v,3.313502799999924,correct,v
86,2F4K,87,1,43.59272229310429,59.42000079486289,1.237802952934935,60.49747090587578,1,c,2.7436184999999114,correct,c
87,2F4K,88,2,55.34015924864566,39.085715391334254,1.5803069180237297,42.75931900153064,1,v,1.7057912000000215,correct,v
88,2F4K,89,1,51.49910598724395,65.38453938989305,1.45899322061451,65.12149372973305,1,n,1.1399145000000317,incorrect,c
89,2F4K,90,1,54.73489271802184,39.49221256760297,1.5605415624170405,43.122051757850215,2,c,1.4069284999998217,incorrect,n
90,2F4K,91,2,44.76906257921608,59.08784210150769,1.2684545941901135,60.22808584767788,2,v,1.4797578000000158,incorrect,b
91,2F4K,92,2,74.44569693862026,54.86813726778993,2.35115704738282,56.71589728828275,1,b,0.8789339999998447,incorrect,v
92,2F4K,93,1,61.81453766766465,45.7962337178405,1.808051949158416,48.76652506858071,2,c,0.8119002999999338,incorrect,n
93,2F4K,94,1,45.18673848336532,58.40231083861444,1.2795195178666412,59.66860349841741,1,n,1.722467399999914,incorrect,c
94,2F4K,95,1,41.73198601262431,52.3209012036159,1.1908234858978444,54.52719540988766,1,c,1.2848433999999997,correct,c
95,2F4K,96,2,41.59822189205234,53.222473656032605,1.187515757204596,55.30688778653569,2,v,1.3454613000001245,incorrect,b
96,2F4K,97,2,54.05883653011647,43.40916615162645,1.5387566546150695,46.62932807788021,1,v,0.7636374999999589,correct,v
97,2F4K,98,2,31.810746436370717,52.04233031573195,0.9688346665121113,54.28526691956748,2,b,1.0965575000000172,correct,b
98,2F4K,99,2,60.03113566121871,76.21413543468705,1.742228763818256,72.22143561164795,2,v,2.4037389000000076,incorrect,b
99,2F4K,100,1,41.10827165087003,45.47226576337204,1.175478498205566,48.47690955416366,1,c,1.315898500000003,correct,c
100,2F4K,101,2,28.050085800675056,38.96126524363289,0.8959577295658724,42.64834602782895,2,b,1.2001743999999235,correct,b
101,2F4K,102,1,40.726503202086015,54.47376148668694,1.1661837265994144,56.38001320967323,1,c,2.3733362999998917,correct,c
102,2F4K,103,1,41.36317285684205,58.39159157717709,1.18172568939643,59.659818408144254,1,c,1.066926599999988,correct,c
103,2F4K,104,1,69.95303196656593,56.931898875600886,2.14145440311945,58.45338170524771,2,n,1.3582449999998971,correct,n
104,2F4K,105,2,62.24966914246399,49.50331241561915,1.8244859920031689,52.060879537875365,1,v,1.2733605000000807,correct,v
105,2F4K,106,1,64.37570989472603,53.63989966787723,1.9069556572810225,55.66609019118127,2,c,2.531180200000108,incorrect,n
106,2F4K,107,1,45.87982266176619,61.06000389122929,1.2980938394929995,61.810456053388656,1,c,1.3889537000000018,correct,c
107,2F4K,108,2,47.51366574341279,63.58447475794897,1.3429540773599768,63.77163395358352,2,v,4.175861000000168,incorrect,b
108,2F4K,109,1,23.197350429083656,33.20746087221112,0.8099588466846306,37.58055195172507,1,n,2.1837490000000344,incorrect,c
109,2F4K,110,2,57.411164989044096,46.005084498205285,1.6498500974986958,48.9531255660116,1,v,1.2312082999999348,correct,v
110,2F4K,111,1,57.43072678053905,70.70792272258326,1.6505213534688732,68.8460625958897,1,c,0.836418999999978,correct,c
111,2F4K,112,2,49.70227370196191,61.29560370179926,1.40548515039977,61.99665199461488,2,v,1.7588879999998426,incorrect,b
112,2F4K,113,2,55.25385459515792,37.49892328334237,1.5774733559943146,41.34762225597578,1,b,0.7212731999998141,incorrect,v
113,2F4K,114,1,49.168971091778666,59.48145245365722,1.3899848251698983,60.54718490141129,1,c,2.2398379999999634,correct,c
114,2F4K,115,2,71.6454618416128,58.20321878926687,2.218160648403951,59.50525375495146,1,b,0.9881774999998925,incorrect,v
115,2F4K,116,2,62.21029918758351,44.97334926421733,1.8229929418197093,48.03055661558882,1,v,3.8177568999999494,correct,v
116,2F4K,117,2,50.24704400963926,64.10055649433042,1.4214972620994275,64.16295135548269,2,b,0.8789384000001519,correct,b
117,2F4K,118,2,66.29224452550748,49.89171858756679,1.9844886839656612,52.40320081015145,1,v,1.8378180999998222,correct,v
118,2F4K,119,1,49.0199821077201,66.8708909592287,1.3856851231900769,66.2031784772329,1,n,1.455200700000205,incorrect,c
119,2F4K,120,2,41.2517607742988,30.112428337461942,1.1789910963434933,34.931342167213835,1,b,1.2308868999998595,incorrect,v
120,2F4K,121,2,42.61458877209374,31.388576723878277,1.2128807087973503,36.01533397409886,1,v,3.386628700000074,correct,v
121,2F4K,122,1,67.30910174030399,57.62029343227737,2.0268973854987133,59.02480534892381,2,c,2.0380647000001773,incorrect,n
122,2F4K,123,2,39.43869465250928,51.4484046304634,1.13536867223255,53.76795772841379,2,b,1.1459572999997363,correct,b
123,2F4K,124,1,44.98203272157421,58.37892457628423,1.274084516134253,59.64943558653095,1,c,1.2918895000002522,correct,c
124,2F4K,125,2,42.22549782981526,49.66513243998698,1.2031069821353255,52.203580008756845,2,b,2.1051322999996955,correct,b
125,2F4K,126,1,52.14862400903164,68.93045384739689,1.478832567110257,67.64957749617832,1,n,0.7999955000000227,incorrect,c
126,2F4K,127,1,48.45505883311863,32.21324557844731,1.3695023721682396,36.72222469943587,2,c,0.5936827000000449,incorrect,n
127,2F4K,128,1,31.07792681967512,43.37593590406773,0.9541829447065944,46.59954144584125,1,n,1.8316760000002432,incorrect,c
128,2F4K,129,2,37.26034743461096,23.87903591323905,1.0850867769712014,29.84820790504009,1,v,2.0950039000003926,correct,v
129,2F4K,130,1,67.57307220974704,53.8515999327436,2.0380538429558843,55.84780715640494,2,c,2.2641813000000184,incorrect,n
130,2F4K,131,1,56.44373962759352,47.06514225880733,1.6169916051057416,49.8987550345882,2,c,1.7472146000000066,incorrect,n
131,2F4K,132,1,71.22524551840846,53.32436825232968,2.1988624597996598,55.39467792619524,2,c,1.92277920000015,incorrect,n
132,2F4K,133,1,55.42244571206005,41.0710301436454,1.583013294236585,44.53390692869783,2,c,1.6982610000000022,incorrect,n
133,2F4K,134,1,53.10352308266488,35.0083269052622,1.5084905853293504,39.15038455253429,2,n,1.4063091000002714,correct,n
134,2F4K,135,1,66.27593988063236,43.65397778431845,1.983815965938434,46.84875640879473,2,n,0.6179524000003767,correct,n
135,2F4K,136,2,26.50725813630578,43.29845540623496,0.8676696335211499,46.53008876935527,2,b,3.5992668999997477,correct,b
136,2F4K,137,2,51.7761785106432,65.56309921776777,1.4674235619182914,65.25305257934087,2,v,0.593699099999867,incorrect,b
137,2F4K,138,1,29.93029639455396,41.14049027894325,0.931681590481266,44.596106405403255,1,n,2.8162508999998863,incorrect,c
138,2F4K,139,1,57.12551012239825,70.54083266000315,1.6400789941188108,68.7357051439498,1,n,4.122732100000121,incorrect,c
139,2F4K,140,2,58.96876482810465,41.9445052718312,1.7041625412085322,45.31641264056189,1,v,2.0153266000002077,correct,v
140,2F4K,141,1,58.11689912727839,74.64743102419447,1.67424072270647,71.31425941044677,1,c,2.088139399999818,correct,c
141,2F4K,142,1,35.037016110512475,42.61607731503868,1.036062103399661,45.91837219287016,1,n,0.8358231000001979,incorrect,c
142,2F4K,143,2,33.00930720728216,49.24108955802199,0.993284715107764,51.82940237441828,2,b,1.33406690000038,correct,b
143,2F4K,144,2,33.926795489798664,55.038077863577946,1.0124171592389652,56.86026982157874,2,b,0.8485467999998946,correct,b
144,2F4K,145,1,28.855844339195095,46.67120556367505,0.911096220850746,49.54765793118936,1,c,1.9349262999999155,correct,c
145,2F4K,146,1,42.95293798479989,50.373284281977625,1.2214443540666635,52.82667574999768,1,n,2.27023250000002,incorrect,c
146,2F4K,147,1,26.75491420558,39.31184883359055,0.8721495389726296,42.96105942618709,1,c,0.8057909000003747,correct,c
147,2F4K,148,2,40.77812752544897,56.34640644067805,1.16743629425487,57.96406222480438,2,b,5.0,correct,b
148,2F4K,149,2,42.31321408959942,58.36009286397849,1.205303461900114,59.6339968257311,2,b,0.9032227000002422,correct,b
149,2F4K,150,1,53.05363973980084,39.60914727289791,1.506926646930128,43.22646553853563,2,c,2.6343461999999818,incorrect,n
150,2F4K,151,2,43.54712441432529,64.01058719090308,1.236629847650344,64.09497720577973,2,b,1.4061679000001277,correct,b
151,2F4K,152,2,43.891918713051226,62.328902503061705,1.2455280924192134,62.80572530433557,2,b,1.297414900000149,correct,b
152,2F4K,153,2,44.586986621736585,57.74952894226055,1.263661098419704,59.13159739586349,2,v,1.0124141000001146,incorrect,b
153,2F4K,154,1,70.90439467729905,54.67287311183128,2.1842406886502768,56.54973954600241,2,n,1.527809199999865,correct,n
154,2F4K,155,1,63.60846428270956,43.814391661413474,1.876772694339324,46.99252157793676,2,c,2.3367981999999756,incorrect,n
155,2F4K,156,2,49.88660080294053,27.986861950729917,1.4108826765561109,33.1556125615367,1,v,2.4156990000001315,correct,v
156,2F4K,157,2,42.46973366711875,57.14501096341566,1.209232793987069,58.63074002406314,2,b,1.9895220000003064,correct,b
157,2F4K,158,1,61.32466253715542,48.56990306750495,1.7897274175037878,51.23565143479448,2,c,2.5797191999999995,incorrect,n
158,2F4K,159,1,60.94351219754861,44.60966761391106,1.7755984642076164,47.7049712484676,2,n,1.0214093999998113,correct,n
159,2F4K,160,2,27.98817850331655,42.28030333327592,0.8948050819090584,45.61738213427478,2,b,1.1572473999999602,correct,b
160,2F4K,161,2,73.07457850101729,59.27311152713936,2.285068406729573,60.37848087404067,1,b,3.363191600000391,incorrect,v
161,2F4K,162,2,55.33521835507207,73.49390532166599,1.5801445609009952,70.61873298722628,2,b,1.692145900000014,correct,b
162,2F4K,163,2,38.65403157068312,51.75740301161855,1.116993621242062,54.03734610219677,2,b,2.4516270000003715,correct,b
163,2F4K,164,2,48.014675946769394,36.71823783184481,1.3570183960609747,40.656118476333496,1,v,1.5099703999999292,correct,v
164,2F4K,165,1,41.25176139649919,57.29256004864387,1.1789911115976262,58.75329597475355,1,c,2.3733359999996537,correct,c
165,2F4K,166,2,35.26155650185975,40.97213411135752,1.0409109815980488,44.44535817006773,2,v,1.9834350000000995,incorrect,b
166,2F4K,167,2,51.7391959109334,58.11868312966485,1.4662955007272631,59.43577900144001,2,v,3.7740536999999676,incorrect,b
167,2F4K,168,1,44.09976223490244,30.37381456950042,1.2509228953022478,35.152341175969745,2,n,3.053118000000268,correct,n
168,2F4K,169,2,46.62291958470515,65.94797873149011,1.318308106840393,65.53514192049164,2,b,3.7623876000002383,correct,b
169,2F4K,170,2,30.97400109410957,36.95192050044682,0.9521231106055208,40.86286727177492,2,b,2.0623484000002463,correct,b
170,2F4K,171,2,51.968425523937015,37.16966661342882,1.4733015699648986,41.05570365477117,1,b,1.1452039999999215,incorrect,v
171,2F4K,172,2,60.31962411853095,47.63086369227533,1.7527117169244126,50.40220735240523,1,b,3.4895744000000377,incorrect,v
172,2F4K,173,2,48.9755412880319,70.07299805363942,1.384405174158842,68.42435365423825,2,v,1.117079499999818,incorrect,b
173,2F4K,174,2,54.09912881979387,38.15707158117476,1.540046449225989,41.93223668816742,1,v,5.0,incorrect,v
174,2F4K,175,2,64.1458198621966,40.243789261942354,1.8978613461394291,43.79362715880498,1,b,1.2430763000002116,incorrect,v
175,2F4K,176,2,48.3899768591197,59.2858380869606,1.367650221211084,60.38879898907858,2,v,2.579719700000169,incorrect,b
176,2F4K,177,1,49.96071936405693,70.10289300931409,1.413058879122332,68.44435278393276,1,c,2.4765156000003117,correct,c
177,2F4K,178,2,47.16708855126377,62.27416307850355,1.3333103739632324,62.76317866377666,2,b,1.7892437999998947,correct,b
178,2F4K,179,2,60.19839999378417,42.83277648812855,1.748299071855624,46.11263368240383,1,b,3.6720250999997006,incorrect,v
179,2F4K,180,1,36.072492141056685,48.27734352536969,1.0586126246198495,50.97631395677982,1,c,3.362594600000193,correct,c
180,2F4K,181,2,60.28996922708033,46.96042489433961,1.7516312296753886,49.80546498417079,1,b,2.3556886999999733,incorrect,v
181,2F4K,182,1,53.77784564254003,44.47506597437302,1.5297918523770582,47.58442963613386,2,c,3.259433700000045,incorrect,n
182,2F4K,183,1,64.9282394641083,59.16255958422965,1.9289920317312128,60.288780815336665,2,n,3.2412450000001627,correct,n
183,2F4K,184,1,49.02416513254277,34.68599860892428,1.3858056602516915,38.86810031385124,2,n,2.5923812000000908,correct,n
184,2F4K,185,1,59.34727577147358,43.01432851933168,1.717628783962217,46.27538811609239,2,n,1.4797284999999647,correct,n
185,2F4K,186,2,54.59973778892254,40.77261730369008,1.5561618680745477,44.26675335986023,1,v,3.7813694000001306,correct,v
186,2F4K,187,1,48.13025597962688,67.905289532686,1.3602838026506714,66.93744751102612,1,n,1.6996917999999823,incorrect,c
187,2F4K,188,1,54.98776442198629,71.67846996208083,1.5687690004604105,69.47817076425599,1,c,5.0,incorrect,c
188,2F4K,189,1,53.56731916555603,68.57814616465423,1.5231094056186163,67.40662837875348,1,c,1.674340100000336,correct,c
189,2F4K,190,1,45.25088676300415,28.113752476113497,1.2812274410554507,33.26049157054191,2,c,1.1098254999997152,incorrect,n
190,2F4K,191,2,66.30506345223972,52.01045310801419,1.985017743922743,54.257553391663855,1,v,3.1011444000000665,correct,v
191,2F4K,192,1,53.47831933051541,34.94416104446506,1.52029319452354,39.09414782470203,2,n,3.33686200000011,correct,n
192,2F4K,193,2,45.32874341016653,32.543503713889216,1.2833034071201324,37.00662943262845,1,v,4.940508700000009,correct,v
193,2F4K,194,1,71.81463764020845,57.4767799249703,2.2259776837585363,58.90603349339845,2,c,2.5918712000002415,incorrect,n
194,2F4K,195,2,37.85174789755944,50.839499079659184,1.0985133761109227,53.23558477734793,2,b,3.0348798999998507,correct,b
195,2F4K,196,2,46.500178248958846,28.278038886891952,1.3149476341584505,33.3965007245331,1,v,1.92576390000022,correct,v
196,2F4K,197,1,43.49725030533126,22.406238166491278,1.235348000017331,28.708307499305096,2,n,3.1380575000002864,correct,n
197,2F4K,198,2,46.57891869933198,58.889472866767335,1.3171024425857851,60.06667177506523,2,b,5.0,correct,b
198,2F4K,199,1,59.996407993211925,45.25285662508384,1.740971082196341,48.28066353031581,2,c,1.3219285999998647,incorrect,n
199,2F4K,200,1,65.54940020669234,45.10239918251774,1.9540698060198416,48.14604636475161,2,n,1.0245875000000524,correct,n
200,2F4K,201,1,75.33988260975991,56.98855121859948,2.3952835968058555,58.50056901634908,2,n,2.1422271000001274,correct,n
201,2F4K,202,2,55.97762412283414,43.79617722872703,1.6013944637123678,46.976198300935806,1,b,4.558168300000034,incorrect,v
202,2F4K,203,2,60.74202881092945,45.82769579286639,1.7681747499378788,48.79464072939545,1,v,1.4800319999999374,correct,v
203,2F4K,204,2,52.95852724357941,69.03327180944717,1.503949179611588,67.72012445166132,2,v,0.6911819999995714,incorrect,b
204,2F4K,205,1,59.56713799980408,42.45369681790303,1.7254996007914982,45.77280950745046,2,c,4.357900599999994,incorrect,n
205,2F4K,206,2,47.89394293539826,33.431098665421686,1.3536157761880454,37.77448526355777,1,v,3.345163500000126,correct,v
206,2F4K,207,1,49.70148771309742,27.13802487982202,1.4054621790866688,32.45794527383377,2,n,1.5768543999997746,correct,n
207,2F4K,208,2,59.64302251373475,45.09710085006613,1.7282245438614858,48.14130523199777,1,v,3.193569099999877,correct,v
208,2F4K,209,2,62.44308345195284,77.2028906541037,1.831838736859568,72.77122279971194,2,v,2.064157299999806,incorrect,b
209,2F4K,210,1,36.04720967349423,48.36819386708461,1.0580562221019052,51.05688044330695,1,c,1.9773491000000831,correct,c
210,2F4K,211,2,78.66921926074389,63.25096161420355,2.566988046469286,63.51695812697407,1,b,2.373363199999858,incorrect,v
211,2F4K,212,2,46.8889096595076,63.909870007739485,1.325620014338755,64.01875957035529,2,b,1.0249509000000216,correct,b
212,2F4K,213,2,37.688110481767865,55.50275362012476,1.094781768324507,57.253885622875,2,b,0.6361554999998589,correct,b
213,2F4K,214,1,76.66776256795738,63.5595670429438,2.462344939510084,63.7526622411933,2,n,3.8371038999998746,correct,n
214,2F4K,215,1,34.31414536935141,46.73815747400252,1.0206048205858715,49.60735707827924,1,c,1.4080269999999473,correct,c
215,2F4K,216,2,27.58088382228999,42.71996231924508,0.8872585732353848,46.0115001219204,2,b,1.4245668000003207,correct,b
216,2F4K,217,1,37.26496200273925,54.12408438873136,1.0851909039064602,56.08123664519547,1,c,1.3705313000000388,correct,c
217,2F4K,218,2,59.2708393609332,46.156491094618936,1.71490086659691,49.08834657321909,1,v,2.0744824000003064,correct,v
218,2F4K,219,1,47.40102597543994,63.21449610963416,1.339812186425744,63.48902829977753,1,n,1.3826261999997769,incorrect,c
219,2F4K,220,1,43.373308988701886,54.51142170630049,1.232168252719235,56.41213805306565,1,c,0.8788908000001356,correct,c
220,2F4K,221,1,51.01451918796733,61.078009789676734,1.4443652095919886,61.82470832983498,1,c,1.1944932000001245,correct,c
221,2F4K,222,2,36.63238108873429,51.07610883907593,1.0710096155240598,53.44268893928232,2,v,1.0670125000001462,incorrect,b
222,2F4K,223,2,56.37391048619523,33.46991632086102,1.6146453463235655,37.8081779194723,1,b,1.7215823999999884,incorrect,v
223,2F4K,224,2,42.42673323117933,30.34813077706106,1.2081520188657096,35.1306017103203,1,b,0.9695609000000331,incorrect,v
224,2F4K,225,2,49.26914648386153,64.90472024238885,1.392883304723646,64.76584388816546,2,v,0.8425154000001385,incorrect,b
225,2F4K,226,2,54.50968608036825,40.11039478703249,1.5532505686027378,43.67435418967913,1,b,0.8303773000002366,incorrect,v
226,2F4K,227,2,75.55747094048265,56.676861446033215,2.4061459053865613,58.24060320359518,1,b,1.0852625999996235,incorrect,v
227,2F4K,228,1,49.70658087202641,58.79304816714371,1.4056110384322549,59.98806796642252,1,n,1.151853900000333,incorrect,c
228,2F4K,229,2,50.14561816456856,71.90296083963645,1.4185023541721773,69.62219034020298,2,v,1.0915153000000828,incorrect,b
229,2F4K,230,1,31.42753815489388,44.326445562302325,0.9611450963631016,47.451311608715,1,c,1.6254319999998188,correct,c
230,2F4K,231,2,51.34527631306064,69.01788899956306,1.454333652284334,67.70958004173046,2,b,1.8923589999999422,correct,b
231,2F4K,232,2,52.3610534106143,32.102213507547646,1.4853795305395143,36.62677360133507,1,b,3.02876839999999,incorrect,v
232,2F4K,233,2,52.09535051247583,68.54732037183405,1.4771952364570948,67.3852817776457,2,v,2.3066227999997864,incorrect,b
233,2F4K,234,1,66.63416120500001,49.62321687673287,1.9986485926348212,52.16662780892246,2,c,2.816405600000053,incorrect,n
234,2F4K,235,1,69.88361407514394,54.81397949025259,2.1383654341195046,56.66984130064445,2,n,0.9579407999999603,correct,n
235,2F4K,236,1,65.2775591157339,50.26101192837095,1.94305504731419,52.72804425919165,2,n,0.8728780000001279,correct,n
236,2F4K,237,1,40.11301755485981,22.70005523392189,1.151401124731319,28.93360949438523,2,c,2.2770376999997097,incorrect,n
237,2F4K,238,1,40.8606911753035,27.03369226934626,1.16944234380204,32.37267480332479,2,n,3.76409539999986,correct,n
238,2F4K,239,2,45.622881916327785,49.68953269350336,1.29117670694424,52.22508740278405,2,b,2.110932199999752,correct,b
239,2F4K,240,1,38.68448874745568,47.02117027838861,1.117701281143884,49.85958510019652,1,n,1.8856086000000687,incorrect,c
240,2F4K,241,1,51.901526036765816,66.01865684103637,1.4712534324626063,65.58672234202422,1,c,2.160741700000017,correct,c
241,2F4K,242,1,58.56496979584683,43.89872282290516,1.6899131384498547,47.0680941173867,2,n,3.3434809000000314,correct,n
242,2F4K,243,1,47.90811219282643,55.69858935547556,1.354014666231271,57.41925898260442,1,c,3.5325058000003082,correct,c
243,2F4K,244,1,51.75386210815979,48.43632769070937,1.4667427523910614,51.11728258679094,2,n,2.81163400000014,correct,n
244,2F4K,245,2,41.167140759487175,29.498279985566786,1.1769183397910865,34.41427512966789,1,b,1.5345255000001998,incorrect,v
245,2F4K,246,1,52.55149681409791,61.86110489723399,1.4912735329114415,62.4409821115796,1,n,1.558665000000019,incorrect,c
246,2F4K,247,1,50.39977218340431,36.44784886692284,1.4260189618500734,40.41716428770997,2,c,3.101658000000043,incorrect,n
247,2F4K,248,1,51.51253569107689,40.77037970801138,1.459400720102546,44.26475058891206,2,n,0.5876287000000957,correct,n
248,2F4K,249,1,45.84888111632383,59.070998284510736,1.2972588998175032,60.21439535942599,1,c,1.5896812999999383,correct,c
249,2F4K,250,2,52.14167218144623,40.048438217351176,1.478618803722253,43.618967180495744,1,b,3.8359559999998964,incorrect,v
250,2F4K,251,1,51.53397495839277,34.033150519843375,1.4600514908498894,38.29804968565453,2,n,2.268677000000025,correct,n
251,2F4K,252,2,56.76165018239201,32.987751228749104,1.6277165662621147,37.39032553385144,1,v,1.170509999999922,correct,v
252,2F4K,253,2,51.18874984751132,66.84437812784165,1.4496076714907888,66.18415530477,2,v,1.4979323000002296,incorrect,b
253,2F4K,254,1,63.775281640032055,51.04031016764578,1.883294278482329,53.41137317230853,2,c,2.616121799999746,incorrect,n
254,2F4K,255,2,61.84897168959564,46.08149874950086,1.8093470418911692,49.02137699824409,1,v,2.3012377000000015,correct,v
255,2F4K,256,2,51.87651125765445,39.859860109868535,1.470488332943448,43.450428533697234,1,v,1.904567600000064,correct,v
256,2F4K,257,2,62.26935022319117,46.08023147728898,1.8252328276928005,49.02024519873038,1,v,0.7029295000002094,correct,v
257,2F4K,258,1,51.42079977872587,38.79351684311701,1.4566194286991236,42.498825703204126,2,n,2.0868174000002,correct,n
258,2F4K,259,1,40.40045214316774,22.807861258243,1.1583036965760278,29.0165433501586,2,n,0.4482004000001325,correct,n
259,2F4K,260,1,63.63070079698794,56.54261103873952,1.8776407059078943,58.128369396247095,2,n,1.6132190999996965,correct,n
260,2F4K,261,2,19.79729775883193,35.2154693956937,0.7546705769779273,39.33207076899495,2,b,1.1398604000000887,correct,b
261,2F4K,262,2,29.521781253561272,40.58965122447415,0.923800631561712,44.10301165829597,2,b,0.7453734000000622,correct,b
262,2F4K,263,1,51.23284372405051,38.726402381388255,1.4509374355635305,42.4390246494232,2,n,1.4068849999998747,correct,n
263,2F4K,264,1,72.23628060545732,55.64570452597249,2.2455804643728303,57.374630951692254,2,c,2.810299899999791,incorrect,n
264,2F4K,265,1,65.26364688776025,51.575557078062,1.942493009304176,53.87887545404757,2,n,0.4480165999998462,correct,n
265,2F4K,266,2,44.16551890542788,35.77275883270385,1.2526345416086868,39.821903843284254,1,b,2.8170211999999992,incorrect,v
266,2F4K,267,1,39.89552983515879,51.37983540456335,1.1462056358450066,53.70810631565616,1,n,2.015299600000162,incorrect,c
267,2F4K,268,1,40.44429277886263,56.24978438801583,1.159360134483179,57.88302749604239,1,c,0.9031731000000036,correct,c
268,2F4K,269,2,31.339215657528012,39.9639125201779,0.9593814632024924,43.54341544569751,2,b,2.7974515000000792,correct,b
269,2F4K,270,2,50.39038459462217,64.8989071789596,1.4257406166830249,64.76151627412385,2,b,1.4271205999998529,correct,b
270,2F4K,271,1,47.561044414692,58.73627160161754,1.3442778235049555,59.94174133515149,1,c,4.230472400000053,correct,c
271,2F4K,272,1,65.5407605724891,56.2714856227914,1.9537187769091944,57.90123472502176,2,c,1.6314848000001803,incorrect,n
272,2F4K,273,1,46.2632945317494,40.46408839213482,1.3084863151176178,43.99067000640738,2,n,0.9578422999998111,correct,n
273,2F4K,274,2,56.34664448289591,44.4984361275125,1.6137301332159062,47.60536002956715,1,b,3.860110299999633,incorrect,v
274,2F4K,275,2,30.54552486295101,39.177430257850325,0.9436774576536576,42.84112596945354,2,b,1.0225602999998955,correct,b
275,2F4K,276,2,44.60613123295536,31.028505100177966,1.2641642633135517,35.70822263518417,1,b,0.7635055000000648,incorrect,v
276,2F4K,277,2,50.7816081753706,61.5051440836866,1.4373867031334804,62.1617230324421,2,b,0.806092499999977,correct,b
277,2F4K,278,1,49.0700578296322,33.030486467124554,1.3871287821917198,37.42730240945252,2,n,2.555429600000025,correct,n
278,2F4K,279,1,33.870062408520766,51.36142591496971,1.0112234833149274,53.6920330028578,1,n,0.9941465000001699,incorrect,c
279,2F4K,280,2,58.537489158454655,36.25396753771011,1.6889477239478317,40.246008257122,1,v,1.473789300000135,correct,v
280,2F4K,281,1,46.13673951636412,32.63475117521911,1.3050473803796978,37.08533553280491,2,n,3.3919980999999098,correct,n
281,2F4K,282,2,28.56394798197461,37.679671944207385,0.9055827858434796,41.50803467734771,2,b,0.9153053999998519,correct,b
282,2F4K,283,2,41.46041160286367,58.57258349353046,1.184117583194582,59.80800199280711,2,b,1.145246600000064,correct,b
283,2F4K,284,1,41.15071514869612,50.63540123350274,1.1765164190604438,53.056707393808125,1,c,2.2145713999998407,correct,c
284,2F4K,285,2,29.80451334568992,44.76375197964478,0.9292478822886988,47.842935145279085,2,b,1.2066792000000532,correct,b
285,2F4K,286,1,50.66424277509262,66.6653778668726,1.4338829736054084,66.05545935020055,1,c,1.0003071000001,correct,c
286,2F4K,287,2,44.4955997838403,63.98181554674783,1.2612619981758983,64.07321754599351,2,b,1.5586263000000145,correct,b
287,2F4K,288,1,72.81186703760926,51.43971478027464,2.272619270345726,53.7603741249926,2,n,2.336208799999895,correct,n
288,2F4K,289,2,45.45833047740036,59.5693870631177,1.2867661719633958,60.61825542970895,2,b,2.0456316999998307,correct,b
289,2F4K,290,1,52.45065837607518,40.92135857893265,1.4881497928716372,44.39989976970181,2,n,1.0427699000001667,correct,n
290,2F4K,291,1,42.03028976226056,31.535781664953348,1.19823318362264,36.14116154491781,2,c,1.213065800000095,incorrect,n
291,2F4K,292,2,53.538049079711904,37.68502025320148,1.522182640560853,41.512782924018246,1,b,2.245929299999716,incorrect,v
292,2F4K,293,1,44.88257959956939,67.82677778859295,1.271452343459564,66.88226326382862,1,c,1.3279938999999104,correct,c
293,2F4K,294,1,71.2122784538793,57.96239665325301,2.198269632899714,59.30715690690998,2,c,1.1155878999998095,incorrect,n
294,2F4K,295,2,41.23574099159955,24.40007970232449,1.1785984138614598,30.25762889094589,1,v,1.5528008999999656,correct,v
295,2F4K,296,2,61.48510836155885,47.213746009787485,1.7957085953028498,50.03109097910302,1,b,1.0730923000000985,incorrect,v
296,2F4K,297,2,45.451305040856944,23.03316997780797,1.2865782022221062,29.19032933969528,1,b,1.546482499999911,incorrect,v
297,2F4K,298,1,49.26720947827038,57.45250823502644,1.3928272020476826,58.88592747812936,1,n,1.9652461000000585,incorrect,c
298,2F4K,299,1,71.84754485398987,61.75703223873977,2.2275014110061924,62.35948681255213,2,n,1.170172900000125,correct,n
299,2F4K,300,2,41.72132339645092,57.12221284147592,1.1905594823656138,58.611786139867206,2,b,1.340157999999974,correct,b
300,2F4K,301,1,42.76071562650925,52.46078518018562,1.2165718005033443,54.64850309008504,1,c,1.7590135999998893,correct,c
301,2F4K,302,1,57.47439683320058,51.54537459717189,1.6520208614568157,53.85255477871095,2,c,0.6118622999997569,incorrect,n
302,2F4K,303,2,33.61938489329891,53.670140029444426,1.005966001085275,55.69206657467716,2,b,1.6253891000001204,correct,b
303,2F4K,304,2,60.52425681366839,54.4249208989651,1.7601857766890032,56.33833571946086,1,b,4.582416799999919,incorrect,v
304,2F4K,305,2,42.68975386437555,59.52955423032279,1.2147779408260206,60.58607166818832,2,b,1.291756599999644,correct,b
305,2F4K,306,2,59.55518455316331,48.7208724507121,1.7250707553953657,51.369354885493735,1,v,0.7456398999997873,correct,v
306,2F4K,307,2,50.16660380141779,67.98398853215676,1.4191215010581215,66.9926720351811,2,b,0.7939003000001321,correct,b
307,2F4K,308,2,45.68375538280255,36.84500789984667,1.292812149642502,40.76825094207477,1,v,0.6734228000000257,correct,v
308,2F4K,309,2,39.01975168887981,61.15317998412422,1.1255206690454385,61.88416864811435,2,b,0.7818293999998787,correct,b
309,2F4K,310,2,58.54989819329522,44.65344735806585,1.6893835939301125,47.74417355380274,1,v,0.7027610000000095,correct,v
310,2F4K,311,2,58.0669165035722,75.87717010821217,1.672501488806029,72.030020223844,2,b,0.5694017000000713,correct,b
311,2F4K,312,2,40.96044294247834,60.21957377248732,1.1718706118817046,61.1412285888269,2,v,0.7634784999995645,incorrect,b
312,2F4K,313,2,70.83115788495964,62.12785735087856,2.180916804579017,62.6492865674926,1,b,4.770593799999915,incorrect,v
313,2F4K,314,2,40.36493921309527,52.581235027131896,1.157448639082657,54.75286121656312,2,b,1.522296600000118,correct,b
314,2F4K,315,1,48.88194659767044,63.386188365044696,1.3817134001968046,63.62038712869467,1,c,1.3340799000002335,correct,c
315,2F4K,316,1,47.14824694331993,35.377739466100735,1.3327880849849294,39.47454653384998,2,n,1.060951599999953,correct,n
316,2F4K,317,1,50.263518117725305,37.51957296539331,1.4219843070492446,41.36594297307624,2,n,0.8054941000000326,correct,n
317,2F4K,318,2,51.19770739403736,39.8806739092128,1.449877710630046,43.46902722337996,1,v,2.366689299999962,correct,v
318,2F4K,319,2,61.00250326157728,46.15607000512207,1.7777779001285865,49.08797056564107,1,b,0.6179721000003155,incorrect,v
319,2F4K,320,2,34.38711600714229,48.672234096688335,1.022154643259114,51.32628846450009,2,v,0.8364341999999851,incorrect,b
320,2F4K,321,1,46.586295435580055,66.06306138304416,1.3173044949034172,65.6190931003953,1,n,3.4169326000001092,incorrect,c
321,2F4K,322,2,50.49197626936582,46.46489248478224,1.4287557336902523,49.36362563626231,1,v,1.534384399999908,correct,v
322,2F4K,323,1,54.71208649664325,37.79031440120315,1.5598016634602003,41.60628274794751,2,c,1.8011606000000029,incorrect,n
323,2F4K,324,2,70.58435466750107,57.52211219846781,2.1697527312406764,58.94357103140875,1,b,2.5258647999999084,incorrect,v
324,2F4K,325,1,49.51598098842761,39.22049784091319,1.400051046698101,42.87954792725214,2,c,2.622129500000028,incorrect,n
325,2F4K,326,1,46.63407318485111,61.19239655376712,1.3186139009208315,61.91516400990688,1,n,0.49656659999982367,incorrect,c
326,2F4K,327,1,37.68498617125162,54.80712864393112,1.0947106446222543,56.66401372553732,1,n,1.3579392999999982,incorrect,c
327,2F4K,328,1,63.4191982377304,46.757036139509616,1.8694008397895563,49.624188631628925,2,c,1.1458697000002758,incorrect,n
328,2F4K,329,2,39.171507465997855,56.39389500874605,1.129078053880656,58.00386070832979,2,v,2.4219467000002624,incorrect,b
329,2F4K,330,2,28.82649618276787,47.85048384410107,0.910540368722508,50.59739431230145,2,b,0.5147848999999951,correct,b
330,2F4K,331,1,54.71724954226812,39.14918922885602,1.559969136680544,42.81593364448635,2,n,1.1459522000000106,correct,n
331,2F4K,332,2,32.02011343432984,39.82085050289045,0.9730618426174508,43.41557279433873,2,b,0.8356801999998424,correct,b
332,2F4K,333,1,46.22422923491328,61.93760812696552,1.3074238109460292,62.50080820975654,1,n,0.5815504999995937,incorrect,c
333,2F4K,334,2,44.29532113315313,62.97149114267396,1.2560201715939738,63.302484667877486,2,b,1.3704995000002782,correct,b
334,2F4K,335,1,35.69138819203821,51.45004712942694,1.0502564498572773,53.76939108507292,1,c,1.825673100000131,correct,c
335,2F4K,336,1,56.60374816459571,46.06901620964169,1.6223807560291348,49.01022870884464,2,c,2.1427965000002587,incorrect,n
336,2F4K,337,2,40.17039060743221,25.11862332185749,1.1527756110250575,30.82729062808861,1,b,1.3461994999997842,incorrect,v
337,2F4K,338,2,42.416450561509336,26.767739542173334,1.2078937168745458,32.15580152298062,1,v,1.0609801000000516,correct,v
338,2F4K,339,1,63.95924097383918,49.41486036876732,1.8905122913985573,51.9828308369334,2,n,3.0715948000001845,correct,n
339,2F4K,340,1,56.867785054911735,69.89816077428888,1.6313129244250624,68.30710955473059,1,n,1.310026999999991,incorrect,c
340,2F4K,341,1,48.96943322163538,71.25805901882546,1.384229346943313,69.20623826178621,1,n,1.1277365000000827,incorrect,c
341,2F4K,342,2,52.07450261219695,38.516085009026256,1.4765549817190438,42.25170419481498,1,v,2.9742191000000275,correct,v
342,2F4K,343,1,72.66157856631453,62.79789637180339,2.2655280558159685,63.16877951218749,2,c,1.2187667000002875,incorrect,n
343,2F4K,344,2,51.15584435606246,38.69371463475825,1.4486161160514823,42.40990320373391,1,v,2.1230296000003364,correct,v
344,2F4K,345,1,43.787031061971376,48.380747196564336,1.2428144596571944,51.06801049446885,1,n,1.2730985000002875,incorrect,c
345,2F4K,346,2,52.65017219574216,34.64529720848475,1.4943366139053162,38.83249371511288,1,v,1.9834749000001466,correct,v
346,2F4K,347,1,48.26312820806388,26.766972850710506,1.3640474643313665,32.15517733978871,2,c,1.0131836999998995,incorrect,n
347,2F4K,348,1,38.92016897368416,48.594864077974094,1.1231923924589746,51.257763580785046,1,n,1.2915467000002536,incorrect,c
348,2F4K,349,1,41.475455988038185,27.31162680635897,1.1844880795359718,32.60006594899682,2,n,0.8786872999999105,correct,n
349,2F4K,350,2,35.23847602855079,45.60683213054878,1.040411521495293,48.59722980453224,2,b,1.0184862999999496,correct,b
350,2F4K,351,2,41.04717184477841,53.50672199513768,1.1739859602874296,55.551616401905406,2,b,2.051679400000012,correct,b
351,2F4K,352,1,36.768028074136815,49.93509560646933,1.074034876765342,52.44138938079536,1,c,1.0245906999998624,correct,c
352,2F4K,353,2,55.86355337297158,46.84161113960202,1.5976004023023218,49.69958162878839,1,v,1.067095999999765,correct,v
353,2F4K,354,1,71.42475541658048,49.02183169249487,2.208003811454654,51.6356349530139,2,n,1.2248664999997345,correct,n
354,2F4K,355,1,55.76578632348066,40.00575714218508,1.5943557661834482,43.58081584091327,2,c,2.1655155000003106,incorrect,n
355,2F4K,356,2,73.06889473645751,57.72979640109909,2.2847983491712154,59.11530173828686,1,v,1.1338200000000143,correct,v
356,2F4K,357,2,43.19393459055405,53.12308844966412,1.2275808434988635,55.22119351651878,2,b,0.823529100000087,correct,b
357,2F4K,358,2,50.59817966536628,36.17233723499946,1.4319145382084244,40.1739935937752,1,v,1.3281070000002728,correct,v
358,2F4K,359,2,43.73622254062512,58.07650592624709,1.2415020779564907,59.401090531926926,2,b,0.7871633999998267,correct,b
359,2F4K,360,2,57.88751342322264,51.66425271187821,1.6662737084022203,53.95619307804644,1,v,1.09749869999996,correct,v
360,2F4K,361,1,21.41267477941195,36.65416652088301,0.7804511523865223,40.5994693190166,1,c,3.0649920999999267,correct,c
361,2F4K,362,1,43.54497635173761,60.753716718460254,1.2365746114657847,61.5674639549198,1,c,3.169849599999907,correct,c
362,2F4K,363,1,46.079619362400805,67.97412932998992,1.3034981911582146,66.98575867154976,1,c,0.8561202000000776,correct,c
363,2F4K,364,1,65.60123244071701,60.9470211847018,1.9561770789320312,61.72094339968592,2,c,1.121642999999949,incorrect,n
364,2F4K,365,2,47.19345022470078,57.740661972864615,1.3340414625263186,59.12427526653112,2,b,1.2298493999996936,correct,b
365,2F4K,366,1,59.40645525097513,71.26470480962067,1.7197438036561012,69.21055935359753,1,n,1.0063638000001447,incorrect,c
366,2F4K,367,2,60.16016437858671,70.62599787342354,1.7469095739854303,68.7920097094728,2,v,0.8971125000002758,incorrect,b
367,2F4K,368,1,64.5080802417711,48.18626727747912,1.912211905505928,50.89551815680829,2,n,0.9393772999997054,correct,n
368,2F4K,369,2,51.97689427837373,61.582098620909385,1.473561045339901,62.22221969871179,2,b,1.1219421000000693,correct,b
369,2F4K,370,1,53.28265846795285,37.261685953948415,1.514120215038281,41.13724883411415,2,c,2.0380709999999453,incorrect,n
370,2F4K,371,1,46.23537471238119,58.15463948584501,1.307726859427329,59.4653377306319,1,c,1.170201100000213,correct,c
371,2F4K,372,2,35.377235432048586,48.74161424410936,1.043417881635452,51.38771781515117,2,b,2.1594678000001295,correct,b
372,2F4K,373,1,66.56133730208674,52.9542108356151,1.995624268624273,55.07543173850252,2,c,2.688920099999905,incorrect,n
373,2F4K,374,1,43.19314937831956,62.54945036888382,1.2275607996864053,62.976784631585815,1,c,1.5344986999998582,correct,c
374,2F4K,375,1,27.02676153477337,42.89216589170453,0.8770936798065394,46.165874136730864,1,c,1.1155786999997872,correct,c
375,2F4K,376,1,54.33417554171756,70.43518472757235,1.547592096642954,68.66569828733599,1,n,0.6736056999998254,incorrect,c
376,2F4K,377,2,41.780429313564426,25.36826693193807,1.1920236664834585,31.026545606888973,1,b,0.9035365999998248,incorrect,v
377,2F4K,378,1,36.38401078874976,43.311559880049685,1.0654924155359404,46.54183560619886,1,c,1.9349071000001459,correct,c
378,2F4K,379,1,48.91544571726347,59.39035348928763,1.3826762296144033,60.47347249124474,1,c,1.2363992000000508,correct,c
379,2F4K,380,1,34.38315363389921,47.4450383703956,1.0220704260564135,50.2369390416823,1,c,1.2309111999998095,correct,c
380,2F4K,381,2,34.23780966513899,46.871149692233786,1.018986042177651,49.72590896497967,2,b,0.7878664999998364,correct,b
381,2F4K,382,2,23.987297102698893,42.91676179447356,0.8233734949879872,46.18792345913429,2,b,0.618155999999999,correct,b
382,2F4K,383,1,51.80169600753393,72.50899559896007,1.4682024149279966,70.0068162437573,1,c,1.1398747999996885,correct,c
383,2F4K,384,2,31.25232035121688,42.06159595412859,0.9576494865039816,45.421352499398026,2,b,0.6179431999998997,correct,b
384,2F4K,385,2,55.31941944686627,44.01271504611793,1.5796255227573894,47.17023942369893,1,v,3.3861062999999376,correct,v
385,2F4K,386,2,43.69488057623381,47.63390260298258,1.2404352396263782,50.40490920853141,2,b,2.3907931000003373,correct,b
386,2F4K,387,1,76.40368760556362,59.73707400704123,2.4488605601516458,60.7535602125682,2,n,2.732301600000028,correct,n
387,2F4K,388,1,59.356566549991314,72.0735995775721,1.7179606555590188,69.73110521901009,1,n,2.885293499999989,incorrect,c
388,2F4K,389,1,23.900158420676934,42.58453523467764,0.8218828947907468,45.89009652932809,1,c,0.9577831999999944,correct,c
389,2F4K,390,2,55.88009283554768,65.5026872562569,1.5981499570396556,65.20859089408358,2,b,3.1197230999996464,correct,b
390,2F4K,391,1,60.16885935178711,49.18295565288344,1.747225455819417,51.77804597904546,2,n,1.1046062000000347,correct,n
391,2F4K,392,2,62.14523243065562,44.66432095322731,1.82052805438194,47.75390990474288,1,b,1.4182455999998638,incorrect,v
392,2F4K,393,2,33.043796384129564,46.670384583110405,0.9939973368045232,49.546925816749216,2,b,0.9092754000002969,correct,b
393,2F4K,394,1,36.31444760899787,42.83539271096156,1.0639522676193176,46.11497903146096,1,c,1.1826046000001043,correct,c
394,2F4K,395,1,69.0619727586984,53.02651263864854,2.1021406243696523,55.13785961492884,2,n,0.4798769000003631,correct,n
395,2F4K,396,1,69.72084452100364,55.65083084860278,2.131139948437797,57.37895790453455,2,n,0.6422715000003336,correct,n
396,2F4K,397,2,45.02443079188089,32.252901045639504,1.2752082992549545,36.7563356921988,1,b,0.9882048000004033,incorrect,v
397,2F4K,398,2,55.8918176765969,47.39691292596946,1.5985396514271908,50.19412064274764,1,v,0.7150538000000779,correct,v
398,2F4K,399,1,55.75489777332753,38.59121448261019,1.593994811365862,42.3186047824069,2,c,1.862067499999739,incorrect,n
399,2F4K,400,2,58.27403196326392,49.07384121256528,1.6797202271617897,51.6816154915461,1,b,1.1641864000002897,incorrect,v
