,condition,trial,sub_task,x,y,xt,yt,cat,resp,rt,acc,correct_resp
0,4F4K,1,2,27.84150862036344,47.6006094451935,0.8920801604381896,50.01818529848421,2,v,1.9471934000002875,incorrect,b
1,4F4K,2,2,37.93916646642544,49.51123260221799,1.1005120896373193,51.670875115466856,2,b,2.792105200000151,correct,b
2,4F4K,3,1,51.5769015948212,37.76584028776736,1.4613553647602004,41.43449838318464,2,c,1.9763591000000815,incorrect,n
3,4F4K,4,1,47.19919152149255,59.942315122281215,1.3342007391226154,60.313283694062434,1,n,1.4434723000003942,incorrect,c
4,4F4K,5,2,55.03382666574436,49.47516092023577,1.570272345996173,51.639800903340905,1,v,1.584432100000413,correct,v
5,4F4K,6,1,32.376476036998845,51.43144607310445,0.9802993565311764,53.31646783435913,1,c,1.7590259999997215,correct,c
6,4F4K,7,2,40.61117055263941,56.64574095624515,1.1633902483982927,57.67281762360496,2,v,4.922275500000069,incorrect,b
7,4F4K,8,1,63.34980577482999,70.10698293645058,1.866705285081224,67.66427042786971,1,n,1.759387300000526,incorrect,c
8,4F4K,9,1,44.21518641979911,57.44760770471384,1.2539289395562254,58.324366674687326,1,c,2.0381313999996564,correct,c
9,4F4K,10,2,44.450755979973145,34.96725001347282,1.2600864186962863,39.022519561559584,1,v,1.7349186999999802,correct,v
10,4F4K,11,1,53.88093166323186,46.07808054379017,1.5330746521720109,48.693167175904165,2,c,1.6911998000005042,incorrect,n
11,4F4K,12,1,53.76462664820715,38.06353684328391,1.5293713990558435,41.692788596721165,2,n,1.3584489000004396,correct,n
12,4F4K,13,1,32.72893117834529,44.493733020510895,0.987510460363667,47.30937366497508,1,c,1.704467100000329,correct,c
13,4F4K,14,2,77.21044014271507,61.989675299227386,2.490289045529472,61.89777977521467,1,b,2.587137900000016,incorrect,v
14,4F4K,15,2,54.28619593851961,40.5957370541902,1.5460488219328734,43.89895612552884,1,b,2.9753105999998297,incorrect,v
15,4F4K,16,1,61.67079317947421,68.69584975302361,1.8026556016170567,66.72777941431983,1,n,1.898619399999916,incorrect,c
16,4F4K,17,1,52.558337387367786,73.09787011637863,1.4914856752800367,69.54643297475695,1,n,1.2309360999997807,incorrect,c
17,4F4K,18,1,63.44099623368356,51.25735601684127,1.8702483874869176,53.16802618181788,2,c,1.2991480000000593,incorrect,n
18,4F4K,19,1,51.03514850186031,39.46100816147185,1.444984938383028,42.908584236557466,2,n,1.2188088000002608,correct,n
19,4F4K,20,1,64.8710139572312,51.60018294123782,1.926697952441253,53.46018971432223,2,c,0.933623599999919,incorrect,n
20,4F4K,21,1,36.27359549107736,55.50801144157273,1.0630488283071309,56.73907265711971,1,n,3.4218756000000212,incorrect,c
21,4F4K,22,1,73.36461897070527,60.143543940584536,2.2988918056997965,60.47101987361116,2,n,1.9835491000003458,correct,n
22,4F4K,23,1,34.70936599190154,58.20814563842297,1.0290271020327852,58.93702034014355,1,c,1.9587744000000384,correct,c
23,4F4K,24,2,48.83802675011719,63.18075190515101,1.3804520746078923,62.79775098090682,2,v,2.348917999999685,incorrect,b
24,4F4K,25,2,65.17695441311812,53.98276420903185,1.938994394063692,55.47155806570277,1,b,1.686132699999689,incorrect,v
25,4F4K,26,2,69.81259635396982,48.328117935899805,2.135209886514728,50.64900474428245,1,v,4.6491752000001725,correct,v
26,4F4K,27,2,52.37524263055472,36.98491559952181,1.4858178661390051,40.7583396409436,1,b,2.9389581999994334,incorrect,v
27,4F4K,28,1,53.43076557089351,64.3309455416196,1.518790591645253,63.65055007894541,1,n,4.235488400000577,incorrect,c
28,4F4K,29,2,55.96922753131287,62.39051015114284,1.6011148811050142,62.202510079305206,2,b,3.696396999999706,correct,b
29,4F4K,30,1,31.65236544976109,54.64797486771391,0.965649116228091,56.026466009154376,1,n,5.0,correct,c
30,4F4K,31,1,50.15280620408467,64.59629379733136,1.4187143950972536,63.84493469779625,1,c,0.9639830000005531,correct,c
31,4F4K,32,2,39.375750986485805,53.81964129938304,1.13388358669608,55.33500955929284,2,b,1.505485900000167,correct,b
32,4F4K,33,1,53.53427589728304,72.61997885968137,1.5220632130869305,69.25538540114738,1,n,1.8925408000004609,incorrect,c
33,4F4K,34,2,72.07797033843309,53.3550887504416,2.238200236477734,54.945152142510985,1,v,2.4158382000005076,correct,v
34,4F4K,35,1,61.18288991487904,36.585441413479614,1.7844589298164826,40.41331051506253,2,c,2.1343949000001885,incorrect,n
35,4F4K,36,2,48.69640282738242,61.60705464253612,1.3763926420539552,61.605176505195104,2,b,1.3840884000001097,correct,b
36,4F4K,37,1,56.21561044254244,69.7391579869062,1.6093390647009864,67.42306934315197,1,n,0.7940915999997742,incorrect,c
37,4F4K,38,1,45.84360509513684,59.24007072095379,1.2971165830463258,59.75956172751118,1,c,2.1416454999998678,correct,c
38,4F4K,39,2,39.436371015397256,56.852830790560525,1.1353138140475818,57.84162126570087,2,b,2.3234207999994396,correct,b
39,4F4K,40,2,33.03915244005701,53.43902795713017,0.9939013530026606,55.01570102526162,2,v,1.7529435999995258,incorrect,b
40,4F4K,41,2,45.53231405518055,34.09881735159735,1.2887473148181636,38.28130169893335,1,b,2.94359809999969,incorrect,v
41,4F4K,42,2,43.330616638120375,58.07046952781107,1.2310748653898416,58.82651010808136,2,v,1.3766679000000295,incorrect,b
42,4F4K,43,2,50.67895910162556,40.35425842686469,1.4343218339014332,43.68801228299584,1,b,1.5648316999995586,incorrect,v
43,4F4K,44,1,56.29988607485597,62.09009703130864,1.6121618437590868,61.97429869969104,1,c,0.8745761999998649,correct,c
44,4F4K,45,2,28.84702683739681,43.28112761220487,0.9109291823037716,46.24837733226156,2,b,1.7106276999993497,correct,b
45,4F4K,46,2,60.119082222077125,46.75070616189838,1.7454178623326226,49.27924944024016,1,v,1.7468589000000065,correct,v
46,4F4K,47,2,47.66951814372251,61.90388672019834,1.3473134631774946,61.8323192969734,2,b,2.329430499999944,correct,b
47,4F4K,48,2,61.09478376917595,46.06918095242527,1.7811925874988268,48.68540605561903,1,v,0.9390733999998702,correct,v
48,4F4K,49,1,58.82588373718592,44.33294142559713,1.699106769264934,47.16874851173844,2,n,2.404520200000661,correct,n
49,4F4K,50,2,60.35830208613218,42.77218232922988,1.754121964984909,45.8028816882168,1,v,1.837856300000567,correct,v
50,4F4K,51,2,52.09961082511148,61.82506418208316,1.4773261080299285,61.77210007169101,2,b,1.0307194000006348,correct,b
51,4F4K,52,1,47.72196035840847,63.78660487482968,1.3487835169167668,63.248999423868334,1,c,1.208138200000576,correct,c
52,4F4K,53,1,22.79774407411966,39.98133692783716,0.8032563145894026,43.36243086850912,1,n,3.356508099999701,incorrect,c
53,4F4K,54,1,51.66680743068626,36.04193618657109,1.464089981485189,39.94489955980424,2,c,1.680124700000306,incorrect,n
54,4F4K,55,2,52.05277711362593,42.7504144880497,1.4758880705451216,45.78382733641087,1,b,1.5647979999994277,incorrect,v
55,4F4K,56,1,63.06874617383089,50.05120515083335,1.8558272011394192,52.13537143818882,2,c,3.521399299999757,incorrect,n
56,4F4K,57,1,45.250787203865606,28.18253225263649,1.2812247885662276,33.36209361909693,2,n,3.169385500000317,correct,n
57,4F4K,58,1,54.27441973382158,39.6646897464044,1.5456702729424463,43.0861772454899,2,n,1.7347105000008014,correct,n
58,4F4K,59,2,67.17736254669313,53.12744389397373,2.021352421215532,54.75359124367576,1,v,3.047001399999317,correct,v
59,4F4K,60,1,63.87906942293247,47.62106808708762,1.887363205219947,50.03594766761635,2,n,1.4616355999996813,correct,n
60,4F4K,61,1,27.67601187302685,44.03453857577764,0.8890154250628061,46.90770929678788,1,c,2.226239199999327,correct,c
61,4F4K,62,1,32.93873039034695,53.98467175893105,0.9918280360094754,55.47315377252249,1,c,1.3402429999996457,correct,c
62,4F4K,63,1,49.98516355374267,64.84567729013655,1.413777323251845,64.02680118057386,1,n,1.6375950000001467,incorrect,c
63,4F4K,64,2,39.07042707646557,58.17936759848031,1.126707328522101,58.91393536552129,2,v,1.3584801999995761,incorrect,b
64,4F4K,65,1,55.810041737630655,38.73326459614086,1.595823672063976,42.2748182052523,2,n,1.0671328999997058,correct,n
65,4F4K,66,2,53.21239038953503,37.67245475805533,1.51190942297163,41.35353221058849,1,b,1.456978999999592,incorrect,v
66,4F4K,67,2,48.14721590101798,59.932059349721015,1.3607636207891214,60.30523328119678,2,b,1.1703593000002002,correct,b
67,4F4K,68,1,40.28972360793523,58.5996678144873,1.1556397297042158,59.25031092415295,1,n,1.9762233999999808,incorrect,c
68,4F4K,69,1,51.858544455322,61.04648693994646,1.469939047660609,61.17352047864066,1,c,3.514276500000051,correct,c
69,4F4K,70,2,62.05612222969307,42.598336428572345,1.8171577493860056,45.65070795723523,1,v,1.9586406999997052,correct,v
70,4F4K,71,2,61.705796471101706,47.78981289412536,1.803968183572966,50.18240489966124,1,v,1.3280900999998266,correct,v
71,4F4K,72,1,63.93837358693303,47.47203271739587,1.8896921285982808,49.90652542457719,2,c,1.425201900000502,incorrect,n
72,4F4K,73,2,29.45797973416453,39.956392272105134,0.9225758237962572,43.34066143982899,2,b,1.3223366000001988,correct,b
73,4F4K,74,1,44.77841386383948,61.24660516907443,1.268701274873678,61.32801871031381,1,n,0.7531418999997186,incorrect,c
74,4F4K,75,1,59.64473885132842,48.324202712857634,1.7282862257056175,50.6456145386359,2,c,1.7953702000004341,incorrect,n
75,4F4K,76,2,70.52435159180199,54.51604500050194,2.1670471563532763,55.91666395137423,1,v,1.1220213999995394,correct,v
76,4F4K,77,1,71.27718828836404,54.84422827932574,2.201238777222656,56.189567077338495,2,c,2.2580323000001954,incorrect,n
77,4F4K,78,1,40.38877457574112,32.55566234070139,1.1580224619353188,36.97465493776061,2,n,2.7253528000001097,correct,n
78,4F4K,79,2,68.27879648427954,56.70205539992055,2.068183069627859,57.71875706514147,1,v,2.220306900000651,correct,v
79,4F4K,80,2,30.501255822526083,47.052803917675,0.942809156204922,49.542127266156,2,b,1.340220500000214,correct,b
80,4F4K,81,2,54.91649781011667,39.96011454362006,1.566445888900898,43.34390982796893,1,v,3.064956400000483,correct,v
81,4F4K,82,2,57.81152821640338,66.22129422346102,1.6636429616360933,65.01530818013995,2,v,1.836761900000056,incorrect,b
82,4F4K,83,1,45.917247185868135,65.03205899594623,1.2991044366929374,64.16219727655981,1,n,1.6133066000002145,incorrect,c
83,4F4K,84,1,61.851282180529005,51.782488883329165,1.8094339746159296,53.61529387621611,2,c,1.6558101000000534,incorrect,n
84,4F4K,85,1,47.87428080469395,34.32497394042781,1.353062446564592,38.47394722546062,2,n,1.2856388000000152,correct,n
85,4F4K,86,2,29.360463847439764,46.05036752686285,0.9207069330830336,48.66899878963785,2,b,1.0550098000003345,correct,b
86,4F4K,87,2,49.3457004734354,59.17310077123513,1.3951023951455184,59.70649586479946,2,b,1.7360970999998244,correct,b
87,4F4K,88,1,33.96379524877237,45.058338256116656,1.013196400946458,47.8029368352106,1,n,2.179129799999828,incorrect,c
88,4F4K,89,2,53.51849163062478,65.2314332811711,1.5215637164787943,64.3065301436141,2,v,1.7158055999998396,incorrect,b
89,4F4K,90,2,44.6916098110628,59.13919665329686,1.266413284494348,59.67961381628483,2,b,1.1889325000001918,correct,b
90,4F4K,91,2,40.00611250376043,57.84029156110872,1.1488443706635487,58.64135687133694,2,b,0.7455476999994062,correct,b
91,4F4K,92,2,52.15399015874884,69.89429115058628,1.4789975932489647,67.52505040971565,2,v,0.8122354999995878,incorrect,b
92,4F4K,93,1,49.22661485356245,59.93474482308051,1.3916519549254365,60.307341386551,1,n,4.109032800000023,incorrect,c
93,4F4K,94,2,62.16530073548586,47.5716679643111,1.821287935059558,49.99305591783958,1,v,1.9835555999998178,correct,v
94,4F4K,95,2,60.79815034147947,41.20630149083281,1.7702394398954318,44.4326669075306,1,b,1.414506199999778,incorrect,v
95,4F4K,96,1,56.670679142692784,38.99596700273417,1.624640342325341,42.5034500627664,2,c,2.2641297000000122,incorrect,n
96,4F4K,97,1,30.8651272067673,48.81904171314645,0.9499699717891626,51.073666366384245,1,n,1.8870860999995784,incorrect,c
97,4F4K,98,2,62.17382586302303,39.08118149722424,1.821610832577442,42.57764956514999,1,v,2.0868748000002597,correct,v
98,4F4K,99,2,41.47012543839645,59.787399610164535,1.1843567914452022,60.19156483430873,2,b,1.0856858000006469,correct,b
99,4F4K,100,2,47.71955424816384,56.91039805496176,1.3487160340345312,57.88848029224951,2,b,1.2188850000002276,correct,b
100,4F4K,101,1,40.94085752087862,26.82545787754211,1.1713934443668177,32.273754628224054,2,c,1.9228728999996747,incorrect,n
101,4F4K,102,2,33.991717219812344,53.28825761467164,1.0137848549377515,54.88894922108239,2,b,0.9821695000000545,correct,b
102,4F4K,103,1,61.602233895666856,47.00146422016076,1.800087476306492,49.49746933088476,2,n,1.2072769999995216,correct,n
103,4F4K,104,1,39.83821557323547,56.79794000479347,1.1448403827008484,57.7969142857252,1,n,1.8317927999996755,incorrect,c
104,4F4K,105,1,45.32978624993156,68.61007217682479,1.283331236168466,66.66989244863554,1,c,0.727421200000208,correct,c
105,4F4K,106,1,58.43062539436292,69.05224925451691,1.685198762778923,66.96712805915443,1,n,2.737500600000203,incorrect,c
106,4F4K,107,2,53.52759842841781,42.56486868126486,1.521851883100262,45.62141286863544,1,b,0.9775936999994883,incorrect,v
107,4F4K,108,2,57.05800491519192,44.23319146113542,1.6377783789656686,47.08149686410426,1,b,2.372181200000341,incorrect,v
108,4F4K,109,1,55.078961917735846,46.732126572753344,1.5717468345025185,49.26307445069633,2,c,3.5264281999998275,incorrect,n
109,4F4K,110,2,51.46353035678041,30.90589481863407,1.4579142938542715,35.5946984015557,1,b,1.9471688000003269,incorrect,v
110,4F4K,111,2,45.28602867047015,32.975435029436454,1.2821640471286166,37.32867184746241,1,v,1.3948676999998497,correct,v
111,4F4K,112,1,44.76603270183811,62.97615309126841,1.2683746783235843,62.64435373410621,1,c,2.2944986000002245,correct,c
112,4F4K,113,1,37.40773708799294,28.497307826043517,1.0884175411475208,33.6169562234919,2,n,1.2916870999997627,correct,n
113,4F4K,114,2,40.52867680847912,50.6403850646487,1.1613962688144452,52.64069053737926,2,b,2.0821015999999872,correct,b
114,4F4K,115,1,43.41236334820854,59.73355438061252,1.2331693184863295,60.149200177467385,1,n,1.473768800000471,incorrect,c
115,4F4K,116,1,34.20538924902319,47.02815026361832,1.0182993103891935,49.52068310340709,1,c,2.744357200000195,correct,c
116,4F4K,117,1,54.852822453038335,42.37026871938464,1.5643731432577377,45.45107990679816,2,n,2.2337907000000996,correct,n
117,4F4K,118,2,48.09363401644599,62.09272156845461,1.3592482969119304,61.97629697701679,2,b,2.8518991999999344,correct,b
118,4F4K,119,1,57.10557681804579,37.18520726242255,1.6393993199337342,40.931557775754015,2,n,2.3187302999995154,correct,n
119,4F4K,120,1,58.67456017207129,45.04739626970429,1.6937686184970444,47.793375485384,2,n,1.3877721999997448,correct,n
120,4F4K,121,2,56.784650496323295,65.05365863811377,1.628495253620154,64.17785899940908,2,v,3.0164088999999876,incorrect,b
121,4F4K,122,1,46.628231285996456,41.95947901872859,1.318453726921138,45.09156047190381,2,c,4.4720784000001,incorrect,n
122,4F4K,123,1,39.910787110930784,63.78618285423128,1.1465693457652533,63.2486866690472,1,n,1.7954343000001245,incorrect,c
123,4F4K,124,1,50.82126314145194,63.46510058095425,1.4385724636738213,63.0100982847552,1,n,3.3383626999993794,incorrect,c
124,4F4K,125,2,50.233023258356056,66.03909160100922,1.421082880253993,64.88583271798983,2,b,2.3683411000001797,correct,b
125,4F4K,126,2,25.60431916327678,39.29043173493445,0.8515301840513478,42.75992437219084,2,b,2.5493304000001444,correct,b
126,4F4K,127,2,47.12085660116184,55.65986514076866,1.3320291901431995,56.86430485001675,2,b,1.3402907999998206,correct,b
127,4F4K,128,1,30.96447669554763,43.32831500728692,0.9519345572015804,46.289679685246384,1,n,2.0334646000001158,incorrect,c
128,4F4K,129,1,40.892793945360026,62.47689257960965,1.1702232754175057,62.26793662969094,1,c,1.067161899999519,correct,c
129,4F4K,130,2,65.57022057318008,49.59060277832445,1.954915998529016,51.73922991932823,1,b,2.1231330999999045,incorrect,v
130,4F4K,131,2,62.60290463745736,58.07823055198153,1.8379367754241207,58.83274445491541,1,v,1.4191500000006272,correct,v
131,4F4K,132,1,38.4048561396274,55.26604514552549,1.1112209347294386,56.53915364579157,1,n,1.5104664999998931,incorrect,c
132,4F4K,133,1,58.63346160541073,69.78381107705084,1.6923217071967882,67.45246092954083,1,c,0.7940788000005341,correct,c
133,4F4K,134,2,59.51205648680249,38.74713993689663,1.7235243659118706,42.286889623478935,1,b,4.503516499999932,incorrect,v
134,4F4K,135,1,53.9032253135767,61.0587580545512,1.5337855249339176,61.183006888884975,1,n,2.232372700000269,incorrect,c
135,4F4K,136,1,27.373626116782305,44.06270896770979,0.8834428920514173,46.93235551333886,1,c,4.800875300000371,correct,c
136,4F4K,137,2,41.88707917580746,55.27446142780597,1.1946701765708838,56.54611499932977,2,v,3.1683775999999853,incorrect,b
137,4F4K,138,1,47.744452708000566,37.14736657578885,1.3494145111028757,40.898820900743736,2,n,3.9391286999998556,correct,n
138,4F4K,139,2,44.93512246592824,57.095135469143486,1.2728422891768385,58.03866023546997,2,b,3.064161399999648,correct,b
139,4F4K,140,1,26.83280337841384,39.38039130833339,0.8735632691066676,42.83831749221663,1,c,2.7303609000000506,correct,c
140,4F4K,141,1,40.06506069964089,34.6085288808234,1.1502534798268989,38.71587130558489,2,c,1.4859088000002885,incorrect,n
141,4F4K,142,2,66.07826784997371,57.22854741200904,1.975678277688428,58.14693031355296,1,v,1.843929499999831,correct,v
142,4F4K,143,2,50.25949083644107,59.728298937335126,1.421865228016499,60.14506367736705,2,b,4.946586099999877,correct,b
143,4F4K,144,2,63.06634301196918,47.443221502308205,1.855734463417465,49.88149825581541,1,b,1.6436740000008285,incorrect,v
144,4F4K,145,2,49.03532474307682,64.1190743798362,1.3861272842720684,63.49469884589513,2,b,3.3200609999994413,correct,b
145,4F4K,146,2,53.77623986721563,61.88506960696812,1.5297407717066571,61.81794974917487,2,b,2.0320920999993177,correct,b
146,4F4K,147,1,40.42118022534646,53.77655998657619,1.1588030659224775,55.29891624413823,1,c,2.4461897000001045,correct,c
147,4F4K,148,2,49.22738858761477,56.67678928438038,1.391674345877196,57.69814914857822,2,b,1.9364146999996592,correct,b
148,4F4K,149,1,42.09794802916709,54.26326893649032,1.199920181245981,55.70593390221689,1,c,2.3861700999996174,correct,c
149,4F4K,150,2,61.941650727867234,56.83244801382205,1.8128373893601093,57.82502309777188,1,v,2.4279710000000705,correct,v
150,4F4K,151,1,65.72819475442077,74.12678273595957,1.9613484193566424,70.16015882352625,1,n,3.54532029999973,incorrect,c
151,4F4K,152,2,36.66729751625301,52.66580489890862,1.071787522311806,54.36411563116476,2,b,3.7510128999992958,correct,b
152,4F4K,153,2,31.322095545437744,43.83193038098548,0.9590399815772016,46.73043125863459,2,b,1.4251904000002469,correct,b
153,4F4K,154,2,48.18706063090479,35.959121728909544,1.3618915457878888,39.87363592840925,1,v,2.6403367999992042,correct,v
154,4F4K,155,1,60.42001640550897,42.68608247707368,1.75637449789042,45.72751490071516,2,n,2.7365387999998347,correct,n
155,4F4K,156,2,69.13358075241256,51.74505337447885,2.105273140884724,53.58345912138381,1,v,2.810219599999982,correct,v
156,4F4K,157,2,26.68191977665892,41.39000505114265,0.8708267278879293,44.59332986904396,2,b,2.586638099999618,correct,b
157,4F4K,158,2,52.630069722778586,65.50290563592102,1.493712083090749,64.5022162766506,2,v,2.1959805999995297,incorrect,b
158,4F4K,159,2,36.40611785041728,55.51656426316576,1.0659823386486031,56.74613089491766,2,b,0.8682109000001219,correct,b
159,4F4K,160,2,41.99258129264254,32.39635196880313,1.1972939866025247,36.840593648087406,1,b,1.7532580999995844,incorrect,v
160,4F4K,161,2,57.30062302279853,45.32797877520834,1.6460620158027004,48.038499971713485,1,b,2.6814997000001313,incorrect,v
161,4F4K,162,1,54.316376377222745,40.89357711500249,1.547019402862176,44.15924843814047,2,n,2.2577373000003718,correct,n
162,4F4K,163,2,59.00496682724031,53.273527619649016,1.7054459167638722,54.876557840184425,1,b,2.1353079000000434,incorrect,v
163,4F4K,164,2,44.94809710748403,26.160697326143687,1.273185748467015,31.747113177152603,1,b,1.2677410000005693,incorrect,v
164,4F4K,165,2,53.23441137921016,34.52121158865726,1.512601905405717,38.6413287929344,1,v,0.8783816000004663,correct,v
165,4F4K,166,1,74.2679625338071,57.84297202489623,2.342483484020265,58.64351582586287,2,n,2.8224786999999196,correct,n
166,4F4K,167,2,65.99142988691324,47.83896450813377,1.9721139262762148,50.225048114694296,1,v,2.062473100000716,correct,v
167,4F4K,168,2,54.53309465941086,67.57931705882956,1.554006824881474,65.96588974501725,2,b,2.4714610999999422,correct,b
168,4F4K,169,2,45.61961669835704,61.782086700455295,1.2910890412184568,61.73923611071059,2,b,2.682866600000125,correct,b
169,4F4K,170,1,44.08636753534153,33.66611279784573,1.2505745180797057,37.91350113801775,2,c,2.300667099999373,incorrect,n
170,4F4K,171,1,45.51514925213449,31.77046233617205,1.2882874016872343,36.31552546664271,2,n,0.7760820999992575,correct,n
171,4F4K,172,2,36.91869061825089,42.48928747416474,1.0774050395889905,45.55525569933121,2,b,2.0683773000000656,correct,b
172,4F4K,173,2,71.56334333076616,49.744135522795744,2.214376135171674,51.87137869155583,1,v,1.6825301999997464,correct,v
173,4F4K,174,1,61.65436076443326,53.16525460721092,1.802039734982612,54.7854317512537,2,n,3.709552299999814,correct,n
174,4F4K,175,2,58.03121089682916,47.6487263726427,1.6712601554392048,50.05995882889746,1,b,2.0067897999997513,incorrect,v
175,4F4K,176,1,44.911199414634666,58.10730440851032,1.272209251054846,58.8560941803675,1,c,2.871053799999572,correct,c
176,4F4K,177,2,51.864538592525975,61.45441488001616,1.4701222790136448,61.48798558155379,2,v,3.4728500000001077,incorrect,b
177,4F4K,178,1,58.87585716375222,45.66171218796172,1.7008733446995887,48.32989724837835,2,n,3.332247400000597,correct,n
178,4F4K,179,2,45.08762735341223,29.79476930778366,1.2768851974134086,34.67649064356965,1,b,2.6272220000000743,incorrect,v
179,4F4K,180,2,48.66990384247534,37.520992447496646,1.375634416099414,41.22227372574655,1,v,1.7095903999997972,correct,v
180,4F4K,181,2,45.33638539383722,54.737230758385614,1.2835073538170116,56.10067943384852,2,v,2.5189879999998084,incorrect,b
181,4F4K,182,1,52.81390782212476,44.99545877189663,1.49943318267542,47.74798910308518,2,n,2.2458807000002707,correct,n
182,4F4K,183,2,44.19510963050752,56.73003415293994,1.2534055521723768,57.741571154692885,2,v,2.3308423999997103,incorrect,b
183,4F4K,184,1,40.31238666238044,55.342324399238606,1.1561844705738806,56.60222652903337,1,c,1.661915399999998,correct,c
184,4F4K,185,2,55.249593111269775,45.08286840654167,1.577333574281821,47.82437121655703,1,v,1.6305155999998533,correct,v
185,4F4K,186,1,61.60163721150312,39.25082527015981,1.800065141502602,42.725416018669385,2,n,2.4461956999994072,correct,n
186,4F4K,187,2,53.80347511034769,62.89511234933504,1.5306073719357849,62.58345465520026,2,b,2.6889318000003186,correct,b
187,4F4K,188,1,53.53273384620898,34.029991215786495,1.5220144073133892,38.22272929050765,2,n,2.5250825000002806,correct,n
188,4F4K,189,1,53.52694372172966,31.198415821013327,1.5218311643801794,35.83798506227172,2,n,0.9760928000005151,correct,n
189,4F4K,190,2,40.97249471642517,63.12398408735789,1.1721643307027616,62.75524009009089,2,v,1.67900710000049,incorrect,b
190,4F4K,191,2,41.78696165428262,27.75295024911605,1.1921855974542128,33.01571890426703,1,b,1.0673654000001989,incorrect,v
191,4F4K,192,2,50.143676283651146,57.20581827674044,1.418445075808548,58.12849561380723,2,b,1.4312786000000415,correct,b
192,4F4K,193,2,53.28879828752221,40.42497736004934,1.5143135411011863,43.74977970404099,1,b,1.2368524000003163,incorrect,v
193,4F4K,194,1,38.81466411512103,23.312469034776733,1.1207309084777166,29.543425271380816,2,c,2.195978799999466,incorrect,n
194,4F4K,195,2,42.843135131164445,57.044786635732486,1.2186586286014875,57.9977592354986,2,v,4.005877900000087,incorrect,b
195,4F4K,196,2,69.12841005330033,51.93688633711555,2.105046790579629,53.7465087669859,1,b,0.8485428000003594,incorrect,v
196,4F4K,197,2,46.23560215469038,38.634162285440425,1.3077330443751864,42.188614784351856,1,v,1.4009433000001081,correct,v
197,4F4K,198,1,50.65962249643155,31.838475128873785,1.433745218491284,36.372454287076245,2,n,3.423304100000678,correct,n
198,4F4K,199,1,30.158137533717653,51.3381412279539,0.9361062064736192,53.23692946868847,1,c,4.162627599999723,correct,c
199,4F4K,200,1,63.203742637171736,45.703205777427726,1.8610441473027877,48.36611379874304,2,n,1.7893585000001622,correct,n
200,4F4K,201,1,48.55826913702553,71.8525072043758,1.3724447516659777,68.78015636379499,1,c,2.3353926999998293,correct,c
201,4F4K,202,2,49.82295977434091,64.89911486738644,1.409016780396039,64.06566679193692,2,b,3.0894748999999138,correct,b
202,4F4K,203,2,50.74610445683687,63.49181715461032,1.436325902243872,63.029999112633845,2,b,0.9272090999993452,correct,b
203,4F4K,204,1,78.65169589412146,58.40273864687046,2.566052836805349,59.09291294746813,2,n,1.388807899999847,correct,n
204,4F4K,205,2,47.0062468969728,51.88898303209687,1.328858422352781,53.70581245507516,2,v,2.232397200000378,incorrect,b
205,4F4K,206,2,42.09993038599229,27.100492941516464,1.199969645316785,32.4929173732027,1,b,1.86826259999998,incorrect,v
206,4F4K,207,1,77.32894231672891,57.94675697121389,2.496433141522697,58.72705762198025,2,n,3.2958071000002747,correct,n
207,4F4K,208,1,61.33556482765972,55.165810729332,1.7901332067997002,56.4562051035758,2,c,1.8565785000000687,incorrect,n
208,4F4K,209,1,56.31754363098534,39.81066651561066,1.6127539037083805,43.21350835739703,2,n,1.4144145999998727,correct,n
209,4F4K,210,1,47.18957013068378,38.02070822008592,1.3339338306844497,41.65561234447757,2,n,1.7398895000005723,correct,n
210,4F4K,211,2,55.85286664025208,35.20231939420973,1.597245416020756,39.22381279982165,1,b,2.0867121999999654,incorrect,v
211,4F4K,212,1,67.46386571301562,51.24969083112528,2.033430907590928,53.16148660602399,2,n,1.0537835999994059,correct,n
212,4F4K,213,1,53.778077858219206,68.95061388081244,1.5297992394374198,66.89906484319116,1,c,1.133898500000214,correct,c
213,4F4K,214,2,58.243120240766,62.39090348216112,1.6786408647227078,62.20280818837294,2,v,3.1379102000000785,incorrect,b
214,4F4K,215,1,59.57137454820389,48.33124980549354,1.7256516180447965,50.65171660333391,2,n,0.9154407000005449,correct,n
215,4F4K,216,1,53.41190173113962,38.371656341158,1.5181949438529108,41.96040404143518,2,c,0.9275768999996217,incorrect,n
216,4F4K,217,1,50.78153549855752,40.23695604372467,1.4373845308530713,43.58557544398536,2,n,1.7458747999999105,correct,n
217,4F4K,218,1,55.8538947987774,68.24017252908813,1.5972795654217111,66.41902744361734,1,n,1.740787800000362,incorrect,c
218,4F4K,219,2,39.15282806610427,51.92799853580131,1.1286395744165256,53.73895910690016,2,b,3.0469920000005004,correct,b
219,4F4K,220,2,56.82950525222158,45.960682944503766,1.6300149060386977,48.59077475116936,1,v,1.7883089999995718,correct,v
220,4F4K,221,2,33.277583712668644,55.82412072025223,0.9988413909349324,56.99955926927794,2,b,2.286989000000176,correct,b
221,4F4K,222,2,24.612492193691136,45.1933252558589,0.8341477004508391,47.92087749532761,2,b,0.8122211999998399,correct,b
222,4F4K,223,1,54.31996572875304,38.82063510714617,1.5471348743277653,42.35083803254526,2,c,1.7589818000005835,incorrect,n
223,4F4K,224,2,53.54429624737027,39.129854703761765,1.5223803943670269,42.62003897271586,1,b,1.5102123000006031,incorrect,v
224,4F4K,225,2,39.35629184075056,54.49833579365493,1.1334248630881931,55.901915387885936,2,b,0.7772473000004538,correct,b
225,4F4K,226,2,48.43217693276708,36.15712562025429,1.3688508963851358,40.044071338147205,1,b,1.176402699999926,incorrect,v
226,4F4K,227,2,63.94360364547448,54.61023415804733,1.889897655150171,55.99506826249454,1,v,0.8486591000000772,correct,v
227,4F4K,228,2,63.10273634402142,53.742221029276415,1.8571393740897608,55.2701382007619,1,v,1.0297598000006474,correct,v
228,4F4K,229,1,58.6283087397596,36.27139011257915,1.6921403832377144,40.14250202031143,2,c,2.775063400000363,incorrect,n
229,4F4K,230,1,45.605935967254624,67.46713354981891,1.2907218008248047,65.88834501717488,1,c,4.000024099999791,correct,c
230,4F4K,231,2,44.18625633481398,27.766583624145163,1.253174822566893,33.026685603194686,1,b,3.107706099999632,incorrect,v
231,4F4K,232,1,53.484914573891245,69.86024562162297,1.520501708261787,67.5027011222356,1,n,1.5452552000006108,incorrect,c
232,4F4K,233,1,66.6878512445177,48.99230494867432,2.000881235911701,51.22333131440775,2,n,0.6787854999993215,correct,n
233,4F4K,234,1,40.13208951434572,62.30005008034806,1.1518578497496983,62.13390163368963,1,c,1.4885863999998037,correct,c
234,4F4K,235,2,45.01329996049633,27.17341463007915,1.2749131748051572,32.551147800111686,1,b,3.338340899999821,incorrect,v
235,4F4K,236,2,39.92415766694787,52.071817710335104,1.1468881740814454,53.861069621953206,2,b,2.3915359000002354,correct,b
236,4F4K,237,2,39.4556298905253,51.46722025370764,1.1357685722285409,53.34695141486384,2,b,1.4737635999999839,correct,b
237,4F4K,238,2,52.14384992302537,39.54783942830273,1.4786857642884466,42.98428313668898,1,v,2.2494596999995338,correct,v
238,4F4K,239,2,37.76999186234404,48.62786778200576,1.0966474142004248,50.90839951355122,2,b,0.9943061000003581,correct,b
239,4F4K,240,1,33.11184553101572,49.81104696422915,0.9954048806438442,51.92893894480525,1,c,2.9863343999995777,correct,c
240,4F4K,241,2,39.79582044186888,56.69530450820359,1.1438315568038684,57.713251336861326,2,b,2.504544100000203,correct,b
241,4F4K,242,1,51.39811157475059,37.80916269145303,1.4559323753061408,41.47206886947536,2,c,1.4392400999995516,incorrect,n
242,4F4K,243,2,61.47045732550582,48.08632548322432,1.7951615985352691,50.43953812702995,1,v,1.473724200000106,correct,v
243,4F4K,244,1,50.522125249275845,35.35014081610128,1.4296517449509458,39.35053082323594,2,n,2.8346142000000327,correct,n
244,4F4K,245,1,45.60665081956674,56.890445646121904,1.290740987464294,57.87224252081609,1,n,1.728934699999627,incorrect,c
245,4F4K,246,1,46.00947328636251,52.99120915373118,1.3015982339149197,54.63879193026416,1,c,1.5228219999999055,correct,c
246,4F4K,247,2,62.69332947122548,51.81468655911407,1.8413959571284573,53.64266817560346,1,b,2.0335089000000153,incorrect,v
247,4F4K,248,1,62.32565021735328,44.287802041299,1.8273709255652089,47.12926604529215,2,n,2.9062057999999524,correct,n
248,4F4K,249,1,65.6863345460616,52.39725765746969,1.9596418896712824,54.136943639170525,2,n,3.992667400000755,correct,n
249,4F4K,250,1,37.06125421768323,48.454978428726434,1.0806037746313275,50.75882489095141,1,c,2.4109416999999667,correct,c
250,4F4K,251,2,64.1534143671225,72.94563139163778,1.8981610863151257,69.45412489985367,2,v,1.752937600000223,incorrect,b
251,4F4K,252,1,46.73499359752665,58.95914416417445,1.3213840246279616,59.53666257347155,1,n,2.6150612000001274,incorrect,c
252,4F4K,253,2,60.31436422330434,47.64555232910028,1.7525200220289117,50.05720344371103,1,v,1.5950416000005134,correct,v
253,4F4K,254,1,56.66065098983713,70.90928800343555,1.624301592083995,68.18312851026869,1,c,3.107674300000326,correct,c
254,4F4K,255,1,47.64081525673392,53.21886831197837,1.3465095459298,54.83056424988024,1,n,2.615203499999552,incorrect,c
255,4F4K,256,1,39.228143846010425,54.54761626004946,1.1304085754907969,55.94295146505098,1,c,2.038145600000462,correct,c
256,4F4K,257,2,55.92563501402582,41.79009101179494,1.5996641586503697,44.943339026129024,1,v,2.538204599999517,correct,v
257,4F4K,258,2,44.49899826091374,57.3221837849888,1.261351133883528,58.22282689970864,2,b,2.4218981000003623,correct,b
258,4F4K,259,1,41.80565286518589,57.47982091737948,1.1926490576348103,58.350422925631946,1,n,2.9072911000002932,incorrect,c
259,4F4K,260,1,74.38400860526345,57.07647209833094,2.348142980597719,58.02350158286517,2,n,2.871009700000286,correct,n
260,4F4K,261,1,43.62561378735005,28.51291645954857,1.2386498494821956,33.62961686920519,2,c,1.0434575000008408,incorrect,n
261,4F4K,262,1,57.87943334497765,34.864584117251255,1.665993763773432,38.93469062139617,2,n,0.8743759999997565,correct,n
262,4F4K,263,1,59.41132001514492,76.55353170407892,1.719917781613476,71.53590621696216,1,c,2.719480200000362,correct,c
263,4F4K,264,2,35.03376905822157,55.347425227675714,1.0359921502738998,56.60644264100185,2,b,1.0786524000004647,correct,b
264,4F4K,265,1,48.09369249387306,63.02635550118272,1.3592499497641803,62.68203946920407,1,c,1.7470671999999468,correct,c
265,4F4K,266,1,54.81710015078079,35.1462364286764,1.5632115202218806,39.175763752714666,2,n,0.7940092999997432,correct,n
266,4F4K,267,2,45.771045318767975,56.62147158382813,1.2951609198443308,57.65301117345901,2,b,2.1473738999993657,correct,b
267,4F4K,268,2,55.18295501392148,43.04978948031541,1.575149376379429,46.04588346749847,1,v,3.714610499999253,correct,v
268,4F4K,269,2,68.55236355697528,50.39375586210917,2.079981802854239,52.42936425010922,1,v,2.8466770000004544,correct,v
269,4F4K,270,2,57.6762427280386,38.229832470154506,1.6589694069926864,41.83718923654086,1,v,2.512994899999285,correct,v
270,4F4K,271,2,45.10341211480474,24.604964089573325,1.2773043844723155,30.532425087826745,1,b,1.7286878000004435,incorrect,v
271,4F4K,272,2,42.94159597509627,37.28508366245289,1.2211563098211549,41.01798769938532,1,v,1.1458934000002046,correct,v
272,4F4K,273,1,46.11219107921088,54.27113787434761,1.304381362327133,55.7125008205405,1,c,2.324792299999899,correct,c
273,4F4K,274,2,32.16561905792806,54.00910637039904,0.9760104987304928,55.493591626769074,2,v,2.088274900000215,incorrect,b
274,4F4K,275,2,49.61628142000236,62.56809265083729,1.4029741648403298,62.33691708410587,2,b,3.975554600000578,correct,b
275,4F4K,276,2,42.43322036098929,55.82834335552083,1.208315004820427,57.00303351337419,2,b,3.908371999999872,correct,b
276,4F4K,277,1,32.582672700019906,45.58248351888105,0.9845116485319316,48.26073622074805,1,n,0.9509043000007296,incorrect,c
277,4F4K,278,2,60.61424110709664,51.990146059769245,1.7634824682537091,53.79174033027054,1,v,4.200102699999661,correct,v
278,4F4K,279,1,44.58673749224566,35.960484741734625,1.2636545520376528,39.87480859071878,2,n,3.525276700000177,correct,n
279,4F4K,280,2,45.777806016445,54.82385033804405,1.29534301252566,56.17264474210811,2,b,2.2510596000001897,correct,b
280,4F4K,281,1,48.02002194483181,59.678433885988944,1.3571692599808336,60.105801393800114,1,c,3.6948080000001937,correct,c
281,4F4K,282,2,55.75130945291963,38.426446340442936,1.5938758766521697,42.00802025007016,1,b,3.727270500000486,incorrect,v
282,4F4K,283,2,48.028135935875525,38.14766659933743,1.3573982686341342,41.76583130446769,1,v,1.965353700000378,correct,v
283,4F4K,284,1,37.85427837491019,46.91846308590509,1.0985711811828651,49.4252560850725,1,n,2.026883999999882,incorrect,c
284,4F4K,285,2,54.90608086235864,61.06154642620563,1.5661066110075623,61.18516226039981,2,v,1.9471617999997761,incorrect,b
285,4F4K,286,2,63.57537194571224,52.93309710715803,1.8754816641079488,54.58978756856489,1,b,2.610020500000246,incorrect,v
286,4F4K,287,2,60.24285678720005,46.71711302730094,1.7499160395207989,49.25000336464363,1,v,0.7321115000004284,correct,v
287,4F4K,288,1,38.60982253748692,54.76901611067089,1.1159672397364906,56.127093791033936,1,n,3.380795699999908,incorrect,c
288,4F4K,289,2,40.79300042170436,27.634998073431618,1.1677974068321004,32.92090998370293,1,b,4.065388900000471,incorrect,v
289,4F4K,290,2,56.56560033872049,40.80276281122551,1.6210942937682085,44.07987036111903,1,v,1.5331685999999536,correct,v
290,4F4K,291,1,31.437889999365773,45.9045477126628,0.961352015259226,48.541804829008285,1,n,1.9485764999999446,incorrect,c
291,4F4K,292,2,36.38077433839605,46.54348694706649,1.0654207102100592,49.09880173481999,2,b,2.3793904999993174,correct,b
292,4F4K,293,2,44.59768896981368,55.43698543431904,1.263942356319972,56.68043619039598,2,v,3.0965759000000617,incorrect,b
293,4F4K,294,1,33.73287238029069,49.261953910760525,1.0083427896315005,51.45602255793885,1,n,1.237002200000461,incorrect,c
294,4F4K,295,2,49.82430615200425,36.3152160623736,1.409056229383312,40.18026933791237,1,b,3.690534399999706,incorrect,v
295,4F4K,296,1,38.54761403971517,58.36304914988885,1.114524569718123,59.06114590625204,1,c,2.3672998000001826,correct,c
296,4F4K,297,1,45.38453553375447,57.93247003219332,1.2847931142832136,58.71556322821164,1,n,1.2128279999997176,incorrect,c
297,4F4K,298,1,33.68500224858778,55.109887249439545,1.007339552961496,56.4098925643281,1,c,2.83328580000034,correct,c
298,4F4K,299,2,68.76724939410896,61.510289287206135,2.0892968425804863,61.53091413898792,1,v,4.375927799999772,correct,v
299,4F4K,300,1,46.25603442329924,56.866369204520055,1.3082887882273315,57.852643933728345,1,n,2.2397242999995797,incorrect,c
300,4F4K,301,1,43.64401333498071,62.902832312034846,1.2391238572955685,62.58925930451551,1,c,4.301882400000068,correct,c
301,4F4K,302,1,63.56600740745692,54.02670634544706,1.875116486935096,55.50831021901931,2,n,2.7323347000001377,correct,n
302,4F4K,303,1,56.19505130755399,44.15407154732109,1.6086511948471212,47.01228420420693,2,n,2.0199526999995214,correct,n
303,4F4K,304,2,60.64406016454802,49.199212474225504,1.7645762896827948,51.40190608333724,1,v,1.8743308000002799,correct,v
304,4F4K,305,1,63.85709963090985,52.749815962494814,1.8865011621878276,54.43509294700658,2,n,1.7104429000000891,correct,n
305,4F4K,306,2,68.23175477537174,45.60724040868841,2.066160952129265,48.282348411917255,1,v,1.2981172999998307,correct,v
306,4F4K,307,1,41.336458119450754,60.04865729567493,1.1810694025827295,60.39669413503711,1,c,3.2351770000004763,correct,c
307,4F4K,308,1,40.61789384956249,48.13295269957295,1.1635529099030548,50.47994690570031,1,c,2.4644054000000324,correct,c
308,4F4K,309,2,52.28358572901897,40.94679648258463,1.4829886660871905,44.20577069164872,1,b,3.096633600000132,incorrect,v
309,4F4K,310,2,54.52115183983992,37.82063826652576,1.553620944603571,41.482021834772254,1,v,3.1926438000000417,correct,v
310,4F4K,311,1,30.0208687860044,52.366704549143,0.9334379729926278,54.111070420943626,1,c,1.5090213999992557,correct,c
311,4F4K,312,2,47.94778561103659,59.582819304518566,1.3551321696495655,60.03044628555227,2,b,2.1110249000003023,correct,b
312,4F4K,313,1,52.03910346186657,43.16117007287459,1.4754684826872138,46.143377929745554,2,n,2.2141645000001517,correct,n
313,4F4K,314,2,34.56110841898942,50.87946853593214,1.025859569111315,52.84526778493358,2,v,1.9340038999998796,incorrect,b
314,4F4K,315,2,43.278017043713696,56.42077181440244,1.2297290791409414,57.489027760992805,2,b,2.329481699999633,correct,b
315,4F4K,316,2,30.912199124940194,45.06137102594232,0.9509002890047896,47.80558690712461,2,v,1.1824329999999463,incorrect,b
316,4F4K,317,2,47.06242360678958,38.759708939468325,1.3304116510880792,42.2978249707932,1,b,1.9716232999999193,incorrect,v
317,4F4K,318,2,42.34287169555527,57.58310224195549,1.206047016962307,58.43390106297107,2,v,0.8015036999995573,incorrect,b
318,4F4K,319,2,68.65079411939361,52.34638828932425,2.084243482025285,54.09386297893575,1,v,0.8790281999999934,correct,v
319,4F4K,320,1,69.9891240512009,49.67578936407699,2.1430621974639954,51.81256422300911,2,n,0.9159744999997201,correct,n
320,4F4K,321,1,64.02795602704242,55.53541844608847,1.893215555172372,56.76168833437232,2,n,2.2976180000005115,correct,n
321,4F4K,322,1,34.864732619789564,43.54014095149456,1.0323570159599276,46.47507832834314,1,n,2.2893734999997832,incorrect,c
322,4F4K,323,2,56.09896940162077,41.95618358160781,1.6054403713669976,45.08867666400573,1,b,2.4886398999997255,incorrect,v
323,4F4K,324,2,43.32857312424992,63.10656953290172,1.2310225536044388,62.74219130453504,2,b,1.3280758999999307,correct,b
324,4F4K,325,2,62.95302535997976,46.36968215063347,1.8513668063039568,48.94737417708527,1,v,3.259348799999316,correct,v
325,4F4K,326,2,71.52214843641607,59.9986553230917,2.2124800602187014,60.357489273794016,1,v,3.209455600000183,correct,v
326,4F4K,327,2,48.03892387147546,54.00094433283012,1.3577028063353578,55.48676510952705,2,b,1.6133260000005976,correct,b
327,4F4K,328,2,35.14992543472452,41.4609319881051,1.038497514317057,44.65536955282875,2,v,2.0017510999996375,incorrect,b
328,4F4K,329,2,52.8546304390576,61.327849930775145,1.5007034449679046,61.39061616084421,2,b,2.5190067000003182,correct,b
329,4F4K,330,1,37.30175514353526,31.134356724883872,1.086021492324992,35.78465432246218,2,c,3.295782200000758,incorrect,n
330,4F4K,331,2,58.2041965174376,45.3597903312656,1.6772827291086931,48.06628390759846,1,v,4.674325099999805,correct,v
331,4F4K,332,1,47.91076853399569,25.29391398455637,1.3540894600886944,31.067182261057564,2,n,2.804260500000055,correct,n
332,4F4K,333,1,48.1421849882388,37.52275580407782,1.3606212720982944,41.22380142541213,2,n,1.352356599999439,correct,n
333,4F4K,334,2,79.72251540403943,66.13031498892889,2.623832205135935,64.9507135561835,1,b,2.050398999999743,incorrect,v
334,4F4K,335,2,74.37121313446038,54.58792594634821,2.347518283126558,55.97650443664591,1,b,2.07702640000025,incorrect,v
335,4F4K,336,2,43.23739337185156,53.285126811117614,1.2286907096654416,54.88631559885973,2,b,3.696385100000043,correct,b
336,4F4K,337,1,63.4860740090019,50.68352265604112,1.8720023166191144,52.67762308655927,2,n,2.4958379999998215,correct,n
337,4F4K,338,1,49.60591067389996,26.839691439655127,1.4026716410286246,32.28507865902894,2,c,3.7813280000000304,incorrect,n
338,4F4K,339,1,61.0431043236764,70.06980041796479,1.7792794679695425,67.63998225505586,1,n,1.0128300000005765,incorrect,c
339,4F4K,340,1,61.19384885659162,48.44594840816287,1.784865627197035,50.75100967548819,2,n,0.7697692000001553,correct,n
340,4F4K,341,1,47.55433491371321,38.11512796072267,1.3440902827437442,41.737578259621245,2,c,1.262488399999711,incorrect,n
341,4F4K,342,2,51.49942396082025,65.44375592586063,1.4590028676184732,64.45966225388273,2,b,1.9460915999998178,correct,b
342,4F4K,343,2,66.73945529669973,50.92652009520904,2.003029486153274,52.88549493466572,1,v,2.0867302999995445,correct,v
343,4F4K,344,1,56.12074482880973,34.09980389035533,1.6061674910630268,38.28214145225741,2,c,2.9923773000000438,incorrect,n
344,4F4K,345,2,65.75271623036312,55.49966248128234,1.9623487850797372,56.73218210442554,1,b,0.733371299999817,incorrect,v
345,4F4K,346,2,51.64631723291342,38.99062627491741,1.463466292440351,42.498800273405,1,v,0.8361734999998589,correct,v
346,4F4K,347,2,48.48327609539398,35.502744374446515,1.370306179196776,39.48145626984117,1,b,3.3990050000002157,incorrect,v
347,4F4K,348,2,37.872416717987335,54.22825443317399,1.0989856142836114,55.67670769577937,2,v,0.6847631000000547,incorrect,b
348,4F4K,349,1,43.56007672507786,49.43471634064979,1.236962961111256,51.604953188581135,1,c,1.734597899999244,correct,c
349,4F4K,350,1,33.396892941105804,45.68879045053006,1.0013225586981458,48.35353212176002,1,n,1.200650499999938,incorrect,c
350,4F4K,351,2,43.65958747366776,31.48427911344932,1.2395252188761934,36.07633277447057,1,v,2.610020099999929,correct,v
351,4F4K,352,1,47.97649560071853,32.67195847895471,1.3559414351981152,37.072622344490405,2,n,0.87903230000029,correct,n
352,4F4K,353,2,60.03698400878481,52.62736202726014,1.7424406543145925,54.33162247973763,1,v,3.472015100000135,correct,v
353,4F4K,354,2,58.79301243371862,67.34888579508772,1.6979457594494174,65.80641483951337,2,v,1.6559582999998383,incorrect,b
354,4F4K,355,2,60.25458126914975,70.80623866705969,1.7503427276222503,68.11704756060838,2,b,1.0179425000005722,correct,b
355,4F4K,356,1,32.200963725779985,49.12896253078328,0.9767281025088318,51.3412946512372,1,c,1.7529837000001862,correct,c
356,4F4K,357,1,74.17383282953224,50.92320496705015,2.337902856490086,52.88266100232177,2,n,0.9460257000000638,correct,n
357,4F4K,358,1,62.23791843950048,48.003013303870006,1.8240402351399232,50.36731907470567,2,n,2.0744912000000113,correct,n
358,4F4K,359,2,68.87821550067295,57.255019055936174,2.094123409925729,58.16839466525786,1,v,2.068815099999483,correct,v
359,4F4K,360,2,47.26913821431923,63.64094539832317,1.3361427468650675,63.14092175478712,2,v,1.5344122000005882,incorrect,b
360,4F4K,361,2,40.20516286742637,50.57110069324544,1.1536094485496664,52.581353245234766,2,b,1.5396057999996628,correct,b
361,4F4K,362,1,65.1589252254558,52.00455821870881,1.9382675888716068,53.80397727655211,2,n,2.046603299999333,correct,n
362,4F4K,363,2,21.952596831511684,39.61927019030928,0.7892629351053327,43.04656781951218,2,b,2.5675842000000557,correct,b
363,4F4K,364,1,33.07052675071031,53.48652564607985,0.9945499961985664,55.05560114366723,1,c,2.068409100000281,correct,c
364,4F4K,365,1,53.57454510062082,64.29412543192049,1.5233382838553584,63.62350617504558,1,n,0.8173922000005405,incorrect,c
365,4F4K,366,2,45.32781055123591,37.80929077731053,1.2832785135133975,41.47217995824988,1,v,1.5055116000003181,correct,v
366,4F4K,367,2,47.33940539894576,61.14758469898062,1.3380964989477595,61.25162662536725,2,b,1.079276899999968,correct,b
367,4F4K,368,1,52.29548514056308,35.72906331464311,1.483355664144158,39.67582281670023,2,n,1.5587466000006316,correct,n
368,4F4K,369,2,45.69655248014191,59.78074073044119,1.2931562232809175,60.18632733541453,2,b,1.812386300000071,correct,b
369,4F4K,370,2,31.97293656169758,52.97523180780576,0.9721077219595604,54.6253207762909,2,b,0.693284500000118,correct,b
370,4F4K,371,1,66.21456944801028,54.67047897181361,1.981285909576184,56.04518296330139,2,n,1.6194083999998838,correct,n
371,4F4K,372,1,51.641150424301244,40.53554041762075,1.463309064949308,43.846363158096736,2,n,1.637613799999599,correct,n
372,4F4K,373,1,53.54263801270076,34.39420423491729,1.5223279005199952,38.532974187782685,2,n,0.8362416999998459,correct,n
373,4F4K,374,2,26.416741774654263,40.73354101077862,0.8660380115488613,44.019372819155336,2,b,0.9532412999997177,correct,b
374,4F4K,375,1,39.80951885984803,23.703736106784724,1.1441574243118462,29.840808890149336,2,n,1.0061314000004131,correct,n
375,4F4K,376,1,28.85004344204735,46.45185358290172,0.9109863253447714,49.01897465407647,1,c,1.0489285000003292,correct,c
376,4F4K,377,1,54.66100185009495,46.24436459899856,1.5581456043350284,48.838149389817055,2,n,0.7504881000004389,correct,n
377,4F4K,378,2,34.875005549346525,24.77499377177678,1.032577571172964,30.66392231499332,1,b,0.9821798999992097,incorrect,v
378,4F4K,379,2,71.67100435625602,56.7866067179481,2.219339118873189,57.7876804247754,1,b,1.4433993000002374,incorrect,v
379,4F4K,380,1,58.29742592664041,41.176367088037935,1.6805375490167904,44.406490194181146,2,n,2.3377360000004046,correct,n
380,4F4K,381,1,38.22882916054389,49.761462237253234,1.107160881123875,51.88628578324381,1,n,0.8607967000007193,incorrect,c
381,4F4K,382,2,41.79241569206726,21.666600286891477,1.1923208150957365,28.31244772592704,1,b,0.7333669999998165,incorrect,v
382,4F4K,383,1,63.3444228904993,47.43228539033737,1.8664963491108064,49.87199785604245,2,n,2.5442340999998123,correct,n
383,4F4K,384,2,64.85725402656638,43.93951947226942,1.9261467457685455,46.82457300607245,1,v,0.8001271999992241,correct,v
384,4F4K,385,1,69.83673008281161,57.02686832536206,2.136281703648998,57.98319791426202,2,n,1.305219500000021,correct,n
385,4F4K,386,1,33.69359618384645,47.98737168311767,1.0075195865285005,50.35375763498845,1,c,1.6618902000000162,correct,c
386,4F4K,387,1,36.43164178676192,58.29763747670318,1.0665482646331397,59.00875856067118,1,c,1.1036665000001449,correct,c
387,4F4K,388,2,38.340738381161856,23.20725799652195,1.1097403407699489,29.46376336945035,1,b,0.9705127000006541,incorrect,v
388,4F4K,389,2,43.35864757009944,56.08512840055269,1.2317926519068063,57.21403759265272,2,b,0.8849294000001464,correct,b
389,4F4K,390,1,54.80480655679492,71.79971394707991,1.5628119548727115,68.74711527439108,1,c,2.034520199999861,correct,c
390,4F4K,391,1,52.294573240603,66.05433570733527,1.483327536387958,64.89668263794445,1,n,2.5006514000006064,incorrect,c
391,4F4K,392,2,43.22100217613207,55.039296713046426,1.228271987535185,56.35139976228547,2,b,0.8682987000001958,correct,b
392,4F4K,393,2,48.41277310793184,35.755668522061164,1.3682986885151347,39.69868702561672,1,v,1.3281011999997645,correct,v
393,4F4K,394,1,43.01524245982094,50.62813845123476,1.2230278647811108,52.63020385597813,1,n,0.6787799999992785,incorrect,c
394,4F4K,395,2,50.51483189698367,68.62731235366952,1.4294349389823715,66.68153569141566,2,v,0.8366779999996652,incorrect,b
395,4F4K,396,2,29.460400045006992,49.08762021198232,0.9226222572363932,51.30561550990548,2,b,0.4009335999999166,correct,b
396,4F4K,397,2,37.31377279254153,50.23712875848972,1.086292922994317,52.29500703180791,2,v,0.7758303999999043,incorrect,b
397,4F4K,398,1,36.84032532557469,48.22450173720223,1.0756507726778537,50.55926541626904,1,n,0.6316744000005201,incorrect,c
398,4F4K,399,1,42.34596883921589,28.92877789929551,1.2061246928616318,33.967718481987724,2,c,0.6969492999996874,incorrect,n
399,4F4K,400,1,33.38524777268205,48.18006390728426,1.0010801133206435,50.52076778549748,1,n,0.7340403000007427,incorrect,c
