,condition,trial,sub_task,x,y,xt,yt,cat,resp,rt,acc,correct_resp
0,2F4K,1,1,60.22970186447521,47.3538752352508,1.7494374173305225,50.37100884759693,2,n,3.2715830000006463,correct,n
1,2F4K,2,2,51.38555028470066,63.458431748672254,1.4555521286141673,63.927598966174216,2,b,2.0503119000004517,correct,b
2,2F4K,3,1,43.11764724769065,62.69900075829423,1.2256350135626557,63.3429040189783,1,n,1.6191087999995943,incorrect,c
3,2F4K,4,1,60.96055333372318,47.42470874392002,1.7762277775999784,50.43420962323805,2,n,1.0877238000002762,correct,n
4,2F4K,5,2,25.38883634515061,46.43879782294936,0.8477231499163463,49.55330397627822,2,v,1.0622849000001224,incorrect,b
5,2F4K,6,1,59.91863864682593,72.04897389346407,1.7381579146026542,69.9839368258807,1,c,3.8117109000004348,correct,c
6,2F4K,7,1,54.4268006093812,36.10184454961215,1.5505757617003255,40.299626543831,2,n,5.0,correct,n
7,2F4K,8,2,42.38502267951763,61.93194087571524,1.2071045867031385,62.745213152624096,2,v,1.2917213999999149,incorrect,b
8,2F4K,9,2,31.07283044817321,46.983343988412216,0.9540818295097367,50.04017156283003,2,b,0.6631592000003366,correct,b
9,2F4K,10,2,66.75240604801857,46.45242282989848,2.003568981250313,49.56549465390504,1,b,0.8000853999992614,incorrect,v
10,2F4K,11,2,38.62022519947153,44.27920757576548,1.1162086688402004,47.616692383567006,2,b,1.3898707999996986,correct,b
11,2F4K,12,2,75.03224016399243,62.6526902803608,2.3800092900618472,63.3070196396184,1,v,0.5283975000002101,correct,v
12,2F4K,13,2,37.6601760675195,45.948607612263785,1.094146016359835,49.1144427855884,2,v,0.6194241000002876,incorrect,b
13,2F4K,14,1,49.115619208048685,59.642490163308246,1.38844360158171,60.92115195455422,1,c,1.734743900000467,correct,c
14,2F4K,15,2,32.8019157665794,45.840962564776895,0.9890103150434686,49.01800230689645,2,b,1.0843726999992214,correct,b
15,2F4K,16,2,37.177592116157776,50.24512577542895,1.0832211127744713,52.9362445973256,2,b,1.248028300000442,correct,b
16,2F4K,17,1,60.70097339139532,47.58143183561041,1.7666658618703053,50.57399176811624,2,c,0.7394094999999652,incorrect,n
17,2F4K,18,2,72.04578901140536,51.78148190853408,2.2367029520883817,54.28414225172088,1,b,2.086725199999819,incorrect,v
18,2F4K,19,1,54.39734555539172,38.46412446935168,1.5496263238666284,42.39895161839021,2,c,0.7990520000003016,incorrect,n
19,2F4K,20,2,41.990375297457234,55.93737789748676,1.1972390651371505,57.856021078438175,2,b,0.7514304999995147,correct,b
20,2F4K,21,2,54.2319277527405,70.88627898276272,1.5443051282234643,69.22983667935587,2,v,0.8304383000004236,incorrect,b
21,2F4K,22,1,47.291525269427424,41.25819285810331,1.336764900487529,44.90183118973591,2,n,1.305261800000153,correct,n
22,2F4K,23,1,42.79445895053399,30.935780520246404,1.2174257352764015,35.804869363240925,2,n,1.0246603999994477,correct,n
23,2F4K,24,1,46.38608660148797,63.141665821106535,1.3118316592497348,63.684585256149845,1,n,0.794034599999577,incorrect,c
24,2F4K,25,1,55.49024613257598,43.58462214701687,1.5852467114073974,46.992593488881234,2,c,0.46167030000015075,incorrect,n
25,2F4K,26,2,56.76567637892478,45.151441807502486,1.627852848309706,48.399754761216094,1,v,1.4191633999998885,correct,v
26,2F4K,27,2,39.19436172650876,32.20968269358524,1.1296147655730997,36.89770868582357,1,b,1.1959813999992548,incorrect,v
27,2F4K,28,2,41.28962112812113,54.36851062710291,1.1799196625562731,56.52208900454439,2,v,0.5937629999998535,incorrect,b
28,2F4K,29,2,33.130464454110935,54.46686553783954,0.9957903457900602,56.606270713033936,2,v,0.8061708999994153,incorrect,b
29,2F4K,30,1,23.439583183073715,36.22422694013208,0.8140489736057891,40.40786085422335,1,n,1.5223267999999734,incorrect,c
30,2F4K,31,2,39.38909464802,57.615570738467866,1.1341982531572958,59.26025778424626,2,v,1.1208925999999337,incorrect,b
31,2F4K,32,2,57.75839211273892,42.15909409658543,1.661805760789137,45.71125296738304,1,v,2.0857261000001017,correct,v
32,2F4K,33,1,50.613145609686526,36.41073519993672,1.4323602309066548,40.57293071851362,2,n,1.1341270000002623,correct,n
33,2F4K,34,2,31.01667479057004,45.2471463279328,0.9529683754206612,48.48561381308253,2,b,0.8001015999998344,correct,b
34,2F4K,35,2,42.10697844244724,48.287775579786775,1.2001455260128036,51.2030147317214,2,v,1.0853648000002067,incorrect,b
35,2F4K,36,2,38.97940617519404,53.493682377569606,1.1245767966725555,55.77026930791236,2,b,0.7044004999997924,correct,b
36,2F4K,37,2,35.10047406134324,48.94408906390264,1.0374301633238396,51.78591746775,2,b,0.7508623000003354,correct,b
37,2F4K,38,1,42.79620394959028,58.51353148486379,1.2174699118745622,60.00106187893252,1,n,1.990913300000102,incorrect,c
38,2F4K,39,1,42.42612700368949,53.790633843093566,1.208136788820651,56.026070954320005,1,c,0.5512574000003951,correct,c
39,2F4K,40,2,41.64209477857965,53.832865512166485,1.1885996352675754,56.06240075813808,2,b,1.2616139000001567,correct,b
40,2F4K,41,2,32.39762821763877,38.90177977356975,0.9807306333298912,42.78988673510534,2,b,4.557966500000475,correct,b
41,2F4K,42,2,49.42219481830363,30.042370786319456,1.3973232878718749,35.04571477009449,1,v,0.9578714999997828,correct,v
42,2F4K,43,1,45.1167135374003,53.35955006356904,1.2776577297353495,55.65452669184816,1,n,1.9046547000007195,incorrect,c
43,2F4K,44,1,49.06052748846014,64.4866308039545,1.3868539111971134,64.70762327745513,1,c,0.6131160000004456,correct,c
44,2F4K,45,1,39.64689569119284,26.11960968330959,1.1402948147803518,31.79494785643489,2,n,0.8426604999995106,correct,n
45,2F4K,46,2,55.09071900163014,47.70338436626682,1.5721311447960074,50.68270999292591,1,v,1.6254982999998902,correct,v
46,2F4K,47,2,32.779156978351786,50.14469408141151,0.9885423710150149,52.847716003247726,2,b,0.8365031000003,correct,b
47,2F4K,48,2,40.05891624881366,55.67444536148988,1.150106521025936,57.63382254969044,2,b,1.164216099999976,correct,b
48,2F4K,49,2,44.00641097673299,66.63093238938035,1.2484969780779558,66.2891133287066,2,b,0.8982876000000033,correct,b
49,2F4K,50,1,54.36288766221753,37.84518438334472,1.548516365120438,41.8470276757596,2,c,1.819692799999757,incorrect,n
50,2F4K,51,1,52.07963855871576,38.317872590824585,1.4767126847437275,42.26843117422028,2,n,0.5762895999996545,correct,n
51,2F4K,52,1,44.521763782995286,34.25325212696022,1.2619483934748577,38.67335288205857,2,n,1.4254578000000038,correct,n
52,2F4K,53,1,54.74118831314193,38.32389631279233,1.560745871311344,42.27380573230308,2,n,2.3173547999995208,correct,n
53,2F4K,54,1,63.704325534269685,55.58997960650593,1.8805175442411148,57.56232252200789,2,c,1.3234658999999738,incorrect,n
54,2F4K,55,2,74.50772475771599,51.8900930683202,2.354191602150946,54.37894510772539,1,v,1.371160400000008,correct,v
55,2F4K,56,1,64.06434805675161,46.89683876177761,1.894648790138566,49.96287931237919,2,n,1.534441699999661,correct,n
56,2F4K,57,1,58.71324091796623,50.367161654376176,1.6951315383281274,53.04375213578848,2,n,1.6861361999999644,correct,n
57,2F4K,58,2,40.9861594626312,50.91279626081625,1.1724974490025584,53.523530971243,2,b,1.3780593000001318,correct,b
58,2F4K,59,2,47.00463638619322,62.52989382077542,1.3288139201208355,63.21174300203234,2,b,0.7030380999995032,correct,b
59,2F4K,60,1,26.56367974404385,44.94980188920684,0.8686882281112817,48.21881429213411,1,c,2.7010924000005616,correct,c
60,2F4K,61,2,53.18400281961311,36.71594198023641,1.511017201788304,40.84336575540108,1,b,1.8504695999999967,incorrect,v
61,2F4K,62,1,36.41884009753548,49.26101311569308,1.0662643833855814,52.06679692344075,1,n,2.421938499999669,incorrect,c
62,2F4K,63,2,69.87634599118097,51.89740184087052,2.138042275489094,54.38532222913984,1,v,2.0930149999994683,correct,v
63,2F4K,64,1,45.45131250830653,35.43284706608432,1.2865784020035915,39.709154070820496,2,n,2.371874800000114,correct,n
64,2F4K,65,1,50.908349740375286,36.27532836965034,1.4411799562659795,40.453073729810086,2,c,2.026036799999929,incorrect,n
65,2F4K,66,2,49.27583075749298,45.82040234126079,1.3930769227780082,48.999579580995295,1,v,1.3038474000004499,correct,v
66,2F4K,67,2,45.132264828163976,54.302946531073744,1.2780709655050024,56.465933393613525,2,v,0.5830010999998194,incorrect,b
67,2F4K,68,1,30.24001380458684,47.48221314315552,0.9377013495940492,50.48550667104947,1,c,1.4483061999999336,correct,c
68,2F4K,69,1,64.59334040577339,50.32983823646876,1.9156051405387609,53.010879661227904,2,n,2.0442173000001276,correct,n
69,2F4K,70,2,60.85762319932429,50.48319517456432,1.7724300551652503,53.14590504724151,1,v,2.372377900000174,correct,v
70,2F4K,71,2,47.2516236517216,34.565540801226604,1.3356562054808292,38.94686655088536,1,v,1.2919636999995419,correct,v
71,2F4K,72,1,42.68900841411287,32.95696798471058,1.214759110453194,37.54400296414234,2,n,3.3929774000007455,correct,n
72,2F4K,73,2,64.85842083727896,45.396349874487896,1.9261934807165124,48.61943968936367,1,v,1.1884839000003922,correct,v
73,2F4K,74,1,47.29796499592172,35.747019045233536,1.3369439191263608,39.98619424467744,2,n,2.0381711999998515,correct,n
74,2F4K,75,1,60.50631824378548,41.86555814357945,1.7595293109854426,45.44745980217441,2,n,1.4680148000006739,correct,n
75,2F4K,76,2,38.22294801994975,50.56098338870039,1.107025489295102,53.21435079175613,2,v,2.3233847000001333,incorrect,b
76,2F4K,77,1,49.42710767302386,38.209324104335806,1.3974660456297658,42.17159915625055,2,n,2.3794331999997667,correct,n
77,2F4K,78,1,46.27992529477931,55.49255096098567,1.308938903262248,57.479777843920296,1,n,1.041741699999875,incorrect,c
78,2F4K,79,2,74.0692300620114,59.18081805551587,2.3328230857823296,60.54645945915709,1,v,1.686164199999439,correct,v
79,2F4K,80,2,55.86798647900747,39.86408673168528,1.5977476820440688,43.65111775207258,1,v,0.8668133000001035,correct,v
80,2F4K,81,1,33.718096454319166,43.51733143356745,1.0080330171025986,46.932115838503954,1,n,3.6781096000004254,incorrect,c
81,2F4K,82,2,58.23631263055566,62.6014310703991,1.6784032526793693,63.26727029785855,2,b,1.8743044000002556,correct,b
82,2F4K,83,1,60.23536289462552,46.91166288921186,1.7496433693985038,49.97612604427485,2,c,0.7271897000000536,incorrect,n
83,2F4K,84,1,26.57136265006063,40.71987935343786,0.8688270221664757,44.418551151571656,1,c,1.2519443000001047,correct,c
84,2F4K,85,2,53.98596981778852,64.0552989333492,1.5364268642200096,64.38205654814946,2,v,2.3613224000000628,incorrect,b
85,2F4K,86,2,35.5013363305799,26.88891879234159,1.046114009027764,32.42090547051149,1,b,1.0368215000007694,incorrect,v
86,2F4K,87,1,42.973057093014766,58.80253585753098,1.2219554706579272,60.23782245168167,1,c,2.6392671000003247,correct,c
87,2F4K,88,2,52.92595628123817,38.36481893612016,1.5029309085467084,42.31032102459949,1,b,1.4251636000008148,incorrect,v
88,2F4K,89,1,57.01013924170363,49.004605376914895,1.6361490457688632,51.83958225391762,2,n,4.011950399999478,correct,n
89,2F4K,90,1,41.78089477212549,59.352982978397925,1.192035204063265,60.68644561912532,1,c,1.4056503000001612,correct,c
90,2F4K,91,1,52.05768666159139,41.45323665258338,1.4760387533912114,45.07701464472461,2,n,2.4862013000001753,correct,n
91,2F4K,92,2,52.11533848021817,65.14340340736739,1.4778093426993948,65.19865209857963,2,v,1.1217421000001195,incorrect,b
92,2F4K,93,2,45.34178346166056,65.7186030445919,1.2836514351735937,65.62393321838726,2,b,0.6790019000000029,correct,b
93,2F4K,94,1,52.43480452984868,35.8684188540961,1.4876592732098024,40.09336824027463,2,n,1.5284730999992462,correct,n
94,2F4K,95,2,34.876679735320565,48.97133471501853,1.0326135196637365,51.81008021664801,2,v,2.591713499999969,incorrect,b
95,2F4K,96,1,53.70015117975086,43.780668412547456,1.52732229938793,47.16877750273811,2,n,1.6389037999997527,correct,n
96,2F4K,97,1,57.972885276818026,50.218465925869786,1.6692344009996765,52.91274911404363,2,n,1.4182987000003777,correct,n
97,2F4K,98,1,63.25464366483599,48.71954043620875,1.863015025581764,51.58666694235462,2,n,1.0550266000000192,correct,n
98,2F4K,99,1,33.65595340242548,44.62301840115818,1.0067312494448633,47.92546192827896,1,c,2.050296000000344,correct,c
99,2F4K,100,2,39.889960867443264,29.112064450560748,1.1460729089883068,34.26211303575874,1,b,2.15943150000021,incorrect,v
100,2F4K,101,2,39.11185687472687,27.24540340712716,1.12767841462954,32.71298588272332,1,v,0.5876725999996779,correct,v
101,2F4K,102,1,58.16477111037169,50.5758384210946,1.6759082087851516,53.227418308110906,2,n,2.51903350000066,correct,n
102,2F4K,103,1,38.881574255976325,33.09570849483277,1.1222913308696068,37.66439120304802,2,c,0.8851533000006384,incorrect,n
103,2F4K,104,1,49.09011860677416,36.915381361782174,1.3877075466306312,41.02028419507096,2,n,0.7151537999998254,correct,n
104,2F4K,105,1,59.37838179505447,41.46415508499999,1.718740159893829,45.08682237778204,2,n,0.8732427999993888,correct,n
105,2F4K,106,1,30.57750648575317,41.93959540526643,0.9443052488379268,45.513990585044695,1,c,0.9943051999998715,correct,c
106,2F4K,107,2,49.091038318533016,35.684069930747825,1.3877340866085928,39.93064814681729,1,v,1.4677481999997326,correct,v
107,2F4K,108,1,64.50608655322314,45.171257953768674,1.9121326314560807,48.41753348813872,2,n,1.297764100000677,correct,n
108,2F4K,109,1,80.76505892006941,64.01889953434848,2.6813355388485585,64.35447220117388,2,n,0.8548831999996764,correct,n
109,2F4K,110,2,50.90726570705421,47.10416938186762,1.441147469785295,50.14809521903332,1,b,2.555355600000439,incorrect,v
110,2F4K,111,2,55.15529928871327,70.32040328879441,1.5742437925881438,68.85488774524022,2,v,1.7528929000000062,incorrect,b
111,2F4K,112,1,32.265812585632105,48.35362602527233,0.97804610308101,51.2615709162251,1,c,3.902739900000597,correct,c
112,2F4K,113,2,70.40745668650209,55.71555842411489,2.161785979085077,57.668603668056925,1,v,0.8540069999999105,correct,v
113,2F4K,114,2,71.92019972885527,57.23034966862236,2.2308692984862897,58.94013472401939,1,v,0.608469600000717,correct,v
114,2F4K,115,2,55.783210161859245,42.621929305891314,1.5949335354883116,46.127263969219065,1,b,0.9097115999993548,incorrect,v
115,2F4K,116,2,49.47188877823257,41.83329073249115,1.3987679677644995,45.41846500401531,1,v,0.40703769999981887,correct,v
116,2F4K,117,2,37.6075005432714,21.313718831236294,1.0929481922954598,28.034553579598587,1,v,0.3633706999999049,correct,v
117,2F4K,118,2,28.284125099193727,36.50144328731085,0.9003287239184816,40.653264879472445,2,b,1.303849099999752,correct,b
118,2F4K,119,1,58.405454976338895,36.046070823567725,1.6843169535803817,40.2503221660978,2,n,1.3671989999993457,correct,n
119,2F4K,120,1,45.360571393346845,57.04035568601299,1.2841530353003778,58.781750128987895,1,n,1.285968099999991,incorrect,c
120,2F4K,121,1,34.13375545107363,43.581109728511656,1.0167835982656828,46.98943674762843,1,c,2.3731420999993134,correct,c
121,2F4K,122,1,54.36963448386006,41.06717871688098,1.5487336313411078,44.73030533349699,2,n,1.09747520000019,correct,n
122,2F4K,123,2,70.71796659143442,54.17185671047979,2.175789515212261,56.35356112748848,1,b,1.937167899999622,incorrect,v
123,2F4K,124,2,48.23471866348873,65.68841806887437,1.3632418778038744,65.60172776701448,2,v,0.8304551000001084,incorrect,b
124,2F4K,125,1,51.92772027530421,64.42280945488409,1.4720550334935734,64.65960407670671,1,n,2.370726599999216,incorrect,c
125,2F4K,126,2,54.22583348999943,38.66742792360931,1.5441094360371466,42.5804876663853,1,v,1.5101503000005323,correct,v
126,2F4K,127,2,55.43378154165922,70.36610909300536,1.5833864892002227,68.88536241149826,2,v,0.9761077000002842,incorrect,b
127,2F4K,128,1,53.80839188101759,33.12424152744849,1.530763871333428,37.68916493964882,2,n,4.108065600000373,correct,n
128,2F4K,129,2,53.22218082107858,37.92360633996012,1.5122172583524047,41.91689283122832,1,v,2.889200300000084,correct,v
129,2F4K,130,2,60.81918096936017,47.38705327809269,1.771013769623992,50.40061359249973,1,v,1.3103048000002673,correct,v
130,2F4K,131,1,47.603425132331886,60.53212184005955,1.3454630338632638,61.636834492055264,1,c,1.554072200000519,correct,c
131,2F4K,132,2,59.39527587104515,42.317779381063495,1.7193440635660182,45.853876648884814,1,v,2.6940541000003577,correct,v
132,2F4K,133,1,55.707089406282925,47.40571907293862,1.592410933569002,50.4172676498076,2,n,0.9214744999999311,correct,n
133,2F4K,134,1,54.13189354809096,50.13049721670262,1.5410960763917805,52.835197902754,2,n,1.2856744000000617,correct,n
134,2F4K,135,1,42.57977911646817,57.896291316398816,1.2120030870846308,59.492673091161706,1,c,1.2323096999998597,correct,c
135,2F4K,136,2,52.55634571881859,65.926140615938,1.4914239058101018,65.7762676634891,2,v,2.5916824000005363,incorrect,b
136,2F4K,137,2,61.80686043099156,50.713709173728496,1.8077633281871988,53.3486463466058,1,v,0.7818821999999273,correct,v
137,2F4K,138,2,53.73586258916544,49.754867314172586,1.5284569069197649,52.503647999983855,1,v,1.1581824999993842,correct,v
138,2F4K,139,1,69.77485722737151,55.126002210465614,2.1335349099522234,57.16854826273647,2,n,1.4085039000001416,correct,n
139,2F4K,140,2,55.24099157793282,44.617781221218046,1.5770514715440154,47.92075947293539,1,v,1.036824400000114,correct,v
140,2F4K,141,2,64.69814237909398,52.07647427342597,1.91978436294482,54.54147075827485,1,v,0.9154818000006344,correct,v
141,2F4K,142,1,47.04812306025723,62.95787382647256,1.3300160833909478,63.543013615042135,1,c,1.249473100000614,correct,c
142,2F4K,143,1,48.67774903822931,30.66083933669568,1.3758588502587197,35.57057887311608,2,n,1.535852399999385,correct,n
143,2F4K,144,1,37.3574173295314,52.00536503865178,1.0872792493683263,54.4794870689862,1,c,1.048077700000249,correct,c
144,2F4K,145,2,69.9142854016894,54.28559476031976,2.1397297021534656,56.45106635403263,1,v,1.285613000000012,correct,v
145,2F4K,146,1,47.02596452259609,65.434923054091,1.3294033879445828,65.41475304721807,1,c,2.174027600000045,correct,c
146,2F4K,147,1,38.40182353925694,24.268849624536617,1.1111508620667376,30.31486528230986,2,c,1.619306499999766,incorrect,n
147,2F4K,148,1,50.04652837352424,35.46431759268463,1.4155825190313298,39.736884146331086,2,c,0.8608079999994516,incorrect,n
148,2F4K,149,1,43.01750510451628,48.94552300134495,1.2230854100529902,51.78718922511017,1,n,0.563846499999272,incorrect,c
149,2F4K,150,2,55.36521237567597,38.91089256796019,1.5811304173128145,42.79803213690894,1,v,3.3626053999996657,correct,v
150,2F4K,151,2,62.485041423613126,47.338192197624025,1.8334376980121363,50.35701376604598,1,v,0.9812057000008281,correct,v
151,2F4K,152,1,48.75843333500545,67.16292723444823,1.378169180125847,66.67156237582553,1,c,2.188769699999284,correct,c
152,2F4K,153,1,46.762519219650095,34.07132898250623,1.3221405738825551,38.51426550384109,2,c,1.5830037999994602,incorrect,n
153,2F4K,154,1,60.05825217002486,42.2823633104943,1.7432114347707663,45.82204441976649,2,n,0.6780331999998452,correct,n
154,2F4K,155,2,62.03431316210889,51.16433101495911,1.816333842807381,53.74419278587782,1,v,1.6497486999996909,correct,v
155,2F4K,156,2,48.99662808560835,60.99794011361139,1.3850123518109168,62.0081326919942,2,b,1.4362156999995932,correct,b
156,2F4K,157,2,64.72132743873188,47.58000648251409,1.9207101520768413,50.572720823181534,1,v,1.000278200000139,correct,v
157,2F4K,158,2,56.17753971149419,46.08128020267584,1.608065521767629,49.23327366914672,1,b,1.2613402999995742,incorrect,v
158,2F4K,159,2,30.154804987359707,44.17804039017767,0.9360413381025996,47.52581420523597,2,b,2.5554386999992857,correct,b
159,2F4K,160,2,56.16822584724677,41.07715406584229,1.607754107644789,44.73926193340142,1,v,0.9278729999996358,correct,v
160,2F4K,161,2,50.75956231754676,61.65431032904111,1.4367279119205,62.527167285947954,2,v,2.54306330000054,incorrect,b
161,2F4K,162,1,54.75704884370782,68.8082995244805,1.5612607065215136,67.8282111209296,1,c,1.6974471000003177,correct,c
162,2F4K,163,2,66.61625735328678,49.86822911597108,1.9979046340003292,52.603774569035394,1,v,1.5101906999998391,correct,v
163,2F4K,164,1,38.84149721009557,52.01129782559571,1.1213564267522798,54.48465963203895,1,c,2.707138699999632,correct,c
164,2F4K,165,2,60.87327393353503,40.77424194421006,1.773006982624037,44.467339513349856,1,v,3.1674118000000817,correct,v
165,2F4K,166,1,57.82302343585029,68.94801046966943,1.664040680340824,67.92455437776071,1,n,1.2555566999999428,incorrect,c
166,2F4K,167,2,40.74912006808037,50.58107947391957,1.1667323170540922,53.23202843972408,2,b,3.42327590000059,correct,b
167,2F4K,168,1,51.46061788450783,37.82571326064299,1.4578260006337525,41.82968417318311,2,n,3.247435599999335,correct,n
168,2F4K,169,1,51.80571370773483,72.132253386304,1.468325082090219,70.03709564250813,1,n,1.17033149999952,incorrect,c
169,2F4K,170,2,41.57020569717635,37.54565670571311,1.1868241352883573,41.58036853191948,1,b,2.6949075000002267,incorrect,v
170,2F4K,171,2,60.09073579147184,67.35570775310634,1.7443893333798868,66.80914578406566,2,v,0.9457658999999694,incorrect,b
171,2F4K,172,2,69.68537868026088,52.93513094659854,2.129568830413506,55.287506808979856,1,v,0.7104757999995854,correct,v
172,2F4K,173,2,61.678394225669706,71.48522822920239,1.8029405506403968,69.62106884506562,2,v,0.6014181000000463,incorrect,b
173,2F4K,174,2,61.37278328866497,50.40115187824792,1.7915191918454103,53.073683044473135,1,v,0.7395387999995364,correct,v
174,2F4K,175,1,26.097626609166507,37.85671038902991,0.8603101704393005,41.85729480859337,1,c,1.2977246999998897,correct,c
175,2F4K,176,2,66.61487259990722,50.03236672885664,1.9978471048909148,52.74864548597071,1,v,3.9208334999993895,correct,v
176,2F4K,177,1,33.89600305584542,49.44613377355876,1.011769105236264,52.23067238062595,1,c,5.0,correct,c
177,2F4K,178,2,47.703382662911366,59.02104769578669,1.348262565861717,60.416280592309015,2,b,2.0502895999998145,correct,b
178,2F4K,179,1,67.08169601338248,48.90276394262324,2.0173352819728017,51.74926279954271,2,n,2.2979700000005323,correct,n
179,2F4K,180,1,63.619137901446685,57.879416870072816,1.8771892933887824,59.47872325599106,2,n,1.1049645000002783,correct,n
180,2F4K,181,2,49.6417220884853,69.56661454338786,1.4037165679620394,68.34753460678665,2,v,1.936347200000455,incorrect,b
181,2F4K,182,2,62.71022534563462,43.79276169892944,1.842043026537352,47.179644863571006,1,v,0.9154090000001815,correct,v
182,2F4K,183,1,53.294746331057645,49.16842648401739,1.5145008522030328,51.98478247027976,2,n,3.829885899999681,correct,n
183,2F4K,184,1,73.53872849256462,57.77132990415485,2.307230041852476,59.38930580503615,2,n,0.672171299999718,correct,n
184,2F4K,185,2,30.110941223527306,47.73273856965991,0.9351879440938832,50.70887174781706,2,b,1.675475600000027,correct,b
185,2F4K,186,2,54.06964665915126,40.62034024019746,1.53910259108654,44.329229281737724,1,v,1.2915552000004027,correct,v
186,2F4K,187,1,49.23848835053913,39.93358663034097,1.391995599594456,43.71339427905311,2,n,1.722566899999947,correct,n
187,2F4K,188,2,73.93819707745332,58.29715314781018,2.3264753679281465,59.823261018030095,1,v,2.1159796000001734,correct,v
188,2F4K,189,1,47.06593093773196,56.71224574743278,1.330508685401944,58.50746939534256,1,c,2.3112536999997246,correct,c
189,2F4K,190,2,45.23273686057282,56.74939078120824,1.2807439757764678,58.53856818773446,2,v,2.960791900000004,incorrect,b
190,2F4K,191,2,58.84789007779288,43.18855891885125,1.6998844737234788,46.6366067034186,1,v,1.8136352999999872,correct,v
191,2F4K,192,2,54.78782467572053,68.37324988493194,1.5622601791896262,67.526307478803,2,b,1.3659434000001056,correct,b
192,2F4K,193,1,67.85281309009028,54.06119378446223,2.049943848980093,56.25860250278774,2,n,1.619294600000103,correct,n
193,2F4K,194,2,59.349275454913816,68.73697968928313,1.717700208313538,67.77891503273895,2,v,1.5342949999994744,incorrect,b
194,2F4K,195,2,24.568040468851265,42.04490724432482,0.8333770142447866,45.60863064938307,2,b,1.0442183000004661,correct,b
195,2F4K,196,2,64.22164215643468,50.5364557275374,1.9008560269127996,53.19277216405583,1,v,1.2795365000001766,correct,v
196,2F4K,197,1,46.13837152286019,62.82284817617388,1.3050916700296042,63.43874072491179,1,c,1.2009415000002264,correct,c
197,2F4K,198,1,47.512285547383485,39.00019621419077,1.342915534634712,42.87786668879574,2,c,4.182356100000106,incorrect,n
198,2F4K,199,1,46.274448431373216,38.0555476371888,1.308789839090671,42.03448188684831,2,n,1.1521187999996982,correct,n
199,2F4K,200,2,33.907905710586405,47.72800593627264,1.0120195579333422,50.70465400069543,2,b,2.033504500000163,correct,b
200,2F4K,201,2,64.24632391361301,42.29956104847967,1.9018318778179015,45.83750181857103,1,v,5.0,correct,v
201,2F4K,202,2,40.40445834130778,62.21215231334544,1.1584001948783638,62.96436758826584,2,b,0.9701806000002762,correct,b
202,2F4K,203,2,56.565221852220006,37.19622735979127,1.6210815351489372,41.2696746427822,1,v,0.8424614999994446,correct,v
203,2F4K,204,2,40.609109304569365,57.340341528498506,1.163340383712185,59.03167789335635,2,b,0.9894504000003508,correct,b
204,2F4K,205,2,45.74709881404007,64.93428657721148,1.2945161503902836,65.0429308350173,2,b,0.7091350999999122,correct,b
205,2F4K,206,1,47.13541536879303,30.965667447144043,1.3324325111227746,35.83037223974193,2,c,1.3113705000005211,incorrect,n
206,2F4K,207,2,50.3715107122045,67.8734411478469,1.425181164128008,67.17595657271036,2,b,0.8061726000005365,correct,b
207,2F4K,208,2,50.89793909898468,69.59600281582269,1.4408679987826274,68.36748192024027,2,b,0.7455021999994642,correct,b
208,2F4K,209,2,59.81472188797487,72.74335058217423,1.7344060047731984,70.42362231003948,2,v,0.8790150999993784,incorrect,b
209,2F4K,210,2,59.0970584864086,49.715976375256574,1.7087149615198896,52.469284433777645,1,b,0.7336123000004591,incorrect,v
210,2F4K,211,1,42.886654762601694,48.55402838773528,1.2197619715349246,51.43967903784474,1,c,2.7435428999997384,correct,c
211,2F4K,212,2,25.12228854012756,48.147756876604106,0.843037467583556,51.078455494798746,2,b,2.8964359000001423,correct,b
212,2F4K,213,1,46.73490003660351,62.70823817151905,1.3213814538187731,63.350058649400346,1,c,1.856101000000308,correct,c
213,2F4K,214,1,72.58616999448202,56.31632126984629,2.2619783168563257,58.17524645969599,2,n,0.8425354999999399,correct,n
214,2F4K,215,1,50.01481820717726,57.20352786874296,1.4146493995659148,58.91779502248756,1,c,1.8321655999998256,correct,c
215,2F4K,216,2,30.18710228693645,50.3746360555356,0.936670197856498,53.05033437999436,2,b,0.9106309999997393,correct,b
216,2F4K,217,2,43.225626487609496,55.00188400917372,1.2283901036689535,57.06292279679984,2,b,1.04286460000003,correct,b
217,2F4K,218,2,49.27927481572646,60.81110889584027,1.3931766945880792,61.859501362830166,2,b,1.0853470000001835,correct,b
218,2F4K,219,1,45.95762717302522,55.41298556295302,1.3001957245048266,57.41231095744111,1,c,2.6829154000006383,correct,c
219,2F4K,220,1,53.06034035244468,38.58294306396726,1.507136629669675,42.50503453654776,2,n,0.5876994999998715,correct,n
220,2F4K,221,2,58.94001944983276,53.21331532593717,1.7031441937897047,55.5282032511191,1,v,1.0914327999998932,correct,v
221,2F4K,222,2,65.23609644857856,80.86492214871186,1.9413804829440136,74.93112619211058,2,v,0.8001149000001533,incorrect,b
222,2F4K,223,1,46.24998446701552,63.35302371687303,1.3081242089110172,63.84687218471458,1,c,1.9168166999997993,correct,c
223,2F4K,224,2,59.69985441180039,75.5439549891781,1.7302681429110665,72.11303466764423,2,v,1.1278732000000673,incorrect,b
224,2F4K,225,2,29.48862128317364,48.689762878687176,0.9231638516109268,51.560229672413264,2,b,0.7809900000002017,correct,b
225,2F4K,226,2,66.26617273664613,52.07541592997536,1.9834130897638231,54.5405484523235,1,b,0.6497965999997177,incorrect,v
226,2F4K,227,2,58.57836804317964,46.05680682008943,1.6903840285817853,49.21135631505561,1,v,0.6472742000005383,correct,v
227,2F4K,228,2,59.23066973843679,53.32426833407139,1.7134690014611678,55.62406199163488,1,v,2.6172708000003695,correct,v
228,2F4K,229,2,46.04680967970224,57.83912734047912,1.302609172170185,59.4454056713144,2,b,1.4738404999998238,correct,b
229,2F4K,230,2,41.436044129765456,55.31072388188545,1.1835177340889422,57.32552481798806,2,b,0.9457503999992696,correct,b
230,2F4K,231,1,40.492710897993454,57.80401644588851,1.160527996788496,59.41635810331802,1,c,1.3038298000001305,correct,c
231,2F4K,232,2,35.8597303433103,59.43014930068925,1.0539393954924383,60.74909010495158,2,v,1.0624569999999949,incorrect,b
232,2F4K,233,1,49.62624803080192,58.13462462364082,1.403264961151606,59.68941048121484,1,n,0.9093410999994376,incorrect,c
233,2F4K,234,2,60.025568004821565,46.73336279289392,1.7420270669381746,49.81676067826858,1,v,1.1824281999997766,correct,v
234,2F4K,235,1,35.27446124870394,46.35984497030181,1.041190344071638,49.48265419521948,1,c,1.7907699999996112,correct,c
235,2F4K,236,1,73.92572289237152,50.94634951685027,2.3258719738652696,53.5529851452133,2,n,0.7394414999998844,correct,n
236,2F4K,237,1,55.14494860855719,32.64404051545334,1.573904994573349,37.27291966835044,2,n,0.794460899999649,correct,n
237,2F4K,238,1,40.37126849725564,48.715006520619966,1.1576009852800326,51.58264183375736,1,c,1.0793069000001196,correct,c
238,2F4K,239,2,53.39848458073518,38.99716696022434,1.5177714238161832,42.87515830496528,1,v,3.74959889999991,correct,v
239,2F4K,240,1,64.72559360617262,46.8211641305908,1.9208805505536608,49.89524809184867,2,n,1.206716900000174,correct,n
240,2F4K,241,2,55.69388833867461,47.40252267697369,1.591973863250553,50.414415823557775,1,b,2.2503931000001103,incorrect,v
241,2F4K,242,2,65.0016800841545,78.26605193007073,1.9319401516424803,73.62076447325511,2,v,0.6450177000006079,incorrect,b
242,2F4K,243,1,37.29232983241974,28.92807074457574,1.0858086596656955,34.10800987644555,2,c,2.408738000000085,incorrect,n
243,2F4K,244,1,50.97835038166744,62.35705036998648,1.4432792976671267,63.07732706047577,1,n,1.1549113999999463,incorrect,c
244,2F4K,245,2,63.278223709549415,44.87980674202825,1.863928747781212,48.1559913423677,1,v,3.6307151000000886,correct,v
245,2F4K,246,1,47.9771290399196,63.761405612995055,1.355959295773466,64.15885159405289,1,c,1.4665627000003951,correct,c
246,2F4K,247,2,35.9288368964337,45.8518948200501,1.055455027159318,49.02779768172053,2,b,1.8621775999999954,correct,b
247,2F4K,248,1,59.543466996651766,47.879259101525456,1.724650476312095,50.83941627057913,2,c,1.654929500000435,incorrect,n
248,2F4K,249,1,53.51086729195386,64.93596953855047,1.5213225013118117,65.04418640705386,1,n,0.516268599999421,incorrect,c
249,2F4K,250,2,57.8992236115277,41.30696541629341,1.666679506319909,44.94563396413479,1,v,3.3151090000001204,correct,v
250,2F4K,251,1,51.87383011966338,67.49373757124272,1.470406351538084,66.90732290549286,1,n,5.0,correct,c
251,2F4K,252,1,35.71312255899454,51.59831404057123,1.0507312241686169,54.12410867430683,1,c,1.5468590999998924,correct,c
252,2F4K,253,2,66.63838715863152,75.19113799188638,1.998824234066162,71.9077744720205,2,v,1.7347443999997267,incorrect,b
253,2F4K,254,2,36.38286545857022,48.23014261266829,1.065467039568331,51.151753263579145,2,b,0.703022200000305,correct,b
254,2F4K,255,1,54.088618991412034,41.008440633966885,1.5397099154145732,44.67756834228966,2,c,2.695014599999922,incorrect,n
255,2F4K,256,1,59.89175557885662,69.408902641756,1.7371865251297325,68.24025814360877,1,n,2.228806899999654,incorrect,c
256,2F4K,257,1,59.64024010341736,77.37750842138495,1.7281245541084669,73.14356867327501,1,c,1.3888229000003776,correct,c
257,2F4K,258,2,55.61992554629233,47.35934702550153,1.589527268634643,50.37589154378336,1,b,1.0362992999998824,incorrect,v
258,2F4K,259,2,43.32784569164191,60.25440922707374,1.2310039326384994,61.4143365356935,2,v,0.6073084999998173,incorrect,b
259,2F4K,260,2,49.49608604669794,66.53622834799712,1.3994719602170311,66.22060762820918,2,v,0.6180659000001469,incorrect,b
260,2F4K,261,1,51.5747864480696,70.29576126989733,1.4612910910296388,68.83844372426759,1,n,3.57503910000014,incorrect,c
261,2F4K,262,1,27.521159487228644,38.83820361358623,0.8861573418278582,42.7330656220894,1,c,1.522291000000223,correct,c
262,2F4K,263,2,45.45137695728735,62.782084510518416,1.2865801262499494,63.40721729126949,2,b,1.328270099999827,correct,b
263,2F4K,264,1,51.478793607633946,39.77098521500403,1.4583770952648147,43.567707349022754,2,n,1.1944610999998986,correct,n
264,2F4K,265,1,54.178260967406096,72.645337296027,1.5425826921840968,70.3620500421244,1,c,1.643699000000197,correct,c
265,2F4K,266,2,45.75524807175558,61.7610732952819,1.2947355364556463,62.61112336330673,2,v,1.4616164999997636,incorrect,b
266,2F4K,267,1,56.16869821206725,39.30692267573127,1.6077698999679502,43.15221922085078,2,n,1.4240450999996028,correct,n
267,2F4K,268,1,54.09532247068499,65.85189480106143,1.5399245581343777,65.72183884227128,1,c,0.6366746999992756,correct,c
268,2F4K,269,2,57.05551618779122,41.39189978686991,1.6376936234557746,45.021919439510526,1,b,1.1420607999998538,incorrect,v
269,2F4K,270,1,30.37726039126581,38.642044445123325,0.9403813365897468,42.55781571652371,1,n,2.245765200000278,incorrect,c
270,2F4K,271,2,29.418152045742566,51.20938378821689,0.9218120688095628,53.78368043811531,2,b,3.0045177000001786,correct,b
271,2F4K,272,1,49.25646187860574,28.530515890612232,1.3925159538053855,33.77606177948344,2,c,1.9108074999994642,incorrect,n
272,2F4K,273,2,34.4207478406754,47.71944989985784,1.0228697415466423,50.697028637919054,2,b,1.7225924999993367,correct,b
273,2F4K,274,1,46.51572280352526,25.283195147748323,1.3153727464361853,31.121409128345668,2,c,0.8911599000002752,incorrect,n
274,2F4K,275,1,52.58776595762471,35.0784716051603,1.4923986691370803,39.397230071664914,2,n,0.49807200000032026,correct,n
275,2F4K,276,1,49.622926402600136,67.15723930669982,1.4031680391403811,66.66749484690125,1,c,1.1581237000000328,correct,c
276,2F4K,277,1,40.905367391768905,49.85420566903433,1.1705292790336337,52.59139152192029,1,n,0.7627335999995921,incorrect,c
277,2F4K,278,2,32.95734801666572,41.88081250919946,0.9922120892862868,45.46116728026243,2,v,1.3513918999997259,incorrect,b
278,2F4K,279,1,57.26693499893918,41.43597007888084,1.644909315685285,45.06150477000407,2,n,1.388947499999631,correct,n
279,2F4K,280,2,63.78582302585623,50.98587979195192,1.8837071455206795,53.58767862273469,1,v,1.5829917000000933,correct,v
280,2F4K,281,1,50.43744477279219,34.85300794892741,1.427136513510055,39.1991010210151,2,n,2.8033834999996543,correct,n
281,2F4K,282,2,48.9485874330015,32.32108423543429,1.3836294467893249,36.99382016347062,1,v,3.3493797000000995,correct,v
282,2F4K,283,1,27.338778313614768,44.406830663873606,0.8828029461562951,47.73132224834469,1,c,1.1581820000001244,correct,c
283,2F4K,284,1,77.1037706373667,61.36136220780722,2.484771382382063,62.29612223522536,2,n,0.9457144999996672,correct,n
284,2F4K,285,1,37.487457241366,50.47567280076995,1.0902233442538487,53.13928453898472,1,c,0.9882113000003301,correct,c
285,2F4K,286,1,51.45889011717664,69.79181901811548,1.457773624930913,68.50004825095287,1,n,1.0614261999999144,incorrect,c
286,2F4K,287,1,58.34864439107424,38.78574432955971,1.682328372518304,42.686188126147485,2,n,1.2492225999994844,correct,n
287,2F4K,288,1,58.55126011608255,39.39160306901553,1.6894314386068066,43.22800084531026,2,n,1.2114102000005005,correct,n
288,2F4K,289,1,33.39832775255545,49.63940546784201,1.0013524346691107,52.401607764894514,1,c,0.8304376999994929,correct,c
289,2F4K,290,2,46.83595232205586,51.97831942079968,1.3241610226905556,54.45590444338082,2,b,1.085337100000288,correct,b
290,2F4K,291,1,52.74425933134698,47.51959224037292,1.497263125946695,50.518845550324855,2,n,1.0792946000001393,correct,n
291,2F4K,292,2,80.66220059218705,64.93631968438196,2.675606616031176,65.04444762833745,1,v,1.371611099999427,correct,v
292,2F4K,293,1,38.89093863014504,51.12121021121118,1.1225098922210208,53.70638829517552,1,c,1.0492408999998588,correct,c
293,2F4K,294,1,37.155024659072886,54.48319232529193,1.082712901191706,56.62023785564164,1,c,1.954780799999753,correct,c
294,2F4K,295,2,45.722177935194985,39.62621465235993,1.2938454863536906,43.43804090566243,1,v,1.6381069999997635,correct,v
295,2F4K,296,1,47.04097508760864,63.33941506320638,1.3298184072679784,63.83643984166705,1,c,0.6740849000007074,correct,c
296,2F4K,297,1,39.16054097056758,27.4362994636463,1.128820606174851,32.8699070382684,2,n,0.727310899999793,correct,n
297,2F4K,298,2,29.58820985475834,41.95810523853175,0.925077599718642,45.530624267041055,2,v,1.238478700000087,incorrect,b
298,2F4K,299,1,49.43963142958104,63.13653238839618,1.3978300269944552,63.68063673900919,1,c,0.557317900000271,correct,c
299,2F4K,300,1,35.7300342574136,49.36295165258345,1.051100798623958,52.15705437804431,1,c,1.461617599999954,correct,c
300,2F4K,301,1,37.28449825083317,50.4781957026852,1.0856318466910233,53.14150499843615,1,n,1.1766876000001503,incorrect,c
301,2F4K,302,1,64.9166217978079,42.7264469065052,1.9285260771464052,46.22121454470923,2,n,0.8317424999995637,correct,n
302,2F4K,303,1,32.30816796664854,44.36939735873655,0.9789079019172776,47.6977016426416,1,c,0.8183232000001226,correct,c
303,2F4K,304,2,68.30921980936361,51.98364752746036,2.0694918891211964,54.46055066447061,1,v,0.9596529000000373,correct,v
304,2F4K,305,2,21.777623903431344,35.96664948363504,0.7863964516359322,40.18013675866276,2,b,0.6483665000005203,correct,b
305,2F4K,306,2,51.42420898780059,34.31885003822981,1.4567226957665511,38.730761775445565,1,v,0.7216282999997929,correct,v
306,2F4K,307,1,57.75025901911657,44.28489467349987,1.6615247350987044,47.62180081191946,2,c,2.999561300000096,incorrect,n
307,2F4K,308,2,39.85692458738273,50.17315239101801,1.1452858615014303,52.87280629346126,2,v,1.5759708000005048,incorrect,b
308,2F4K,309,1,72.84325842869237,56.876332859029866,2.2741032423782426,58.644755790762346,2,n,1.0877682999998797,correct,n
309,2F4K,310,1,60.441438055592094,43.0625793110062,1.757157050405045,46.52336558641318,2,c,0.6675285000001168,incorrect,n
310,2F4K,311,2,51.74084196056752,43.93040787263052,1.4663456908868937,47.30333096820858,1,v,1.0674521000000823,correct,v
311,2F4K,312,2,55.999400668292,36.10007194948248,1.6021197882324132,40.2980593431566,1,v,1.2505184000001464,correct,v
312,2F4K,313,1,48.05859366264525,30.09154094383808,1.3582582499794833,35.08733114746119,2,n,1.1143801999996867,correct,n
313,2F4K,314,2,34.94033999707832,50.40942297379317,1.0339813758189145,53.08096550756432,2,b,1.1035514000004696,correct,b
314,2F4K,315,2,50.25362594528768,36.668506405146864,1.4216918321966625,40.80130971618013,1,v,1.1416552999999112,correct,v
315,2F4K,316,2,50.013328370755815,69.97836252119677,1.4146055740138883,68.62577835846895,2,b,1.5771083999998154,correct,b
316,2F4K,317,2,60.31632729785907,46.924052043463455,1.7525915630875029,49.98719645890858,1,v,1.3159703000001173,correct,v
317,2F4K,318,1,68.0456969679124,55.46230220615983,2.058182495282152,57.45413460612346,2,n,1.092776700000286,correct,n
318,2F4K,319,1,71.89584263377105,54.573756197113454,2.229739668127849,56.69767695871612,2,n,1.1885733999997683,correct,n
319,2F4K,320,2,53.11973385166573,35.84024974328964,1.508999173363457,40.06849406478083,1,v,1.7225763999995252,correct,v
320,2F4K,321,1,43.76360367766325,49.9009504769821,1.2422091591550302,52.63266486922595,1,c,4.498171399999592,correct,c
321,2F4K,322,2,50.0777210276541,63.59945829491423,1.4165010104283369,64.03538559900316,2,v,4.07269770000039,incorrect,b
322,2F4K,323,2,62.33652001089721,50.50679891460226,1.827784014731078,53.16667710270932,1,v,0.9628953999999794,correct,v
323,2F4K,324,2,35.80608776345145,50.36095717933922,1.0527644172822654,53.03828803176752,2,b,0.7993839999999182,correct,b
324,2F4K,325,2,55.67816817498012,43.45747662130692,1.5914535453929035,46.87831957928357,1,b,1.3537974000000759,incorrect,v
325,2F4K,326,2,47.31682666330892,34.748057335837785,1.3374683945710066,39.10696325838008,1,v,1.0117055000000619,correct,v
326,2F4K,327,1,38.12234299073642,49.44670215598013,1.1047119875569162,52.23117531067992,1,c,1.8818092000001343,correct,c
327,2F4K,328,1,44.99029046233083,31.88382920602761,1.2743033142038604,36.61706729092336,2,c,0.7154473999999027,incorrect,n
328,2F4K,329,1,33.52253412404934,45.13869283627598,1.0039420694354313,48.38831628021261,1,n,0.5587589000006119,incorrect,c
329,2F4K,330,2,50.118701192022456,64.46165775686988,1.4177086083514416,64.68883990319678,2,v,0.7516092000005301,incorrect,b
330,2F4K,331,1,57.33502959133209,67.54675463513395,1.6472401361068498,66.94495867940515,1,n,1.783887899999172,incorrect,c
331,2F4K,332,1,78.40639390098832,61.18317420496731,2.552996955015699,62.15510633756936,2,n,0.8972426000000269,correct,n
332,2F4K,333,1,51.01822400410607,62.60084394764639,1.4444764870314122,63.26681482455576,1,c,1.1329804999995758,correct,c
333,2F4K,334,1,69.35950364059296,58.56644938971109,2.115186844703108,60.04447547069167,2,n,0.6376438999996026,correct,n
334,2F4K,335,1,59.78780990029524,43.393362805252885,1.733435669664218,46.8206938695137,2,n,1.5276481999999305,correct,n
335,2F4K,336,2,36.2581206114162,24.279291530581503,1.0627068037138,30.323108841885865,1,v,1.2556316000000152,correct,v
336,2F4K,337,1,39.06638455613113,52.66741756078952,1.1266126194036183,55.05539851094119,1,c,1.0428867000000537,correct,c
337,2F4K,338,1,38.12202331278764,52.72957944547097,1.1047046439906385,55.10933365690237,1,c,1.0914182999995319,correct,c
338,2F4K,339,1,48.121886318366194,54.17138760436112,1.3600470764479162,56.35315877873573,1,n,0.883872500000507,incorrect,c
339,2F4K,340,1,48.63370984799716,32.84229404581074,1.374599457822096,37.4445899274122,2,c,0.5404931000002762,incorrect,n
340,2F4K,341,2,22.83065255480489,41.42918460428304,0.8038061811398997,45.05540972387207,2,b,0.98824599999989,correct,b
341,2F4K,342,1,68.62664580430783,51.04438133735312,2.083197141693656,53.63900709072794,2,n,0.9593134000006103,correct,n
342,2F4K,343,1,44.77593374028279,54.57535410437066,1.2686358461858531,56.69904274447203,1,c,1.3283048000002964,correct,c
343,2F4K,344,2,54.82843349514732,68.55320922739214,1.5635799661183662,67.65153768100643,2,b,1.2251241000003574,correct,b
344,2F4K,345,1,68.25915816257245,52.26783685087642,2.0673386634700344,54.7081262476858,2,n,1.2567214999999123,correct,n
345,2F4K,346,2,56.19583651576725,42.80419581071667,1.6086774610310377,46.291103457597984,1,v,0.7272835999992822,correct,v
346,2F4K,347,1,49.59373283181159,39.798244028222456,1.4023164859058974,43.592126966639846,2,n,1.1544573999999557,correct,n
347,2F4K,348,1,29.63124545660505,46.32028918664861,0.9259058223644936,49.44725294736432,1,c,0.6544569999996384,correct,c
348,2F4K,349,1,40.36465715526342,53.81046536539685,1.157441850402715,56.04313258038489,1,c,0.9336708000000726,correct,c
349,2F4K,350,2,45.793930985474105,63.690375393270685,1.2957774259177313,64.1047402969863,2,b,0.9097238000003927,correct,b
350,2F4K,351,2,49.87490539356601,67.84848863503542,1.4105395927370097,67.15836828319307,2,b,0.6558247000002666,correct,b
351,2F4K,352,2,51.886450243882194,35.785187184529924,1.4707922781281837,40.01988255116437,1,v,0.6361517000004824,correct,v
352,2F4K,353,1,68.55094856791857,52.6235923818633,2.0799206026399166,55.017358710135,2,n,0.836733500000264,correct,n
353,2F4K,354,2,32.631219118726776,51.31017229280842,0.9855060093418744,53.871979513460246,2,b,0.8001151999997091,correct,b
354,2F4K,355,1,27.80569655410478,42.321491552992086,0.891416083683526,45.85721320273166,1,c,0.8489180999995369,correct,c
355,2F4K,356,2,37.98004368143349,45.03189221150383,1.1014479421808832,48.29248455997824,2,b,1.147419799999625,correct,b
356,2F4K,357,2,47.25020295316097,34.72279588796905,1.3356167473119378,39.084794401464485,1,b,1.018573400000605,incorrect,v
357,2F4K,358,2,55.92235960156631,71.08764075203868,1.5995552087752152,69.36201622395595,2,v,0.6666416999996727,incorrect,b
358,2F4K,359,2,73.6162397301508,61.00299802155971,2.3109518358397385,62.01215101468226,1,v,1.182460699999865,correct,v
359,2F4K,360,1,68.65892550635122,48.56372266834551,2.084595931213003,51.448291143875984,2,n,1.2081929999994827,correct,n
360,2F4K,361,2,48.83329344044277,35.431325343507616,1.3803162083557563,39.70781333362687,1,v,2.9375632999999652,correct,v
361,2F4K,362,1,33.663957975685285,40.49680195691836,1.006898834232662,44.21839173513819,1,c,1.0064414999997098,correct,c
362,2F4K,363,2,36.33277704277528,51.77903880801132,1.0643578701702776,54.282008974500016,2,b,0.8414735999995173,correct,b
363,2F4K,364,2,40.1113460235761,25.330350810250177,1.1513611044325498,31.15918209112848,1,b,0.7940333000005921,incorrect,v
364,2F4K,365,1,47.30378248636701,51.60665360046821,1.337105660770521,54.13139906432463,1,c,0.8075997999994797,correct,c
365,2F4K,366,1,55.11854435298033,44.44622067380545,1.5730410618275088,47.76669873851853,2,n,0.6741359999996348,correct,n
366,2F4K,367,1,34.41575376646918,51.148936188976144,1.0227635232119543,53.73069710798652,1,c,0.7506558000004588,correct,c
367,2F4K,368,2,54.84034273885418,38.01746518664156,1.5639672280187715,42.000536325916826,1,b,0.7515520999995715,incorrect,v
368,2F4K,369,1,25.11362724161426,45.006687984258,0.8428856446110097,48.26986654151331,1,c,0.7954518000005919,correct,c
369,2F4K,370,1,64.00989497188127,71.71881987693115,1.892504655445052,69.77206169482042,1,n,2.2510629999997036,incorrect,c
370,2F4K,371,1,43.52363412250526,51.53343607289334,1.2360259424249334,54.06737945278966,1,c,1.1763922000000093,correct,c
371,2F4K,372,1,60.114517553450725,38.00684264556328,1.7452521958025944,41.991068518854426,2,n,1.079265000000305,correct,n
372,2F4K,373,1,60.86552179511769,43.73783372105317,1.7727211948298391,47.13028436892969,2,n,0.6255006000001231,correct,n
373,2F4K,374,2,48.02716783229437,32.66531762919817,1.3573709429236984,37.29133156799448,1,v,1.315977600000224,correct,v
374,2F4K,375,2,46.65775416970403,36.56296311087929,1.3192633888144192,40.70776818072256,1,v,0.4782911999991484,correct,v
375,2F4K,376,1,39.34226888400799,54.39852794735027,1.1330944055015209,56.547788304166566,1,n,1.6556806999997207,incorrect,c
376,2F4K,377,1,36.6153083140661,49.53496319484646,1.070629454923413,52.309255848981245,1,c,1.469116799999938,correct,c
377,2F4K,378,1,51.50397845279377,38.81234938287293,1.4591410534028475,42.709961438851614,2,n,0.9339835999999195,correct,n
378,2F4K,379,1,45.67052005900885,60.34430994232012,1.292456389779601,61.486455144450936,1,c,0.9057017999994059,correct,c
379,2F4K,380,2,48.88972716212796,61.15019524593328,1.38193696885662,62.12896760527343,2,v,1.0488273999999365,incorrect,b
380,2F4K,381,2,59.08932697796441,37.975579676957736,1.7084402697411014,41.96320608234356,1,b,0.017301900000347814,incorrect,v
381,2F4K,382,1,50.77917483711083,60.72327937835311,1.4373139734268352,61.78949518022138,1,c,0.8062110000000757,correct,c
382,2F4K,383,1,67.7518626432138,49.65035052802682,2.045645109066348,52.41128306008257,2,n,2.786051999999472,correct,n
383,2F4K,384,2,50.836981541969074,64.24888037312516,1.4390427450572778,64.52846975090053,2,v,1.2613764000006995,incorrect,b
384,2F4K,385,2,58.65461851546875,44.42283269839934,1.693066400446432,47.745693997090406,1,b,2.6828435999996145,incorrect,v
385,2F4K,386,2,57.62034362765233,75.99626967152182,1.6570421593349662,72.37291977760445,2,v,0.49130049999985204,incorrect,b
386,2F4K,387,2,47.56935795514896,64.04534517812331,1.3445102359097565,64.3745150463699,2,b,0.5951844999999594,correct,b
387,2F4K,388,1,42.61088011427413,52.27731447657401,1.212787175806227,54.71637449320562,1,n,1.0841907999993055,incorrect,c
388,2F4K,389,2,47.79850466215927,71.62167133517485,1.350932077086966,69.70937415873432,2,v,1.0652288999999655,incorrect,b
389,2F4K,390,1,53.7501639183963,64.77115007596821,1.5289115189224038,64.92104395644267,1,c,1.2067379999998593,correct,c
390,2F4K,391,2,53.67550439133137,35.02588598981356,1.526539723507098,39.35099674921216,1,v,1.4252112999993187,correct,v
391,2F4K,392,1,42.0817820533135,24.744463420883186,1.1995168814478283,30.691607804090893,2,c,2.3379877000006672,incorrect,n
392,2F4K,393,1,53.482125099307694,70.4827712423716,1.5204135133680778,68.96299687085471,1,n,0.5755905999994866,incorrect,c
393,2F4K,394,2,45.98749239703879,60.71076291885328,1.3010034356730644,61.77951173151501,2,b,0.9531116999996812,correct,b
394,2F4K,395,1,60.79770275773032,74.38889486313522,1.7702229639245075,71.43283719792683,1,n,0.6725226999997176,incorrect,c
395,2F4K,396,2,54.74798195473869,45.275356490889806,1.5609663731518657,48.51091920815276,1,v,0.516224300000431,correct,v
396,2F4K,397,2,60.810334844891706,44.33491389447585,1.770688021625636,47.66672920834495,1,v,1.346545100000185,correct,v
397,2F4K,398,1,51.44759193826814,63.79299301220798,1.4574311772445523,64.18289445969191,1,c,0.789480000000367,correct,c
398,2F4K,399,1,47.72225976577919,28.223378309840868,1.3487919144707647,33.520585856308024,2,c,1.5224544000002425,incorrect,n
399,2F4K,400,1,59.69874819790837,76.54172894747234,1.7302283418875364,72.68141091997813,1,n,0.34634860000005574,incorrect,c
