,condition,trial,sub_task,x,y,xt,yt,cat,resp,rt,acc,correct_resp
0,4F4K,1,2,39.81136790605302,58.48785322809941,1.1442014178216895,60.11863613339807,2,b,3.496109100000467,correct,b
1,4F4K,2,2,41.18382645637613,62.76787359379288,1.1773267651899049,63.54857974054576,2,b,1.601218400000107,correct,b
2,4F4K,3,1,52.05081336157979,67.6777236292001,1.4758278037743624,67.20472159875902,1,n,1.3524037000006501,incorrect,c
3,4F4K,4,1,66.49528658765286,48.06964764957852,1.9928851881159604,51.111598739865656,2,c,0.8912402000005386,incorrect,n
4,4F4K,5,1,62.55002012852255,39.59520476002439,1.8359167027960817,43.48244304219106,2,c,1.9289407999995092,incorrect,n
5,4F4K,6,1,42.09627677449197,53.78783417802007,1.1998784814277217,56.14643939776427,1,n,0.8062025999997786,incorrect,c
6,4F4K,7,2,54.131496097948606,39.27978793891974,1.541083339680837,43.19897778287108,1,b,3.9816227000001163,incorrect,v
7,4F4K,8,1,56.6403838393638,51.04877915586548,1.6236171848904637,53.75609023881562,2,n,2.298988100000315,correct,n
8,4F4K,9,1,55.53335563444008,46.20047542926037,1.586668422181314,49.43596368161539,2,n,1.42067440000028,correct,n
9,4F4K,10,2,45.37940132660081,56.47264170714624,1.2846559534481294,58.43851424566895,2,v,0.9578773000002911,incorrect,b
10,4F4K,11,2,49.40644139038382,26.423215686591234,1.3968656230297456,32.067813998692806,1,b,2.239773399999649,incorrect,v
11,4F4K,12,1,55.50453354314297,34.44951255483372,1.5857177555603432,38.89903853285765,2,n,1.8135996999999406,correct,n
12,4F4K,13,1,40.0576143944509,53.49180045215575,1.1500753865682043,55.89040038415806,1,c,1.2566353999991406,correct,c
13,4F4K,14,1,29.75194951161305,47.80216874824718,0.928232737466579,50.87244214293829,1,c,1.2067669999996724,correct,c
14,4F4K,15,1,77.38410928562016,55.457022646414,2.4992986051843653,57.57815668100534,2,n,5.0,correct,n
15,4F4K,16,1,62.23182828660908,56.73116674256368,1.8238092511782704,58.6561182328187,2,n,0.5512876000002507,correct,n
16,4F4K,17,1,68.26554897781156,55.910611136322295,2.0676134171149334,57.963465370521,2,n,0.6679611999998087,correct,n
17,4F4K,18,1,43.06600491166777,28.615690482964204,1.224319544657671,33.880863777052376,2,c,0.5405451999995421,incorrect,n
18,4F4K,19,1,51.178228145421855,38.32557674771672,1.4492905426893672,42.34292256150403,2,n,0.9336659999999029,correct,n
19,4F4K,20,1,52.91056349556455,63.01661996909325,1.502449921422501,63.741437569952815,1,c,0.8971990999998525,correct,c
20,4F4K,21,2,51.33439895971474,62.20824431573631,1.4540047363671995,63.11192950415019,2,b,1.9970805000002656,correct,b
21,4F4K,22,1,42.300920334662464,49.94446726641712,1.2049953757602805,52.78040549588562,1,c,1.0007911000002423,correct,c
22,4F4K,23,2,51.31154775782515,56.32761332547038,1.4533139903254368,58.316188162348695,2,b,0.8243853000003583,correct,b
23,4F4K,24,2,54.86010207649372,44.85433839472645,1.5646099689710682,48.22425072483632,1,v,0.8622040000000197,correct,v
24,4F4K,25,2,40.82616880078478,54.57265957898664,1.1686031344484895,56.82221738105388,2,b,1.449372900000526,correct,b
25,4F4K,26,1,48.59479676179617,40.922605164750806,1.3734876163690497,44.67745634259234,2,c,1.001749899999595,incorrect,n
26,4F4K,27,2,55.13702942219818,43.96053534057071,1.5736458333422716,47.41830024316896,1,b,1.6437000000005355,incorrect,v
27,4F4K,28,2,74.59186648794639,63.0906807614509,2.358314285254702,63.79871061907665,1,b,1.9980786999994962,incorrect,v
28,4F4K,29,2,43.45345184086332,54.80292557706477,1.2342234023915974,57.01962656034512,2,v,1.4312847999999576,incorrect,b
29,4F4K,30,1,37.12157497620508,53.36850600317111,1.081960064113559,55.783585849903695,1,c,2.518883900000219,correct,c
30,4F4K,31,2,63.89719884017769,50.38372539045339,1.888074857604968,53.16921854048739,1,b,0.8243984000000637,incorrect,v
31,4F4K,32,1,53.590944175403926,71.56177278412446,1.5238578447669673,69.84816730057642,1,c,0.9168104999998832,correct,c
32,4F4K,33,1,60.93607824572572,42.40574815265804,1.775324005097102,46.015237780439,2,n,0.6181188000000475,correct,n
33,4F4K,34,2,43.01692448639788,58.6178054577069,1.223070643080575,60.22565952624032,2,v,0.5890779999999722,incorrect,b
34,4F4K,35,2,79.34091894056785,64.81318526378197,2.603094286085494,65.11108489964404,1,v,1.0307726000000912,correct,v
35,4F4K,36,1,45.22149240551218,58.937463130323735,1.2804445448336033,60.48820125025959,1,n,1.7337760999998864,incorrect,c
36,4F4K,37,1,68.68558871491975,61.36289707155959,2.085752047217621,62.44528333932112,2,c,1.8502216999995653,incorrect,n
37,4F4K,38,1,45.9835208586062,31.877581302456644,1.300895995674063,36.65658793841813,2,c,1.0611509000000297,incorrect,n
38,4F4K,39,2,50.90314007599422,33.4006862905744,1.4410238389229808,37.97962967950264,1,b,0.799968300000728,incorrect,v
39,4F4K,40,2,66.71745138587877,55.146634254073774,2.002113192706334,57.3135357624821,1,v,1.2977137999996557,correct,v
40,4F4K,41,2,36.60451432818952,47.45040496691045,1.070389174156254,50.55757707347765,2,v,2.6147679000005155,incorrect,b
41,4F4K,42,2,57.28743681058341,40.07921383677075,1.645610728172508,43.917826294996686,1,b,1.1707648999999947,incorrect,v
42,4F4K,43,2,41.3074960153264,56.36766350031386,1.1803583176530317,58.349987081209605,2,b,0.5890668000001824,correct,b
43,4F4K,44,1,38.09092248602476,60.55587670123063,1.1039904364963742,61.80120151093895,1,c,0.7213737000001856,correct,c
44,4F4K,45,2,63.53932777287883,48.07460551267194,1.8740764844428304,51.1160293842835,1,v,1.1179560000000492,correct,v
45,4F4K,46,2,55.76261364315505,74.80021779285516,1.5942505835737324,71.8633424651022,2,v,0.7879720999999336,incorrect,b
46,4F4K,47,1,72.56741960771336,58.12747153578269,2.261096535890205,59.82097471282552,2,n,1.0205501000000368,correct,n
47,4F4K,48,1,55.56404655485815,43.32924255592651,1.5876813567625332,46.84868375476201,2,c,1.8561142999997173,incorrect,n
48,4F4K,49,1,51.08415110746728,66.05842176151702,1.446458100346433,66.03534635863915,1,c,0.5820678000000044,correct,c
49,4F4K,50,2,50.24749248896019,35.31428901041415,1.4215105188532409,39.66163290216654,1,b,1.4932152000001224,incorrect,v
50,4F4K,51,1,65.58042744346875,77.23940584852173,1.955330965472242,73.2592372776996,1,n,0.7151550999997198,incorrect,c
51,4F4K,52,1,50.93376494747895,39.575645067904375,1.4419418130661734,43.46485837846828,2,n,1.8612382999999681,correct,n
52,4F4K,53,1,30.85649772546112,49.84156119613138,0.9497995197032651,52.68918725122877,1,n,0.6734222000004593,incorrect,c
53,4F4K,54,2,24.979387192059328,38.31262026068312,0.8405360579731783,42.33131605557045,2,b,1.0489653000004182,correct,b
54,4F4K,55,1,47.14618420977396,65.24112203746364,1.3327309184808256,65.43109750578897,1,c,4.091888600000857,correct,c
55,4F4K,56,2,57.648166408406574,48.21647475164942,1.6580011324808368,51.242776639142456,1,v,2.3112842999998975,correct,v
56,4F4K,57,2,28.486996922921776,48.59035945719801,0.90413487422459,51.57646804040257,2,b,1.7468910999996297,correct,b
57,4F4K,58,1,33.44407607239344,23.800935066860067,1.0023054840711143,29.96491436569032,2,n,1.3891415999996752,correct,n
58,4F4K,59,1,50.33404671381423,34.875217983969506,1.424071320584397,39.27396054339868,2,n,0.8127268999996886,correct,n
59,4F4K,60,1,54.04649838159982,63.25346926868197,1.5383619147917351,63.92435912822597,1,c,0.49810119999983726,correct,c
60,4F4K,61,1,28.55003477762856,36.95547072921549,0.9053208232899768,41.1185901855178,1,n,0.4798467000000528,incorrect,c
61,4F4K,62,2,37.1444696078754,51.38516878209979,1.08247528681614,54.05205482656009,2,b,1.7482504999998127,correct,b
62,4F4K,63,1,58.36743982261441,39.01163340775496,1.6829860222681177,42.9581686561902,2,n,2.020004599999993,correct,n
63,4F4K,64,1,57.26670482898072,47.545117221757536,1.6449014427573534,50.64239190699329,2,c,1.766447099999823,incorrect,n
64,4F4K,65,2,51.98637123099745,33.24950765546846,1.4738514652260497,37.84764081957128,1,b,1.6679686999996193,incorrect,v
65,4F4K,66,2,49.43613916182425,62.73331536148999,1.3977285207298176,63.52172590776832,2,v,0.9775095000004512,incorrect,b
66,4F4K,67,1,55.9721986246217,37.09536747616749,1.6012138044781914,41.243300682924776,2,n,0.7515671000001021,correct,n
67,4F4K,68,1,44.448368636049,58.489998216924974,1.2600238652480231,60.12040401198687,1,c,2.384117399999923,correct,c
68,4F4K,69,1,61.197644307228,49.56566744697768,1.7850065018072545,52.44439431572864,2,n,0.6376188000003822,correct,n
69,4F4K,70,1,62.25401774723039,74.88655606003837,1.824650981699292,71.91458006274888,1,c,0.914287399999921,correct,c
70,4F4K,71,1,43.82143522213897,34.5889577047151,1.2437039051395269,39.02174293649633,2,n,0.6681123999996998,correct,n
71,4F4K,72,1,47.21805520596169,34.58259000182173,1.334724194417175,39.01613741614575,2,n,3.0053595999997924,correct,n
72,4F4K,73,2,58.004736841210615,37.031319671999206,1.6703403590186183,41.18619628331286,1,v,2.8891791999994894,correct,v
73,4F4K,74,1,33.95774826060358,49.21663561928149,1.0130690060094207,52.13423539266201,1,n,1.7590255999994042,incorrect,c
74,4F4K,75,1,53.62598994542641,71.39196623658688,1.5249687705202344,69.73761431014947,1,c,1.6436846999995396,correct,c
75,4F4K,76,2,34.146281259014565,48.68412502065956,1.0170484711842829,51.660073320531055,2,b,1.8015124999992622,correct,b
76,4F4K,77,2,32.426032391577216,41.24641503449049,0.981310071210868,44.96936678785069,2,b,1.1656124000001,correct,b
77,4F4K,78,2,64.99387735333302,54.93066142193415,1.9316267135491272,57.128961583149874,1,v,1.6619624000004478,correct,v
78,4F4K,79,1,52.29818115559745,38.4773997787113,1.4834388264444538,42.478963127175966,2,n,0.8489252999997916,correct,n
79,4F4K,80,2,43.06635064634381,60.550644637514175,1.2243283467516144,61.79700205009629,2,v,1.1340620000000854,incorrect,b
80,4F4K,81,1,34.17553325316612,52.600897602420616,1.0176673077076863,55.11631599649757,1,c,4.30304200000046,correct,c
81,4F4K,82,1,54.4337296064116,65.03506833467065,1.5507991916407735,65.27731720387504,1,n,1.8320083999997223,incorrect,c
82,4F4K,83,2,46.58024939982638,41.56394012257369,1.31713888881464,45.25571868505352,1,b,2.628805399999692,incorrect,v
83,4F4K,84,1,62.44172951337693,49.46995939552554,1.83178716333613,52.35939717624024,2,c,1.4496187000004284,incorrect,n
84,4F4K,85,2,52.47182502124909,34.3317149991247,1.4888049432165926,38.79546508087898,1,b,3.6296346999997695,incorrect,v
85,4F4K,86,1,37.54461134747041,49.85938390054292,1.0915198299558806,52.70498914604551,1,n,2.943836899999951,incorrect,c
86,4F4K,87,2,49.61277162082295,65.7006099191069,1.4028717735987075,65.77193961126817,2,v,1.0489494000003106,incorrect,b
87,4F4K,88,1,39.82802891678132,26.57420727144075,1.1445979019215058,32.19115651797915,2,n,2.0189864999993006,correct,n
88,4F4K,89,2,53.29889127290253,60.99027471735091,1.5146313951449792,62.148805523172285,2,b,0.6969595999999001,correct,b
89,4F4K,90,2,46.621395880531495,56.96969485806623,1.3182663375193913,58.85636890660211,2,b,1.4516144000008353,correct,b
90,4F4K,91,2,54.513066541600615,40.72620205257749,1.5533597577467049,44.50046448662194,1,v,0.7093355999995765,correct,v
91,4F4K,92,1,46.28225254627514,64.84304692425457,1.3090022493675189,65.13349527495092,1,c,1.170346800000516,correct,c
92,4F4K,93,2,56.46527888015749,40.81308518012532,1.6177160116627969,44.57875431093567,1,v,0.6180813000000853,correct,v
93,4F4K,94,1,24.32054175748976,43.14452951406017,0.8290989816725223,46.68198635122858,1,n,1.0792945000002874,incorrect,c
94,4F4K,95,2,55.27612779410998,43.27376249838967,1.5782041448605328,46.79861575698384,1,v,4.16362830000071,correct,v
95,4F4K,96,2,58.576245040817085,35.60908548869473,1.690309405533153,39.92245115785853,1,b,2.567536399999881,incorrect,v
96,4F4K,97,2,48.39817763789955,32.42666526524319,1.3678834670384974,37.13178054653467,1,v,0.5102440999999089,correct,v
97,4F4K,98,1,58.19267582296609,49.13377855854709,1.6768809571427885,52.06053158515127,2,c,1.3281134999997448,incorrect,n
98,4F4K,99,1,32.03206423019717,48.67956446800305,0.9733036880840428,51.65600770721272,1,c,2.8481310999995912,correct,c
99,4F4K,100,1,67.33689425521226,48.93613687866785,2.028069127040634,51.88461126549692,2,n,2.1670278000001417,correct,n
100,4F4K,101,2,68.51563538857435,46.97803572254124,2.0783938423786723,50.134181096676905,1,b,2.8588686999992206,incorrect,v
101,4F4K,102,1,59.92164003196973,40.62067865515298,1.738266399985832,44.40539218168037,2,n,2.287005700000009,correct,n
102,4F4K,103,2,64.78839703208932,48.79043390356996,1.923390783507701,51.75482248213255,1,b,2.3610783999993146,incorrect,v
103,4F4K,104,2,66.45639574080283,51.75144227274596,1.9912741686156603,54.373602648336586,1,v,0.5318163000001732,correct,v
104,4F4K,105,1,39.448175990854914,49.90276142819145,1.135592542326004,52.743442326904734,1,c,0.7455334999995102,correct,c
105,4F4K,106,2,56.77468944474212,44.25411477563284,1.6281579714185666,47.6831096865188,1,v,2.2263348999995287,correct,v
106,4F4K,107,1,29.36713712504724,41.42522298542481,0.9208347056012648,45.13060848407182,1,c,1.183859400000074,correct,c
107,4F4K,108,1,76.89296669653936,58.548394598075504,2.473903114088975,60.16851631184993,2,c,1.7832644999998593,incorrect,n
108,4F4K,109,2,54.863735888893096,45.98689069039354,1.5647282000682106,49.2439298696392,1,v,2.282307899999978,correct,v
109,4F4K,110,1,44.13448581470755,53.33324921421261,1.251826458536487,55.75302267400984,1,n,1.393798400000378,incorrect,c
110,4F4K,111,2,58.10155510697302,45.25950959585871,1.6737066080467604,48.58928256676587,1,b,2.057694199999787,incorrect,v
111,4F4K,112,2,45.81532453478225,63.3942805319327,1.2963540019337496,64.03277705512268,2,v,3.41761200000019,incorrect,b
112,4F4K,113,1,51.17046613456228,37.57481905935784,1.4490566366843418,41.67125091811237,2,c,3.746060999999827,incorrect,n
113,4F4K,114,1,30.990375801487847,52.82190434457798,0.9524473660758564,55.30882489610418,1,c,2.2471534000005704,correct,c
114,4F4K,115,2,38.63194605694752,51.29486696600667,1.116480753726183,53.9726650566643,2,b,0.8014921000003596,correct,b
115,4F4K,116,1,43.93741571187003,54.39483877692264,1.2467070235840578,56.66949765296996,1,n,2.01998790000016,incorrect,c
116,4F4K,117,2,56.61338553927325,40.30300091011146,1.6227059195095892,44.11927851736584,1,b,2.2084898000002795,incorrect,v
117,4F4K,118,1,45.96495185111819,55.717919767723366,1.3003937755173025,57.79998590806765,1,c,1.7528544999995574,correct,c
118,4F4K,119,2,58.51889749573455,74.23265430811608,1.6882948983000483,71.52324428618277,2,v,0.9653599999992366,incorrect,b
119,4F4K,120,2,27.380396239644107,40.68066806537366,0.8835672725568635,44.4594382669152,2,v,4.163682399999743,incorrect,b
120,4F4K,121,2,42.05536407436056,28.85051700222708,1.1988581120955586,34.077733179862925,1,b,2.277007099999537,incorrect,v
121,4F4K,122,1,56.805814167331775,45.32811001392376,1.6292120895770246,48.651062639215056,2,n,2.628173300000526,correct,n
122,4F4K,123,1,48.47797716702317,33.097061304162395,1.370155196056498,37.7146883311402,2,c,2.0881071999992855,incorrect,n
123,4F4K,124,1,71.97168988078542,52.402766800959824,2.233259186426393,54.94347269325405,2,c,1.8984181000005265,incorrect,n
124,4F4K,125,2,61.76251341022255,41.88674898686459,1.8060970308288036,45.546922683750445,1,b,3.4657677000004696,incorrect,v
125,4F4K,126,2,22.49712051696985,34.95119221497474,0.7982505879424325,39.34097138129029,2,b,2.555387399999745,correct,b
126,4F4K,127,1,27.15198846411706,36.11283849607872,0.8793806263194905,40.36907672361287,1,c,1.9182012000001123,correct,c
127,4F4K,128,1,36.5045413888081,51.03910972140586,1.0681662761285602,53.74757383984765,1,c,0.824418400000468,correct,c
128,4F4K,129,1,38.03795441247323,44.98648465012543,1.1027751265501506,48.34333115840008,1,c,2.214137099999789,correct,c
129,4F4K,130,2,56.85952353698279,51.9432212379773,1.6310326996440083,54.5416584121409,1,v,1.9289439000003767,correct,v
130,4F4K,131,2,64.84106985319971,49.46899559443238,1.925498628590655,52.35854103569625,1,v,0.9895814000001337,correct,v
131,4F4K,132,2,41.15916391091789,54.83408478694516,1.1767231359427694,57.046308707804585,2,b,1.0250385999997889,correct,b
132,4F4K,133,2,54.080238905268544,49.394496047822976,1.5394416304921856,52.29235138848349,1,v,0.5651232999998683,correct,v
133,4F4K,134,1,43.44482079573198,53.6709549213898,1.2340019068913937,56.04542325050245,1,c,1.2073468999997203,correct,c
134,4F4K,135,2,51.69218844035338,67.7627668538627,1.4648629076174653,67.2650837915451,2,v,1.1302143000002616,incorrect,b
135,4F4K,136,1,43.52501616149617,53.89244392224517,1.2360614647053376,56.23677009370069,1,c,1.7893586000000141,correct,c
136,4F4K,137,2,36.83557651383869,50.30667299525974,1.0755445587379169,53.101081403599686,2,b,1.6847317000001567,correct,b
137,4F4K,138,1,51.28127896666891,66.75604421286653,1.4523995306129331,66.54374550039759,1,n,2.5020911000001433,incorrect,c
138,4F4K,139,1,46.704991659984806,62.97290847469059,1.3205599062385702,63.70760248645074,1,c,2.98541860000023,correct,c
139,4F4K,140,2,38.11797776800666,49.09865623584257,1.1046117149099246,52.0292807816243,2,v,2.7669285000001764,incorrect,b
140,4F4K,141,2,60.48894731716854,46.63588818032864,1.7588938516385066,49.82712833136866,1,v,0.793238699999165,correct,v
141,4F4K,142,2,36.96760812269342,51.74336495770967,1.0785015453424258,54.36651984089747,2,b,0.5162862000006498,correct,b
142,4F4K,143,2,52.226242971795806,45.68239035048467,1.4812213907515468,48.96999464739219,1,v,1.7534531000001152,correct,v
143,4F4K,144,2,48.14908082104338,62.659018172704926,1.3608163921190524,63.46394306051859,2,b,2.786024900000484,correct,b
144,4F4K,145,2,68.84728879577371,49.48986425945882,2.092777106355916,52.3770776935895,1,v,1.5285275999995065,correct,v
145,4F4K,146,2,65.57971647214782,49.8270438356104,1.9553020576173532,52.676314864718286,1,v,1.7482657000000472,correct,v
146,4F4K,147,2,54.627244624436415,42.515243176127846,1.5570522294815576,46.11405301029586,1,b,0.9275784999999814,incorrect,v
147,4F4K,148,2,38.194990100430445,27.297517415744156,1.1063820864895502,32.785213587498305,1,v,3.227904999999737,correct,v
148,4F4K,149,1,37.467028157948654,58.29153532538957,1.0897603039106214,59.95664185452295,1,c,1.2249306999992768,correct,c
149,4F4K,150,2,56.48213842421707,35.35044253710126,1.6182832570279864,39.69359688160495,1,v,0.7832437000006394,correct,v
150,4F4K,151,1,46.58488832960148,41.69668477548449,1.3172659512085925,45.375457472065946,2,c,0.9389132000005702,incorrect,n
151,4F4K,152,2,39.91483604281507,28.836868512571986,1.1466658854320966,34.06627733568169,1,b,3.7813662999997177,incorrect,v
152,4F4K,153,1,34.04511164061035,54.83019113388872,1.0149110912263224,57.04297491414036,1,c,5.0,incorrect,c
153,4F4K,154,2,57.295859660297324,39.03655972606293,1.6458989792311942,42.98054568338476,1,v,1.9764548000002833,correct,v
154,4F4K,155,1,53.326342727390745,36.43733640058798,1.5154962495305042,40.65736799450999,2,n,1.1095905000001949,correct,n
155,4F4K,156,2,55.85432521779418,71.84720798879384,1.5972938616358932,70.03292850078893,2,b,2.330840300000091,correct,b
156,4F4K,157,1,29.754471354113143,42.17785938350055,0.9282814154909624,45.80958886254857,1,c,0.9933565999999701,correct,c
157,4F4K,158,2,46.84526355373287,63.07895195599741,1.3244174337148502,63.78964497977033,2,b,3.090615699999944,correct,b
158,4F4K,159,2,52.00406842113848,47.22444337252845,1.474393946390442,50.35512121933555,1,v,0.7276003000006313,correct,v
159,4F4K,160,1,32.55527483101457,49.01303455604396,0.9839509096752328,51.95307626696541,1,c,1.2271756000000096,correct,c
160,4F4K,161,2,49.77266558195104,62.21420581851013,1.4075439469471238,63.11660085154048,2,v,3.071054300000469,incorrect,b
161,4F4K,162,2,49.83643195593336,39.645643169144,1.4094115663054054,43.52779220210096,1,v,1.3902644999998302,correct,v
162,4F4K,163,2,64.17076221330571,52.62536075843701,1.8988459492774517,55.137639936135045,1,v,0.8001322000000073,correct,v
163,4F4K,164,1,52.593624332526936,35.540638183037856,1.492580486428171,39.861856127399925,2,c,1.1763855999997759,incorrect,n
164,4F4K,165,1,47.06615209306347,55.26620008311071,1.3305148041538144,57.4155618371615,1,n,1.8575055999999677,incorrect,c
165,4F4K,166,2,52.23603146761041,36.838564601691616,1.4815229181985727,41.01443203958784,1,b,3.156224700000166,incorrect,v
166,4F4K,167,2,44.31041448590442,53.85516472353919,1.2564144447481362,56.20458828331055,2,v,0.8248398999994606,incorrect,b
167,4F4K,168,2,53.85816851795378,33.293052063471514,1.5323491486798952,37.885643541418425,1,b,1.953222299999652,incorrect,v
168,4F4K,169,1,56.41619172517344,43.46272126399846,1.6160655888049644,46.96913756444546,2,n,1.4372959000002083,correct,n
169,4F4K,170,1,41.92235070809265,55.34197051023023,1.1955467298959064,57.48015855898439,1,c,1.5951641999999993,correct,c
170,4F4K,171,1,54.045938971397966,35.84055815834984,1.5383440197345082,40.12753099968548,2,n,1.5830292000000554,correct,n
171,4F4K,172,2,51.09200659241519,58.55831629741862,1.446694398890634,60.17668737404641,2,b,2.7313905999999406,correct,b
172,4F4K,173,2,30.4061320683783,49.04342990747281,0.9409460825126504,51.98013193633423,2,v,2.2034246000002895,incorrect,b
173,4F4K,174,2,34.77986739573785,49.74293694011628,1.0305367986370508,52.60171952181969,2,b,2.052725200000168,correct,b
174,4F4K,175,2,46.12584222468488,64.9622131711972,1.304751686479795,65.22280766870743,2,v,0.8304644999998345,incorrect,b
175,4F4K,176,1,33.54557778556894,49.33249037298614,1.004423253142008,52.23724405749827,1,c,0.9397500999994008,correct,c
176,4F4K,177,1,58.05314806884952,42.75743413908799,1.672022709214925,46.33262971390183,2,n,0.5830973000001904,correct,n
177,4F4K,178,1,65.4777614996488,81.50053936049304,1.9511610245960591,75.43167474638827,1,c,1.3416785999997956,correct,c
178,4F4K,179,1,50.64113228008672,55.851444616804805,1.433194059112466,57.91330108671319,1,n,2.7192979000001287,incorrect,c
179,4F4K,180,2,50.07033245785058,62.05416952841468,1.416283394528788,62.99105174489319,2,b,4.158430700000281,correct,b
180,4F4K,181,2,50.381096593434734,64.66372897933806,1.425465277790529,64.99874356046284,2,b,2.2398454000003767,correct,b
181,4F4K,182,1,32.46544466419219,45.64216306629927,0.9821146386010394,48.93379213164299,1,c,1.7953856000003725,correct,c
182,4F4K,183,2,46.75527452804085,57.15688983732718,1.3219414095618174,59.01316798755151,2,b,1.7711472000000867,correct,b
183,4F4K,184,1,42.8824386978992,34.83429312542718,1.2196550389574787,39.23787630090838,2,c,3.3200144000002183,incorrect,n
184,4F4K,185,1,60.16571955479477,44.22736419960099,1.7471113827688294,47.65898359819967,2,n,1.5648099000000002,correct,n
185,4F4K,186,2,49.32845087482083,59.259570969708285,1.3946020681841795,60.7517109445535,2,v,3.5213810999994166,incorrect,b
186,4F4K,187,1,58.86900904659353,44.27207698313127,1.7006311531696638,47.69930926428846,2,n,1.426596100000097,correct,n
187,4F4K,188,1,50.19598110782734,72.95693328243885,1.4199886844013552,70.73831057121936,1,c,2.646463600000061,correct,c
188,4F4K,189,2,54.23821886524688,36.23033970826418,1.5445071674460793,40.47341543665122,1,v,2.136674899999889,correct,v
189,4F4K,190,2,60.932241228468,48.116030662713165,1.7751823602539007,51.15304612271741,1,b,2.901335800000197,incorrect,v
190,4F4K,191,1,29.07263611522741,41.402150842350494,0.915212767530016,45.10980121242494,1,c,2.0395359000003737,correct,c
191,4F4K,192,1,54.31680946824226,38.63807082540176,1.5470333351876169,42.623003423062165,2,c,1.376675299999988,incorrect,n
192,4F4K,193,2,32.316732652804895,43.747718790737046,0.9790822586319962,47.22629940977532,2,b,2.433177799999612,correct,b
193,4F4K,194,1,50.102394866870135,66.76955010782605,1.417227972500616,66.55351986444023,1,n,0.8062347999994017,incorrect,c
194,4F4K,195,1,61.56226690935858,47.48662347574542,1.7985920628942729,50.59001394653698,2,n,1.49945469999966,correct,n
195,4F4K,196,2,53.88923687342795,63.45093235762155,1.5333394400807436,64.07632591130422,2,v,2.3308680999998614,incorrect,b
196,4F4K,197,1,47.777940362467945,33.88482553883818,1.3503545115113678,38.40324102954582,2,n,3.5093815000000177,correct,n
197,4F4K,198,2,50.33992160862679,60.75649200835489,1.4242453028889797,61.96199475476935,2,b,1.6922821000007389,correct,b
198,4F4K,199,1,65.43833906891143,45.09880226485883,1.9495621837717243,48.44452448563885,2,n,0.8799228999996558,correct,n
199,4F4K,200,2,46.30653417055305,61.83404745978655,1.309663360530613,62.817869139054544,2,v,3.5881077000003643,incorrect,b
200,4F4K,201,2,44.48839966725802,52.047407144590814,1.2610731733714935,54.63286640423094,2,b,2.221388800000568,correct,b
201,4F4K,202,1,40.53511708485767,46.28043537117911,1.161551815488166,49.50783036085343,1,c,1.1035663000002387,correct,c
202,4F4K,203,2,52.31062525077469,37.97826791411589,1.4838227421451673,42.031976704623794,1,b,2.6950247999993735,incorrect,v
203,4F4K,204,2,71.14497584245001,54.728274110896734,2.19519526578545,56.95567115278416,1,v,1.6558526999997412,correct,v
204,4F4K,205,1,44.49281497016427,59.14515984152902,1.2611889624088328,60.65823485866204,1,c,2.2955323999995016,correct,c
205,4F4K,206,1,78.88670515070655,65.26365456836652,2.578623520063841,65.4478789731559,2,n,0.6655981999992946,correct,n
206,4F4K,207,2,63.95375979970543,50.00403885692743,1.8902968272234972,52.833188913813245,1,v,0.7276460000002771,correct,v
207,4F4K,208,2,74.5460082956221,58.57501615303337,2.3560664821077157,60.19043842142253,1,v,0.636430599999585,correct,v
208,4F4K,209,2,40.60063049235092,26.187003571100764,1.1631352909888468,31.875328424161918,1,b,2.7435594999997193,incorrect,v
209,4F4K,210,2,30.44356494941863,54.86576070080686,0.9416787952572452,57.07342569970086,2,v,0.794034699999429,incorrect,b
210,4F4K,211,2,53.91661327341259,72.92799127226861,1.534212582288452,70.72017814882385,2,v,2.0446261000006416,incorrect,b
211,4F4K,212,2,44.63331829091641,53.066157927143024,1.2648791467018707,55.52121859217088,2,b,1.1218961000004128,correct,b
212,4F4K,213,2,43.11322645897961,34.7226236800879,1.225522348912654,39.13945949907223,1,b,0.9155718000001798,incorrect,v
213,4F4K,214,1,37.8238547491722,54.09553620409309,1.0978763992467933,56.41191893260678,1,c,0.6143129000001863,correct,c
214,4F4K,215,1,45.93857570320549,33.444071393985226,1.2996807355515605,38.01753352279006,2,c,0.9700687000004109,incorrect,n
215,4F4K,216,2,73.56744158201626,50.76605218289113,2.3086080354399687,53.50687520874109,1,v,3.908766800000194,correct,v
216,4F4K,217,2,51.27327041702903,59.88299482384613,1.4521576781436811,61.25867096858424,2,b,2.5117676999998366,correct,b
217,4F4K,218,1,31.015077949181205,45.62575861384639,0.9529367322659478,48.91902811083774,1,c,1.2552940000005037,correct,c
218,4F4K,219,2,49.7217479663193,60.96497682702876,1.406054425222032,62.12862012444794,2,v,2.6838631000000532,incorrect,b
219,4F4K,220,1,38.672529777740536,63.77385361205326,1.1174233659878468,64.32378253757149,1,c,1.941065200000594,correct,c
220,4F4K,221,2,38.941924277588,53.14096049923533,1.1237006270989451,55.586186202298805,2,b,2.955994500000088,correct,b
221,4F4K,222,2,47.74788344867752,28.989826769593385,1.3495107821011227,34.19475704691497,1,v,1.800710500000605,correct,v
222,4F4K,223,2,48.59155854528902,36.18860073941118,1.373395133195468,40.43634522470956,1,v,1.6619464000004882,correct,v
223,4F4K,224,2,44.95290312618661,29.556816997103077,1.2733129949074933,34.672788541074226,1,b,0.6265187999997579,incorrect,v
224,4F4K,225,1,54.68945992656332,70.18649056350093,1.5590679395787692,68.93929922449196,1,n,1.6133468999996694,incorrect,c
225,4F4K,226,1,64.78909335369892,40.92571017782429,1.923418633640084,44.68025487931192,2,c,2.9122557999999117,incorrect,n
226,4F4K,227,2,55.5357675721698,50.39077825896082,1.586748003270076,53.17545392469233,1,v,1.5768521999998484,correct,v
227,4F4K,228,2,60.09328741555072,41.40870068293457,1.7444818923154886,45.1157080384667,1,v,2.47654539999985,correct,v
228,4F4K,229,1,47.54174260247613,64.34360636748431,1.3437383791129414,64.75712379545239,1,c,0.6362371000004714,correct,c
229,4F4K,230,2,35.30352448637971,57.42528374404584,1.041819780800625,59.23742651396001,2,b,1.0552819999993517,correct,b
230,4F4K,231,2,47.62494695393697,39.20992113980336,1.3460653086707366,43.13621909648326,1,v,2.2032886999995753,correct,v
231,4F4K,232,2,50.31595442619592,32.975803511520176,1.4235356593139648,37.60904033758354,1,v,1.1520089999994525,correct,v
232,4F4K,233,1,42.25521558942174,53.09626615706173,1.203850688030765,55.54737265404775,1,n,1.250566599999729,incorrect,c
233,4F4K,234,1,58.042399433269296,48.09823627116465,1.671649034516825,51.13714610347986,2,n,1.5949880000007397,correct,n
234,4F4K,235,1,41.077224993347656,55.24053056874862,1.1747198576177018,57.39366742918145,1,c,1.9533615000000282,correct,c
235,4F4K,236,2,54.72581062519684,40.71157111143175,1.5602468713421247,44.48728166034755,1,v,3.8600817999995343,correct,v
236,4F4K,237,2,65.91570374609681,52.4110575651348,1.9690109200452408,54.95071017603838,1,b,1.5830264999995052,incorrect,v
237,4F4K,238,1,53.48239127877168,59.33218609897771,1.5204219289506349,60.81096907459906,1,n,2.2143095000001267,incorrect,c
238,4F4K,239,2,44.3939489280962,59.89308490888339,1.258598795938635,61.2668424327245,2,b,2.6049808999996458,correct,b
239,4F4K,240,1,50.00576581860408,40.96016431947982,1.4143831322575495,44.71130907939475,2,n,2.2701594999998633,correct,n
240,4F4K,241,2,32.958612923398995,50.0725908460438,0.9922381877802098,52.89390907839521,2,b,3.6839977999998155,correct,b
241,4F4K,242,2,47.34357503279783,40.32237300466889,1.3382125237663438,44.136721224511184,1,b,2.0564352999999755,incorrect,v
242,4F4K,243,2,49.02863263902108,65.06046897889166,1.3859344064490269,65.29630495029089,2,v,0.7505528000001505,incorrect,b
243,4F4K,244,2,56.00698489223218,36.71083234961152,1.6023724776735633,40.90068937164928,1,b,1.6341209000001982,incorrect,v
244,4F4K,245,1,58.83877234837813,39.81034183912409,1.6995622098279657,43.675909360041686,2,n,2.9195122000000993,correct,n
245,4F4K,246,1,46.6276407130132,26.93587613601299,1.3184375355914193,32.48754163663851,2,c,2.6525344000001496,incorrect,n
246,4F4K,247,1,64.83651863417904,54.09261484014495,1.9253164081407628,56.40940161167867,2,n,0.6544929000001503,correct,n
247,4F4K,248,1,61.009911496472064,42.36838435301969,1.778051787756689,45.9815190910068,2,n,0.8977741999997306,correct,n
248,4F4K,249,2,54.70942433285499,40.47613509071695,1.5597153181317582,44.27519079287895,1,v,3.241247399999338,correct,v
249,4F4K,250,1,52.197636070539325,43.28994753151782,1.4803405278061252,46.813222037313615,2,c,3.15014550000069,incorrect,n
250,4F4K,251,1,49.32743820885692,62.74617816574453,1.394572701246508,63.53172279154277,1,n,1.3889525000004141,incorrect,c
251,4F4K,252,2,35.821558295210686,53.73350144674313,1.0531031467762977,56.09949267557996,2,v,3.5142383000002155,incorrect,b
252,4F4K,253,2,73.43595866826507,56.41789304359427,2.3023046673438,58.39235704473215,1,b,1.0307928000001993,incorrect,v
253,4F4K,254,2,62.07938322921196,77.96283354177504,1.8180369191764807,73.65229069808117,2,v,0.7347662000001947,incorrect,b
254,4F4K,255,1,50.78214127260483,71.66630634635133,1.4374026372935378,69.91598788751102,1,n,2.482597100000021,incorrect,c
255,4F4K,256,1,47.17750907616262,59.39605347894779,1.33359931859073,60.86304351151345,1,c,1.5162563000003502,correct,c
256,4F4K,257,2,54.223471526611455,43.39352190506979,1.5440335979642177,46.9066914835031,1,v,1.1838055999996868,correct,v
257,4F4K,258,1,49.29936529925581,39.60936953390258,1.3937588434149868,43.49517804420092,2,n,1.6318511999998009,correct,n
258,4F4K,259,2,43.1024664843546,60.03646130168912,1.2252481721695327,61.382838433724736,2,v,2.2687860000005458,incorrect,b
259,4F4K,260,2,47.69658465177108,65.06094414265944,1.3480719880356489,65.29666006678421,2,b,1.006496099999822,correct,b
260,4F4K,261,1,43.2584681141888,31.326126622200725,1.2292292853340652,36.18148017501472,2,c,0.8972776999999041,incorrect,n
261,4F4K,262,1,46.88747825044505,64.97747437171333,1.325580557429111,65.23423185328816,1,c,1.5493007000004582,correct,c
262,4F4K,263,1,35.90519591124102,44.66878503391922,1.0549362924906618,48.05700571312227,1,n,0.5634047000003193,incorrect,c
263,4F4K,264,1,65.13829534286621,52.25194173441778,1.9374362768596112,54.811735452537455,2,c,0.7757478000003175,incorrect,n
264,4F4K,265,1,60.418827325467646,71.99467357732966,1.7563310699174617,70.12785311039296,1,n,1.923214200000075,incorrect,c
265,4F4K,266,2,62.96996243027222,52.14533412179557,1.852018966005622,54.71853649855409,1,b,3.7691470999998273,incorrect,v
266,4F4K,267,2,38.66993683381662,27.56033222840299,1.1173631175375358,33.00234593705707,1,b,1.2059018999998443,incorrect,v
267,4F4K,268,2,37.7952780358607,52.81381971483797,1.0972241953150168,55.30178821918128,2,v,0.89954729999954,incorrect,b
268,4F4K,269,2,40.12653510172764,57.71092402124355,1.1517248169715928,59.47536577700462,2,b,1.0620162999994136,correct,b
269,4F4K,270,2,48.31897922718481,39.18856958492198,1.3656325747386142,43.117042110126704,1,v,2.798174999999901,correct,v
270,4F4K,271,2,58.72118884039376,44.646522143579055,1.6954117199394043,48.03693666300493,1,v,0.9509256000001187,correct,v
271,4F4K,272,1,45.96540072493548,34.460840699584175,1.3004059135386927,38.9090027874431,2,c,0.6436985000000277,incorrect,n
272,4F4K,273,2,60.25626878705757,52.675335996693136,1.7504041498862617,55.18119043575365,1,v,2.197317799999837,correct,v
273,4F4K,274,1,44.02859762339372,66.77891221427447,1.249073115473136,66.56029379070793,1,c,0.5513323000004675,correct,c
274,4F4K,275,2,48.76949000408284,38.49240831480353,1.3784860810368336,42.49241508500409,1,v,2.5601662999997643,correct,v
275,4F4K,276,2,61.25897477705568,44.44709063963474,1.7872844286582712,47.8571326861785,1,v,0.9094113000001016,correct,v
276,4F4K,277,2,35.12035861113185,49.93401873818218,1.0378592165184692,52.77114589243081,2,b,0.6556953999997859,correct,b
277,4F4K,278,2,57.60879454700181,74.16969214040749,1.6566442578684657,71.48516686808937,2,v,0.9639512000003378,incorrect,b
278,4F4K,279,1,66.47777276251598,51.48882794920871,1.992159531892996,54.14313246500881,2,n,3.2945699000001696,correct,n
279,4F4K,280,1,62.725496004022496,47.01875915531938,1.842628049891689,50.17070704101947,2,c,2.5796854000000167,incorrect,n
280,4F4K,281,2,46.38376186413191,38.00869359628187,1.3117682448011132,42.05920193947083,1,v,3.6221740000000864,correct,v
281,4F4K,282,2,49.77002226778243,63.812221472802165,1.4074665817694263,64.3530957682066,2,b,0.7692162999992433,correct,b
282,4F4K,283,1,56.01535583395581,71.77452838034733,1.6026514250687287,69.98601123379474,1,n,1.0117487999996229,incorrect,c
283,4F4K,284,1,58.26973203693597,75.87388424571733,1.6795700426086948,72.49105031237292,1,c,0.7818717999998626,correct,c
284,4F4K,285,2,43.72238522076083,60.308112315525534,1.2411449008073572,61.60200605408251,2,b,2.3976007999990543,correct,b
285,4F4K,286,1,31.14458588495447,49.77505531682011,0.955506489412808,52.63020941422975,1,c,1.8075399999997899,correct,c
286,4F4K,287,2,45.85896286998671,30.766774825707145,1.297530891097452,35.70186202351728,1,v,1.9470252999999502,correct,v
287,4F4K,288,2,49.59113139746223,37.65247685294554,1.4022406292174898,41.74064305233291,1,b,5.0,correct,v
288,4F4K,289,1,73.94751607023424,54.87458784777131,2.326926243005563,57.08098103801513,2,c,2.310482000000775,incorrect,n
289,4F4K,290,2,49.03229307218376,35.69339713547852,1.386039903034196,39.99712077550859,1,v,2.426594300000943,correct,v
290,4F4K,291,1,53.150184230546415,29.85757656182223,1.5099549709350892,34.927470800841604,2,n,1.7108998999992764,correct,n
291,4F4K,292,2,63.88265730728868,49.14103886466359,1.88750402278725,52.06699096510273,1,b,2.1073637000008603,incorrect,v
292,4F4K,293,1,46.16005746263549,56.293156189123934,1.3056803291894894,58.28709829791456,1,c,0.5752914000004239,correct,c
293,4F4K,294,2,68.43141936196544,57.21320204418303,2.074757296322426,59.060274542770806,1,v,1.3645565999995597,correct,v
294,4F4K,295,2,30.788762228399417,47.75412563142747,0.9484626497477388,50.82946139928029,2,b,0.734711299999617,correct,b
295,4F4K,296,2,51.44359916826474,70.06028211770256,1.4573101756658573,68.85436941423502,2,v,1.3221873000002233,incorrect,b
296,4F4K,297,1,49.46881859939497,60.68563127696015,1.3986786696673357,61.90525084767231,1,c,1.0307436999992206,correct,c
297,4F4K,298,1,63.35367196672714,45.16169532073281,1.8668553652594704,48.501180423292745,2,n,0.9323357000012038,correct,n
298,4F4K,299,1,43.91103628875362,34.870846067887705,1.2460233366089093,39.2701053269852,2,c,0.9521574999998847,incorrect,n
299,4F4K,300,1,38.83655833662235,28.06655897957523,1.1212412682543649,33.42244889968274,2,n,1.0369193999995332,correct,n
300,4F4K,301,1,56.54981458380484,40.82035783776568,1.6205622479049688,44.58530811795493,2,c,1.437378999999055,incorrect,n
301,4F4K,302,2,69.76980057941957,50.129793633025535,2.133310580469426,52.94455984926418,1,b,1.3828749000003882,incorrect,v
302,4F4K,303,2,43.53025728133513,55.706514241161145,1.2361961854699897,57.79029987440137,2,b,0.6983495000004041,correct,b
303,4F4K,304,2,60.11409623277196,48.85774131577437,1.7452369055105124,51.81478862428138,1,v,1.2310704000010446,correct,v
304,4F4K,305,2,57.88059852877817,50.25480678990034,1.6660341301517865,53.05520017853538,1,v,1.3719633000000613,correct,v
305,4F4K,306,2,44.21175467035653,55.06604252915805,1.2538394608455905,57.244703128274864,2,b,1.3828472000004695,correct,b
306,4F4K,307,2,37.50917859770346,49.12153611031756,1.0907158907324055,52.04963918585311,2,b,0.5466028999999253,correct,b
307,4F4K,308,2,57.53723308840433,74.96284097969139,1.6541808741473114,71.95974141852253,2,v,1.1768109999993612,incorrect,b
308,4F4K,309,2,69.29452819835838,50.68878300005604,2.1123308898604143,53.438693094434576,1,v,1.104162499999802,correct,v
309,4F4K,310,1,35.40203462772946,49.61658760622998,1.043956095115373,52.48959968139624,1,c,0.7334346999996342,correct,c
310,4F4K,311,1,44.62950880863084,36.19698381422042,1.2647789520581212,40.44378999878314,2,c,0.9896304000012606,incorrect,n
311,4F4K,312,2,35.16459176637965,21.67489734056348,1.0388142812980818,28.31898165569374,1,b,1.5214227999986178,incorrect,v
312,4F4K,313,1,72.35652549445433,54.44961616539808,2.251202389222141,56.716567747113615,2,n,0.7650582999995095,correct,n
313,4F4K,314,1,65.11287346056154,54.539369562495246,1.936412354420503,56.79364448751781,2,c,1.813631400000304,incorrect,n
314,4F4K,315,2,39.06660746178284,55.626503849678585,1.1266178414823331,57.72232193250432,2,b,1.560140900000988,correct,b
315,4F4K,316,2,62.477834648081945,49.76785095412136,1.8331629583711035,52.62381934592795,1,v,2.0734738999999536,correct,v
316,4F4K,317,1,42.32319491116253,52.6864549510761,1.205553642989773,55.190877811597375,1,c,0.6909414000001561,correct,c
317,4F4K,318,1,42.73541412388762,58.30986761595162,1.2159318939870063,59.97178492199386,1,n,1.366947299999083,incorrect,c
318,4F4K,319,1,47.76645473302919,29.62483135429703,1.350032035469721,34.730316522097255,2,n,2.2762554999990243,correct,n
319,4F4K,320,1,43.841050817871015,28.306293206692168,1.2442113090294369,33.622238048004604,2,n,0.740820299999541,correct,n
320,4F4K,321,1,38.069934069381375,56.10927053640401,1.1035087139923614,58.13168504347382,1,c,2.2621718000009423,correct,c
321,4F4K,322,1,57.93050475649089,65.874589226855,1.6677639892188048,65.9002381142361,1,n,0.8197193000014522,incorrect,c
322,4F4K,323,2,51.6480924043095,38.72189375174713,1.463520315322058,42.698178305293446,1,v,1.8748434000008274,correct,v
323,4F4K,324,2,48.70779051466831,61.00807655726186,1.3767186108378224,62.16300543564574,2,v,1.0431423999998515,incorrect,b
324,4F4K,325,2,36.65381131617379,58.89444517911598,1.071486994882707,60.45292938617437,2,v,2.8660481000006257,incorrect,b
325,4F4K,326,1,48.634148672887136,61.976887823796254,1.3746120012465397,62.93031499924573,1,c,1.4569623000006686,correct,c
326,4F4K,327,1,31.225719298369192,43.571122419960666,0.9571199059718036,47.06695579013553,1,c,0.7030484999995679,correct,c
327,4F4K,328,1,34.155937596269155,45.0994218211862,1.0172527128745354,48.44508262888839,1,n,2.2859210000005987,incorrect,c
328,4F4K,329,2,55.75441803456167,39.51704278486791,1.59397890993276,43.41217834166967,1,v,1.31815590000042,correct,v
329,4F4K,330,1,44.20327267355021,55.75101553608465,1.2536183304439483,57.82808613419297,1,c,1.0246998999991774,correct,c
330,4F4K,331,1,37.58586101243195,52.75520409604765,1.0924564965799068,55.2507580254193,1,c,1.6619442999999592,correct,c
331,4F4K,332,2,63.053741138743085,43.74765885941126,1.855248234534256,47.226245336367896,1,b,0.47980719999941357,incorrect,v
332,4F4K,333,1,72.80513126628824,56.86166598817865,2.272300974976362,58.76573838095811,2,n,1.1170278999998118,correct,n
333,4F4K,334,2,66.00888576962882,48.7328829066494,1.9728299037431285,51.703534769476086,1,v,1.297764200000529,correct,v
334,4F4K,335,2,71.34472084299503,54.94662595654541,2.2043321483289997,57.14261754554672,1,v,0.8499425000009069,correct,v
335,4F4K,336,1,62.59729912897669,48.16472057319555,1.83772255198544,51.1965470139077,2,n,0.6847795999983646,correct,n
336,4F4K,337,1,42.9363528086899,61.22438424660115,1.2210231761401251,62.33525993612909,1,c,0.4798205000006419,correct,c
337,4F4K,338,2,46.89028274406804,63.16496886798734,1.325657864632313,63.85609097691729,2,b,2.088143000000855,correct,b
338,4F4K,339,1,20.661013489259616,36.98423709659205,0.7683472626416648,41.14422780322106,1,c,0.7030632000005426,correct,c
339,4F4K,340,2,67.97107238774292,59.13934645510382,2.0549911369024563,60.653481630114,1,v,0.7590235000006942,correct,v
340,4F4K,341,1,56.10414844247038,48.82640385695567,1.605613278781978,51.786871348974245,2,c,2.050307600000451,incorrect,n
341,4F4K,342,1,45.4153786177833,57.228142823704346,1.285617398513112,59.07276803999768,1,c,0.7030448999994405,correct,c
342,4F4K,343,2,68.14066314102243,54.99793504091349,2.0622509399982865,57.18649367120828,1,v,1.0759417000008398,correct,v
343,4F4K,344,2,30.364483905081872,39.55829705503807,0.9401315296745748,43.4492627551956,2,b,0.47165320000021893,correct,b
344,4F4K,345,1,35.86727725855992,48.81384439044383,1.054104807070655,51.77568155869808,1,c,0.9541283999988082,correct,c
345,4F4K,346,1,71.59478388945335,63.88159960701164,2.2158243411593883,64.40605309116698,2,n,0.5877261000005092,correct,n
346,4F4K,347,1,53.57222806039705,66.91821706692538,1.523264888904634,66.6609388954238,1,c,1.8985903000011604,correct,c
347,4F4K,348,2,57.24773133617965,43.12797057896604,1.644252586924428,46.6670420872584,1,v,2.415809199999785,correct,v
348,4F4K,349,2,63.77282892093508,52.18564931579496,1.8831982275377324,54.753789056038144,1,v,1.6612691000009363,correct,v
349,4F4K,350,2,52.90254192722053,61.33730225648133,1.5021993279301362,62.42496943424715,2,v,1.419177600000694,incorrect,b
350,4F4K,351,2,49.18860353537018,63.35922881373194,1.3905523956318064,64.00581218895081,2,b,2.258037300000069,correct,b
351,4F4K,352,1,46.46312379396862,59.66867529381765,1.3139348234210602,61.08484897798616,1,c,1.6549257000006037,correct,c
352,4F4K,353,1,50.162390000707504,37.79243766485172,1.418997158081174,41.865758171543455,2,n,2.6646294000001944,correct,n
353,4F4K,354,1,66.05584952963102,50.88720854859942,1.974757478799872,53.613721667351726,2,n,1.856104000000414,correct,n
354,4F4K,355,1,36.02331921842887,49.210255733238576,1.0575307229592323,52.1285612969754,1,c,0.7519823000002361,correct,c
355,4F4K,356,2,76.58086627222043,59.036714570973096,2.45789960390735,60.56950942729621,1,b,1.6923838999991858,incorrect,v
356,4F4K,357,1,33.558811266263625,45.44051567581781,1.0046996908724866,48.75227629634186,1,c,0.8183398000001034,correct,c
357,4F4K,358,2,67.53714952955411,51.65716581515071,2.036532003274058,54.29091061548706,1,v,0.46162790000016685,correct,v
358,4F4K,359,1,52.89350228779177,69.78534801531887,1.501916980025246,68.66848455305504,1,c,2.0576357999998436,correct,c
359,4F4K,360,2,55.66442511556587,31.006231935149128,1.5909988065511678,35.90689577617997,1,v,2.500808300001154,correct,v
360,4F4K,361,2,64.07133454310615,44.726426110716375,1.8949240645199323,48.108963957386365,1,b,2.7424382000008336,incorrect,v
361,4F4K,362,1,53.14075860098824,63.79332392864567,1.5096590480727994,64.33866030848245,1,c,1.3831917000006797,correct,c
362,4F4K,363,1,57.639951315482925,44.82080703406344,1.6577179235629869,48.19403106523889,2,c,0.7225727000004554,incorrect,n
363,4F4K,364,2,75.23677726573922,58.52644426230739,2.390153573383742,60.15043555502218,1,v,0.7758491000004142,correct,v
364,4F4K,365,1,22.668072861647172,40.43827906863214,0.801093302018456,44.24109627184593,1,c,0.516549699999814,correct,c
365,4F4K,366,2,48.14057516846667,34.84348408802184,1.3605757257083122,39.245979396295375,1,b,1.7287176999998337,incorrect,v
366,4F4K,367,1,46.47602017048159,58.95036676617353,1.3142872320038446,60.49877773153458,1,c,1.3827295000010054,correct,c
367,4F4K,368,2,42.33661506006991,58.73657434339567,1.2058901167407403,60.323326305502285,2,b,3.2906137999998464,correct,b
368,4F4K,369,2,53.44945234421304,38.516367807913305,1.5193808787736844,42.51389099535562,1,v,1.5236571000004915,correct,v
369,4F4K,370,1,22.78636989511641,41.12416716988292,0.8030663513511258,44.85914776916147,1,c,0.8729325999993307,correct,c
370,4F4K,371,1,40.420465199391344,63.18280827810659,1.158785836333014,63.869859954499866,1,c,1.2930474000004324,correct,c
371,4F4K,372,1,43.22032047564954,31.83318220955083,1.2282545762116237,36.61825510662256,2,c,1.16427030000159,incorrect,n
372,4F4K,373,2,49.057861682516375,38.19881462531798,1.3867770346398738,42.22938970325849,1,b,2.385488700001588,incorrect,v
373,4F4K,374,1,51.66397540792984,60.088508471922445,1.46400376338766,61.42489171683184,1,n,0.769775099999606,incorrect,c
374,4F4K,375,1,41.986273624763726,47.33507047557417,1.1971369547140778,50.454258887903286,1,c,1.1656573000000208,correct,c
375,4F4K,376,2,70.97433945825648,50.479923462642375,2.18741989263179,53.25424550072819,1,v,0.44349139999940235,correct,v
376,4F4K,377,1,22.985154907029564,36.56482695610875,0.80639279134951,40.770754670053485,1,c,0.5769352999996045,correct,c
377,4F4K,378,1,37.2146031185256,56.40520569303256,1.084055104633265,58.38165697397054,1,c,1.3342706999992515,correct,c
378,4F4K,379,1,41.43043903515424,61.61816637234176,1.1833797976137077,62.64747043811408,1,c,1.431293600000572,correct,c
379,4F4K,380,1,54.2375728652101,65.18359378281457,1.5444864199223702,65.38822120662826,1,c,2.26270680000016,correct,c
380,4F4K,381,2,37.82783962785378,48.30275338147276,1.0979673765926363,51.31982458717582,2,b,2.283099599999332,correct,b
381,4F4K,382,1,32.528312817409315,56.98138975658428,0.9833994030538896,58.866174060272414,1,c,0.6787733999990451,correct,c
382,4F4K,383,1,53.36277100744583,66.39129298822843,1.51664468011222,66.27878775170241,1,c,3.150125799998932,correct,c
383,4F4K,384,1,39.004851662846114,53.750617863198265,1.1251719947442291,56.11428450762097,1,c,0.9117979000002379,correct,c
384,4F4K,385,2,45.03735999229001,63.90816037230912,1.27555119168392,64.42631094290793,2,b,0.769792500001131,correct,b
385,4F4K,386,1,54.588432275055446,62.62174388333024,1.5557960705656846,63.434928509596325,1,c,1.1085967999988497,correct,c
386,4F4K,387,1,55.37340647489928,67.24946909825856,1.581399851455393,66.89913814602663,1,n,0.9176885000015318,incorrect,c
387,4F4K,388,1,56.36384704040269,71.10680359951209,1.6143074953829686,69.55089461055091,1,c,1.1946084999999584,correct,c
388,4F4K,389,2,63.95637408889572,70.65017990867074,1.89039959149623,69.24914929111372,2,v,1.493337199999587,incorrect,b
389,4F4K,390,1,43.76446230840312,28.47974330703404,1.242231338655087,33.76711787028483,2,c,1.2310677999994368,incorrect,n
390,4F4K,391,2,61.746603903873854,47.0196232695709,1.8054996205892648,50.17148203986667,1,v,1.7651803999997355,correct,v
391,4F4K,392,1,61.76216407931632,47.80223487244538,1.8060839111492504,50.87250129443596,2,n,0.5769523999988451,correct,n
392,4F4K,393,2,39.90656553223499,50.89550871907988,1.1464686982935957,53.621038719787165,2,b,0.8001058000008925,correct,b
393,4F4K,394,2,60.08114328625568,45.73082085670151,1.7440414138014677,49.01357569029456,1,v,2.3192643000002136,correct,v
394,4F4K,395,2,41.80906035400301,33.35627471592502,1.1927335678506266,37.94084092484431,1,b,1.3584284000007756,incorrect,v
395,4F4K,396,1,55.85771929426671,36.24739553798357,1.597406599158643,40.48856562526505,2,n,1.3402363999994122,correct,n
396,4F4K,397,1,42.06478434423816,61.11425434350679,1.1990929782215756,62.24762540133023,1,c,1.5224125000004278,correct,c
397,4F4K,398,1,32.61083625919338,46.42995899811008,0.9850883914760457,49.64218122117924,1,c,0.6534492000009777,correct,c
398,4F4K,399,1,42.87251353283245,60.17670871472132,1.2194033427610484,61.49608947825278,1,c,0.9397317000002658,correct,c
399,4F4K,400,2,74.5114582270527,55.0701342221324,2.354374377646096,57.24819902765204,1,v,1.8075563000002148,correct,v
