,condition,trial,sub_task,x,y,xt,yt,cat,resp,rt,acc,correct_resp
0,4F4K,1,1,38.32932525762816,54.20022204227834,1.109476998197877,56.39000947698101,1,c,5.0,NA,c
1,4F4K,2,2,24.600720525790823,36.87572402709592,0.8339435386345229,40.960623503241656,2,v,4.841167999999925,incorrect,b
2,4F4K,3,2,52.41480631951785,34.975598778515604,1.4870407570889277,39.278338416348525,1,v,3.7373483000001215,correct,v
3,4F4K,4,1,40.94345836459388,53.4515111212044,1.1714567985805215,55.74448456544405,1,n,1.6860622999997759,incorrect,c
4,4F4K,5,2,41.58331929607807,54.98001196766875,1.187147814044493,57.05800394153734,2,v,2.549368500000128,incorrect,b
5,4F4K,6,2,44.99293347464212,56.64398936006018,1.2743733517060305,58.46734101037786,2,b,3.3687301999998454,correct,b
6,4F4K,7,2,59.683207764422704,49.043513819486776,1.729669301613561,51.875494008961,1,b,2.7314077000000907,incorrect,v
7,4F4K,8,2,49.670809876893415,71.10126454987007,1.4045658817901487,69.41394450993958,2,b,2.0516070999997282,correct,b
8,4F4K,9,2,49.98907189231807,66.0685257624913,1.4138922278886448,65.91514661453758,2,v,1.4131788999998207,incorrect,b
9,4F4K,10,2,42.75110759864807,58.59704883527516,1.2163287618605985,60.090464985494776,2,b,3.2169679999997243,correct,b
10,4F4K,11,1,60.46574099270845,46.895854708457,1.7580452811500291,49.95887067605388,2,c,4.234986999999819,incorrect,n
11,4F4K,12,2,65.03348324775362,46.5824888227256,1.933218220701652,49.678051081412654,1,b,2.4279263000003084,incorrect,v
12,4F4K,13,1,39.74468291353792,48.032011280406,1.142615881387552,50.97471848131424,1,n,2.6055029999997714,incorrect,c
13,4F4K,14,2,47.27023282262633,33.65034838472626,1.3361731601448112,38.115634872520346,1,v,5.0,incorrect,v
14,4F4K,15,1,44.52612478659269,62.31121737686868,1.2620628378488263,63.06958729937886,1,n,3.41875170000003,incorrect,c
15,4F4K,16,2,49.58906704755719,64.77221168393383,1.4021804365967772,64.95427123916757,2,v,3.3932497000000694,incorrect,b
16,4F4K,17,1,61.3723134089014,73.70195668531214,1.791501687220846,71.06412904129512,1,c,1.4492212000000109,correct,c
17,4F4K,18,1,66.29956913051437,55.466327306126914,1.984790966201884,57.472236441784055,2,c,1.4129815999999664,incorrect,n
18,4F4K,19,2,48.76662335209832,58.14354009026502,1.378403911445114,59.71677163596627,2,b,5.0,incorrect,b
19,4F4K,20,2,79.70749324493038,59.16456820067437,2.6230127082613204,60.55523181924255,1,b,2.3430287999999564,incorrect,v
20,4F4K,21,1,55.71473606216487,47.79634501937757,1.5926641593629385,50.76433218015752,2,n,1.9683344999998553,correct,n
21,4F4K,22,2,38.61070313726203,51.97570201313904,1.1159876750219138,54.461170152037,2,v,1.602602399999796,incorrect,b
22,4F4K,23,1,36.290097180352056,56.71427719247487,1.0634136686445563,58.52635957653762,1,c,1.4446721999997862,correct,c
23,4F4K,24,2,60.21221400192203,46.29340944695118,1.7488013502858084,49.41878425063648,1,b,1.5070013999998082,incorrect,v
24,4F4K,25,2,64.70372519068832,44.410814585724566,1.920007246151078,47.726476776920215,1,v,1.2551355000000513,correct,v
25,4F4K,26,1,43.92185104547652,54.05113330853872,1.2463035820012602,56.26178384482003,1,n,1.9591302999997424,incorrect,c
26,4F4K,27,1,71.71834297148553,62.37347418986661,2.221524864943731,63.11819370577663,2,n,5.0,incorrect,n
27,4F4K,28,2,68.46148313508242,55.33210076633932,2.0760547541787626,57.35809199591007,1,b,1.680415499999981,incorrect,v
28,4F4K,29,2,64.47853086767668,53.90340572062662,1.9110372849468875,56.1345718718016,1,b,2.816389699999945,incorrect,v
29,4F4K,30,2,51.37243545657542,36.75310097317914,1.4551552315697482,40.851589131882335,1,b,1.5525662000000011,incorrect,v
30,4F4K,31,2,45.327031889109065,31.438291960884136,1.2832577350621248,36.19879458904453,1,v,1.4008347000003596,correct,v
31,4F4K,32,1,62.86232197125601,46.48972125685225,1.847878190055457,49.59487186856438,2,n,1.6617660000001706,correct,n
32,4F4K,33,1,40.58135222185831,51.27551668062116,1.162669106337067,53.84771788851997,1,c,1.6450764999999592,correct,c
33,4F4K,34,2,50.504566757172505,36.66140684962826,1.42912984782049,40.77009504451159,1,v,1.3704894000002241,correct,v
34,4F4K,35,2,56.66397660268421,50.67943857854386,1.6244139232046786,53.32337140090972,1,v,2.1002558000000136,correct,v
35,4F4K,36,1,45.68628856753364,56.7955186469216,1.292880251732583,58.5945215168394,1,n,1.3780532999999195,incorrect,c
36,4F4K,37,1,61.805812171707416,47.80008218458605,1.807723923101887,50.7676698707727,2,n,2.025858900000003,correct,n
37,4F4K,38,2,56.86382920084795,65.4187209609983,1.6311787386768917,65.43634904978899,2,b,2.634302200000093,correct,b
38,4F4K,39,2,47.40708614692414,61.38886874786344,1.339981037146048,62.34410132579612,2,v,1.499858800000311,incorrect,b
39,4F4K,40,1,32.27998644988379,47.26582392517139,0.9783344121573668,50.29008144994654,1,n,1.5221661999999014,incorrect,c
40,4F4K,41,1,38.41826875058466,56.28451632583885,1.1115309057002811,58.164831956904806,1,c,5.0,incorrect,c
41,4F4K,42,2,39.99932576409308,51.55764163147003,1.1486822499666738,54.09522786946984,2,b,5.0,incorrect,b
42,4F4K,43,2,56.80034881498791,48.12110750587943,1.629026942087728,51.05420921342618,1,b,1.2126591999999619,incorrect,v
43,4F4K,44,2,59.5390452244339,40.29614245229958,1.7244919051499834,44.021201218065,1,b,1.9470139000000017,incorrect,v
44,4F4K,45,2,41.48339847502466,53.44910445305447,1.1846837250014046,55.7424033031694,2,b,2.3809212999999545,correct,b
45,4F4K,46,1,49.045365481920825,64.72250797886801,1.3864167257976352,64.91697730007903,1,n,1.704251199999817,incorrect,c
46,4F4K,47,1,38.03558309520624,48.981888296085295,1.1027207498769305,51.820725081659326,1,c,2.312642400000186,correct,c
47,4F4K,48,1,72.16296261463413,60.70155460397979,2.2421594502206825,61.797111627256974,2,n,1.0868939999995746,correct,n
48,4F4K,49,2,53.586548431620855,67.18804455768974,1.5237185599772618,66.72615380814561,2,b,1.1704172999998264,correct,b
49,4F4K,50,1,64.72634169322617,51.14012946082434,1.9209104320672343,53.728787545407215,2,c,2.834594299999935,incorrect,n
50,4F4K,51,1,55.35259246007027,74.99127219347989,1.5807155455500752,71.83928022735326,1,n,2.2868382999999994,incorrect,c
51,4F4K,52,1,71.80433545288552,55.49217553863545,2.225500868169336,57.494200869851085,2,c,2.3551635999997416,incorrect,n
52,4F4K,53,2,63.19554298105207,53.14086318912188,1.8607268531960492,55.47551736059099,1,v,1.7314405000001898,correct,v
53,4F4K,54,1,55.01719799465592,35.49756876369298,1.5697294656020977,39.73882159827437,2,n,2.55007360000036,correct,n
54,4F4K,55,1,33.67562073794535,46.99358690482795,1.007143057276843,50.04640058090748,1,c,1.919653599999947,correct,c
55,4F4K,56,1,52.765012115464096,46.282489285635954,1.497909397328131,49.40898651892842,2,c,1.9228776999998445,incorrect,n
56,4F4K,57,1,41.72638633037723,58.39300822636319,1.1906848319607086,59.922583018688336,1,c,1.3598511999998664,correct,c
57,4F4K,58,2,62.9758628289263,46.528741657195134,1.8522462140445608,49.62986166987927,1,b,2.0699039000000994,incorrect,v
58,4F4K,59,2,47.04365288989872,38.9285268688953,1.329892458051156,42.79367303767835,1,b,1.5131152000003567,incorrect,v
59,4F4K,60,2,52.35563829394819,40.93932756864453,1.4852122800040732,44.59968274027448,1,v,2.6464826999999786,correct,v
60,4F4K,61,2,72.96694226313672,61.10880145047916,2.279959611495888,62.12185789868047,1,b,2.093946699999833,incorrect,v
61,4F4K,62,2,45.15165051001591,64.6496005667193,1.2785862775617018,64.86221376002122,2,b,1.0456530999999814,correct,b
62,4F4K,63,1,60.53584629991705,38.14859490462818,1.7606100265809663,42.09566298590782,2,n,1.7346244999998817,correct,n
63,4F4K,64,2,38.12452868324715,23.60622980655648,1.10476219807656,29.743263665616197,1,b,2.3369149999998626,incorrect,v
64,4F4K,65,1,36.78757904519579,27.247058423944274,1.074471615505838,32.67021426455871,2,c,1.0382098000000042,incorrect,n
65,4F4K,66,2,42.40469310154689,64.85841881013738,1.207598435633608,65.01887670955483,2,v,1.3577523000003566,incorrect,b
66,4F4K,67,2,49.0072964243046,34.45664738557686,1.3853196396197758,38.82189240499704,1,v,2.476526399999784,correct,v
67,4F4K,68,2,39.8892094388678,56.26504186125592,1.1460550011454005,58.14841182341193,2,v,1.2929853999999068,incorrect,b
68,4F4K,69,1,24.2446169519091,33.2382729351408,0.8277910230764645,37.756154172702864,1,n,1.255145900000116,incorrect,c
69,4F4K,70,2,51.53562789957586,41.5178464734244,1.4601016765228207,45.12044956324536,1,b,1.6123704999999973,incorrect,v
70,4F4K,71,1,46.71888447967741,31.303371823118447,1.3209414619478228,36.082968558273606,2,c,4.556626399999914,incorrect,n
71,4F4K,72,1,62.515681691284456,48.69653409534116,1.834606238567065,51.56692595513945,2,n,4.836648700000296,correct,n
72,4F4K,73,2,39.6946960578328,45.59268154163448,1.1414288092878238,48.78957783560795,2,b,1.7224458000000595,correct,b
73,4F4K,74,1,46.70964717070041,40.87267182978539,1.3206877540140192,44.53970553618343,2,n,2.701045199999953,correct,n
74,4F4K,75,2,25.811094457730903,48.38105023994642,0.8551994520116485,51.28597083743617,2,v,1.8453664999997272,incorrect,b
75,4F4K,76,2,46.19216518609432,28.06569198510371,1.306552372549708,33.34723486679928,1,b,2.8467099999998027,incorrect,v
76,4F4K,77,2,45.22862978474981,22.795797505860115,1.2806345994802084,29.11220780210436,1,b,1.07915469999989,incorrect,v
77,4F4K,78,1,65.63918049126633,52.06760359729842,1.9577213221967649,54.54147875831357,2,c,1.2127362000001085,incorrect,n
78,4F4K,79,2,27.23018288765548,41.88885016369265,0.8808116687879977,45.45457844100769,2,b,2.8103149000003214,correct,b
79,4F4K,80,1,53.10870308008442,36.27752095079933,1.5086530811716674,40.42928462211101,2,n,2.434185599999637,correct,n
80,4F4K,81,1,47.6723477985001,61.51264230277075,1.3473927428042172,62.44203392069811,1,c,3.1521411999997326,correct,c
81,4F4K,82,1,35.57913081307403,47.0398742430748,1.04780766755995,50.08784704890679,1,n,3.2348838000002615,incorrect,c
82,4F4K,83,1,73.35927349224976,51.01075148316684,2.298636284054917,53.615044468609454,2,n,2.6722068999997646,correct,n
83,4F4K,84,2,57.20410073118128,45.78304059268257,1.6427614775939297,48.96060325876663,1,b,0.8623835000003055,incorrect,v
84,4F4K,85,2,51.50636280927178,34.598450152875266,1.45921340130539,38.94647453557074,1,v,0.6786093000000619,correct,v
85,4F4K,86,2,38.37973592449607,47.1970934939795,1.1106406287297454,50.22857997362118,2,v,1.3644014999999854,incorrect,b
86,4F4K,87,2,55.66816468779986,48.10108765609787,1.5911225309584995,51.03635005555924,1,b,1.2065926000000218,incorrect,v
87,4F4K,88,1,41.675250849336926,55.770098218946735,1.189419411059453,57.73002284701885,1,c,4.028728599999795,correct,c
88,4F4K,89,1,54.06552741521215,45.013452601045145,1.5389707614070065,48.26879974471277,2,n,0.8303021000001536,correct,n
89,4F4K,90,1,34.61335123590173,48.40599202964074,1.026974626286614,51.30819606986867,1,c,0.6839497000000847,correct,c
90,4F4K,91,2,46.41766455178036,63.59376728611736,1.3126933498525828,64.06135640543194,2,b,2.8883488999999827,correct,b
91,4F4K,92,2,58.04121210669396,45.95326771953023,1.6716077624094448,49.1134831490694,1,v,0.8731192000000192,correct,v
92,4F4K,93,2,50.613808543525046,62.25280520907816,1.4323799765892309,63.02394031883079,2,b,0.7757031000001007,correct,b
93,4F4K,94,2,30.79431876793578,42.83709724226645,0.948572246187984,46.30889339000442,2,b,0.976164499999868,correct,b
94,4F4K,95,2,39.73125037489893,54.99651852114608,1.142296768445598,57.07209422732316,2,b,1.3220054000003074,correct,b
95,4F4K,96,1,59.33980144627607,45.53582813793842,1.7173618435879034,48.73848597965553,2,c,1.0731089999999313,incorrect,n
96,4F4K,97,2,42.87432437661536,59.417935950158686,1.219449260792395,60.76166952431996,2,b,1.0782748000001448,correct,b
97,4F4K,98,2,41.76653280978104,54.25480916289587,1.1916792575591908,56.43691760056862,2,b,2.3976519999996526,correct,b
98,4F4K,99,1,49.14957373515095,63.05146197871457,1.389424278547014,63.64448197037815,1,n,1.9305303999999524,incorrect,c
99,4F4K,100,2,55.63329829434413,49.0657894014783,1.5899693434215405,51.89528742170965,1,v,0.9459533999997802,correct,v
100,4F4K,101,2,37.19629131155873,52.71302437802954,1.0836423931120849,55.104044755519205,2,b,0.6178859000001466,correct,b
101,4F4K,102,1,43.21731734915972,57.28725791400954,1.228177876245689,59.00583781895385,1,c,0.49657639999986714,correct,c
102,4F4K,103,2,56.90843351925848,46.88152856731068,1.632692392629688,49.946037923643146,1,b,2.5250622999997177,incorrect,v
103,4F4K,104,2,46.00629931779692,50.079090574021954,1.301512330197924,52.7934552645529,2,b,0.904344300000048,correct,b
104,4F4K,105,1,48.77129825368026,68.53528501331719,1.3785379151464958,67.67797910212367,1,n,1.7770599000000402,incorrect,c
105,4F4K,106,1,44.93424438421299,62.88602426162393,1.2728190483122384,63.51657960587765,1,n,0.8363840000001801,incorrect,c
106,4F4K,107,1,57.87661599793064,52.64566128982786,1.6658961642463568,55.04544966140151,2,n,1.061133200000313,correct,n
107,4F4K,108,2,31.51420531068657,46.71294276748726,0.962878826963682,49.794986070421,2,v,0.8062721999999667,incorrect,b
108,4F4K,109,1,42.130909318784255,52.21770436186444,1.2007429013545106,54.67253710610082,1,c,1.6739245000003393,correct,c
109,4F4K,110,1,55.16880660912322,31.639299768792103,1.5746860233003166,36.37160145962529,2,n,0.6481015000003936,correct,n
110,4F4K,111,2,64.8679316266039,74.58250548781896,1.926574464185824,71.59668435343822,2,v,1.0852092999998604,incorrect,b
111,4F4K,112,1,36.89072215369854,48.88641661848634,1.0767786160641997,51.73584609619533,1,c,1.0128316999998788,correct,c
112,4F4K,113,1,62.3863978642822,44.95697184890408,1.8296807406777305,48.217991316580665,2,n,0.5511473000001388,correct,n
113,4F4K,114,1,50.00114405456419,63.848303198377664,1.4142472068373872,64.2557399301949,1,n,1.236258600000383,incorrect,c
114,4F4K,115,1,40.18406668327163,52.83814423364549,1.1531034908926114,55.21280260173678,1,c,2.616104500000347,correct,c
115,4F4K,116,2,57.72805593296039,38.55613913075012,1.6607577858650082,42.46018728200567,1,b,1.0002670999997463,incorrect,v
116,4F4K,117,1,65.3132337157425,45.98425045198291,1.944497003383877,49.14130235846408,2,n,1.1399147000001904,correct,n
117,4F4K,118,1,35.419730068544645,47.42805974373518,1.044340306510525,50.43519953769453,1,c,1.7285237000000961,correct,c
118,4F4K,119,1,55.25463817960178,41.90820232519266,1.5774990598392271,45.47200982201816,2,n,0.6253882000000885,correct,n
119,4F4K,120,1,39.567573162739954,55.92943222693484,1.1384154880682376,57.86493517414748,1,n,0.7325372000000243,incorrect,c
120,4F4K,121,1,45.76292274391822,32.3495012234101,1.29494218020443,36.98445131589655,2,c,2.051458299999922,incorrect,n
121,4F4K,122,2,71.88160684179734,49.52875289594552,2.2290797071921054,52.30620053865205,1,v,1.3279929999998785,correct,v
122,4F4K,123,2,48.79212802780778,35.7809676346055,1.379135148496308,39.98938539768164,1,v,0.8789311999998972,correct,v
123,4F4K,124,1,39.85529491053007,51.47450395969226,1.1452470505085233,54.022336408689455,1,n,0.715105400000084,incorrect,c
124,4F4K,125,2,57.54257965601957,44.49137092368126,1.6543647941297468,47.798995020508926,1,v,1.406868100000338,correct,v
125,4F4K,126,1,56.72157829060163,41.49266534337016,1.6263608012711577,45.09777521323931,2,c,1.1095094000002064,incorrect,n
126,4F4K,127,1,25.42961229416584,40.06576633050099,0.8484422493906592,43.81415934207341,1,c,0.5997112000000016,correct,c
127,4F4K,128,2,46.01556074261404,59.26404814949402,1.3017630072785795,60.63636433306702,2,b,0.7576320999996824,correct,b
128,4F4K,129,2,71.28597721224634,54.16503884136954,2.20164111356213,56.35976418252056,1,v,0.6786001000000397,correct,v
129,4F4K,130,1,37.0836225641479,46.63998304986441,1.0811065200063148,49.72959234041994,1,n,0.9702989999996134,incorrect,c
130,4F4K,131,1,41.59478435362288,53.07952457099341,1.1874308747095408,55.42233290122517,1,c,0.7817571999999018,correct,c
131,4F4K,132,2,63.80815799731192,43.27537823781716,1.8845822227016955,46.70379644627684,1,b,1.1398533999999927,incorrect,v
132,4F4K,133,2,33.43996875535424,41.41811899807864,1.0022198815603474,45.03065329505242,2,b,0.7940853000000061,correct,b
133,4F4K,134,2,66.73620671904509,54.354700544961496,2.0028941815281875,56.52270055377517,1,v,0.5147532999999385,correct,v
134,4F4K,135,1,48.00329496061438,40.8954990330745,1.3566972807920434,44.56024494393715,2,c,0.9213752000000568,incorrect,n
135,4F4K,136,2,43.59120364946462,55.474093528597336,1.2377638645930282,57.47883632113382,2,v,0.932612699999936,incorrect,b
136,4F4K,137,1,43.398975903645024,63.16001281004154,1.2328260715551087,63.72822019535244,1,c,2.0948614999997517,correct,c
137,4F4K,138,1,62.037414456914014,44.881084068561776,1.816450981250154,48.14971805068377,2,n,0.6621393999998872,correct,n
138,4F4K,139,1,42.07011151564405,52.73977550344562,1.199225815601536,55.127305989549576,1,c,1.000253199999861,correct,c
139,4F4K,140,1,44.47647314501149,65.30560736267901,1.2607604596247963,65.35241152221765,1,c,0.806047000000035,correct,c
140,4F4K,141,2,26.86089776843963,42.30914826666245,0.8740737594755588,45.83320534940078,2,b,3.5674057000001085,correct,b
141,4F4K,142,2,64.12578113077049,80.13973209888593,1.8970706840056089,74.63374734977499,2,v,0.5997542000000067,incorrect,b
142,4F4K,143,1,46.11194064105142,58.94639505920394,1.3043745694982725,60.37694379761908,1,c,1.2373059999999896,correct,c
143,4F4K,144,1,43.2541565709334,58.32787929251397,1.2291190824670306,59.86890989144647,1,c,0.5875980999999229,correct,c
144,4F4K,145,2,29.52129932984728,43.31325579299353,0.9237913739045912,46.737923477421496,2,b,0.8058520999998109,correct,b
145,4F4K,146,2,52.73898078786233,70.73819086730374,1.4970987890378558,69.17465115549064,2,b,2.6949495999997453,correct,b
146,4F4K,147,1,32.81741626757958,44.75561145901578,0.9893291480437736,48.03681874583601,1,c,0.6634039999999004,correct,c
147,4F4K,148,1,48.34990252393544,37.679371625930365,1.3665110024169795,41.67660203311269,2,n,1.0184948000000986,correct,n
148,4F4K,149,2,49.93551893827906,33.18236440535658,1.4123185905141642,37.70746137411197,1,b,0.8607394999999087,incorrect,v
149,4F4K,150,1,56.295290529604976,43.75921736509938,1.6120077902306005,47.13968563663765,2,n,0.9995015000004059,correct,n
150,4F4K,151,1,71.8962570302509,56.40999808155798,2.2297588821729044,58.27055574359136,2,n,1.0487459999999373,correct,n
151,4F4K,152,2,33.76048085260087,46.93199252360992,1.0089218474895518,49.99123900768429,2,b,0.823466599999847,correct,b
152,4F4K,153,1,38.22536019854758,54.30869815858459,1.1070810189134197,56.48320450969697,1,n,0.9265826999999263,incorrect,c
153,4F4K,154,1,32.34228437247948,43.22152672167666,0.9796026156469148,46.655276484482464,1,c,0.4538836000001538,correct,c
154,4F4K,155,2,49.82491109848896,60.488293986095,1.4090739547296254,61.62631714010291,2,b,0.5815290999998979,correct,b
155,4F4K,156,1,55.99708274018022,47.32357000196826,1.602042567983626,50.341743439183766,2,n,0.982085300000108,correct,n
156,4F4K,157,2,42.938082699753735,54.63867733722629,1.221067099665455,56.76616655016564,2,b,1.1337899000000107,correct,b
157,4F4K,158,1,23.432732248988323,34.44766692268752,0.813933011497334,38.8140061849906,1,c,0.6483742000000348,correct,c
158,4F4K,159,2,33.0647947141089,48.72305361000949,0.9944314585226054,51.59052610557188,2,b,1.1398251000000528,correct,b
159,4F4K,160,1,54.40279768022244,44.09955645502643,1.5498020207714676,47.44621805104752,2,n,0.7757458999999471,correct,n
160,4F4K,161,2,52.26215693996046,31.529904349677963,1.482327994818843,36.27751768995731,1,v,2.2395300999996834,correct,v
161,4F4K,162,2,58.90235864780545,42.43764485708995,1.7018109251799929,45.94897673820099,1,v,0.6392026999997142,correct,v
162,4F4K,163,1,43.232987794039246,27.11366409520761,1.228578152726539,32.56051012923224,2,n,0.7848306000000775,correct,n
163,4F4K,164,1,61.90719217675766,77.1630450037096,1.8115388742979688,73.07789285255531,1,c,0.5147355000003699,correct,c
164,4F4K,165,2,59.88647235518832,47.22496166253851,1.7369956856125954,50.25351863071548,1,b,0.781097999999929,incorrect,v
165,4F4K,166,1,38.67802620660867,57.04683999475285,1.1175510892185392,58.805010916619565,1,c,0.7018577999997433,correct,c
166,4F4K,167,1,49.39427204910643,37.3266272353489,1.3965121848458344,41.36205124090011,2,c,1.0245589000001019,incorrect,n
167,4F4K,168,2,42.61442552691152,65.04222545064363,1.2128765915738766,65.15629399493787,2,b,0.7150022999999237,correct,b
168,4F4K,169,2,52.910023727210486,63.17006190786394,1.5024330577677387,63.73596485990175,2,b,0.5154560999999376,correct,b
169,4F4K,170,2,48.520941860217775,28.29229457321441,1.371379874890542,33.53575731986184,1,v,0.9577867000002698,correct,v
170,4F4K,171,1,73.01565572492234,65.11140179338739,2.282270307667171,65.20789417719062,2,n,0.8424293000002763,correct,n
171,4F4K,172,2,38.61821688772105,48.60658522348549,1.1161620550767728,51.4868592247708,2,b,1.479141200000413,correct,b
172,4F4K,173,2,64.48655039533159,47.16086151425493,1.9113559987537567,50.19615344019298,1,v,0.7512224000001879,correct,v
173,4F4K,174,1,56.167389998455874,74.19813822747295,1.6077261635344202,71.36588434089255,1,n,0.7578268000002026,incorrect,c
174,4F4K,175,1,41.63574676888795,51.0498934663312,1.1884427467260377,53.649465625948366,1,c,0.6848798999999417,correct,c
175,4F4K,176,2,49.63096717021154,40.07451253474448,1.4034026727481823,43.822017954083485,1,b,0.9152830999996695,incorrect,v
176,4F4K,177,1,56.67439097457498,41.508220973336336,1.6247657456375555,45.111782215276776,2,n,2.0622175000003153,correct,n
177,4F4K,178,1,66.36732857921463,81.04697057995475,1.9875895438072524,75.07448933171436,1,n,0.971167499999865,incorrect,c
178,4F4K,179,1,51.59565180665281,35.63571852144745,1.4619252578630697,39.86091826301466,2,c,1.1459341999998287,incorrect,n
179,4F4K,180,2,48.59780593258064,40.022406595698406,1.373573563599846,43.77520194929397,1,b,0.9700687999998081,incorrect,v
180,4F4K,181,2,25.39506344477984,45.394518174880645,0.8478329277589459,48.61147227846012,2,v,1.2794349000000693,incorrect,b
181,4F4K,182,2,62.920227020801846,51.62340291764952,1.850104563363214,54.15285704851992,1,b,5.0,incorrect,v
182,4F4K,183,1,69.9653888466023,53.50266563528476,2.1420047293025517,55.78871315523188,2,c,1.4508618999998362,incorrect,n
183,4F4K,184,2,28.57455316328645,37.768392391618335,0.9057825147204648,41.75605120239447,2,b,1.5713181000000986,correct,b
184,4F4K,185,1,41.79865950758881,61.71598781958666,1.192475631900001,62.602541219394034,1,n,1.4311462000000574,incorrect,c
185,4F4K,186,2,70.59940411262679,63.353288116515685,2.170431849494697,63.87695311402518,1,v,0.6300633999999263,correct,v
186,4F4K,187,1,37.46027530785543,45.04455517628202,1.089607288801291,48.29677680488129,1,c,0.5997301000002153,correct,c
187,4F4K,188,1,38.529729734164,43.65550264827699,1.1141101621380305,47.04625843270865,1,c,0.4228945999998359,correct,c
188,4F4K,189,2,59.07958992568381,70.4501172739592,1.7080943860771358,68.98327626742721,2,v,0.5633873999995558,incorrect,b
189,4F4K,190,1,44.97092866524067,61.60631303528535,1.2737903609742367,62.51603090308287,1,c,0.8970590999997512,correct,c
190,4F4K,191,1,67.84151206681327,54.306833173625705,2.0494621725202937,56.48160297153756,2,n,0.7878576000002795,correct,n
191,4F4K,192,1,35.59694630386656,55.35957057375052,1.0481959131455496,57.381463649828255,1,c,0.7150226000003386,correct,c
192,4F4K,193,1,59.39740266527463,44.99736585202706,1.7194201039998551,48.25432902803716,2,n,0.6778517000002466,correct,n
193,4F4K,194,1,61.515581088823005,56.77709699372678,1.7968468291797166,58.57907076455848,2,n,0.6178880000002209,correct,n
194,4F4K,195,1,51.39557337516257,29.48323267033525,1.4558555326749134,34.5341649415994,2,c,0.6057521000002453,incorrect,n
195,4F4K,196,2,45.90103612862355,31.346043011716887,1.298666583094799,36.11958639511486,1,b,0.5693522999999914,incorrect,v
196,4F4K,197,1,52.030264805106015,32.81331679480081,1.4751973243189798,37.38653690380973,2,n,1.2005113999998684,correct,n
197,4F4K,198,2,42.7857492483718,29.18060916431492,1.2172052634142152,34.27928322368814,1,v,0.5632984999997461,correct,v
198,4F4K,199,2,51.3462594270344,65.42318258783314,1.4543633839388477,65.43965629425936,2,v,0.921331999999893,incorrect,b
199,4F4K,200,1,32.59741693085475,47.321232185235694,0.9848135437784036,50.33965212029639,1,c,0.9456866000000446,correct,c
200,4F4K,201,1,68.39756288405465,57.09605707369461,2.0732971279929258,58.84616564371124,2,n,1.012170700000297,correct,n
201,4F4K,202,1,39.79960990695756,52.29810028069569,1.14392169395162,54.74267800491764,1,c,0.696161100000154,correct,c
202,4F4K,203,1,44.43804705715721,65.19138863604631,1.2597534538351638,65.26747781108597,1,c,0.7332351999998536,correct,c
203,4F4K,204,2,66.84413678267259,50.19218115401912,2.0073944103596784,52.89341105747407,1,v,0.7568068999999014,correct,v
204,4F4K,205,1,57.97138331912642,68.44176559739594,1.669182267730508,67.61278175171672,1,n,0.63004090000004,incorrect,c
205,4F4K,206,1,48.903222594426026,70.34929977582888,1.3823248357314877,68.9159865280629,1,c,0.9274253000003227,correct,c
206,4F4K,207,2,64.42933696658284,53.102068738249365,1.9090833728300736,55.44188299539888,1,b,0.7445167999999285,incorrect,v
207,4F4K,208,2,49.878800034298926,62.71877064417828,1.410653832418768,63.38693121691215,2,v,1.3574272999999266,incorrect,b
208,4F4K,209,2,53.47085107491724,61.689604573147,1.5200571143486716,62.58174317544349,2,b,0.6058972000000722,correct,b
209,4F4K,210,1,61.143030355827605,69.52137025201917,1.782980482711359,68.35730242646747,1,n,0.6603878000000805,incorrect,c
210,4F4K,211,2,46.06587571248275,63.91138165306039,1.3031257161181982,64.3037835883717,2,b,0.6847046000002592,correct,b
211,4F4K,212,1,44.03903688495454,61.53372029432708,1.2493442916256754,62.45869373272029,1,c,0.7211091999997734,correct,c
212,4F4K,213,2,45.3589542181314,54.784628525670016,1.284109852254373,56.89106190098887,2,b,0.8546159000002262,correct,b
213,4F4K,214,1,57.89300359115848,36.942670016841255,1.6664639491206754,41.02017543171265,2,n,0.4670593999999255,correct,n
214,4F4K,215,2,51.0634713538915,42.324729927719176,1.4458362232560171,45.84724364973601,1,b,0.690753400000176,incorrect,v
215,4F4K,216,1,28.61717394084021,44.66366933038931,0.9065856421952532,47.95407748795694,1,c,0.7756588999995984,correct,c
216,4F4K,217,2,61.21788687900416,49.571175862083024,1.7857580271208873,52.34380861614437,1,v,0.45407669999985956,correct,v
217,4F4K,218,2,55.91747828074976,68.2341209041032,1.5993928554227654,67.46755028510337,2,v,1.2308763000000909,incorrect,b
218,4F4K,219,2,48.91443535039074,35.70258564686786,1.3826471799079227,39.92004749125549,1,v,1.0977265999999872,correct,v
219,4F4K,220,2,62.17667274267009,50.17545424411977,1.8217186736698616,52.87863067598671,1,v,1.0066163999999844,correct,v
220,4F4K,221,1,50.81047570678575,56.17768427375455,1.438249801594624,58.074715557251686,1,n,0.8060129999998935,incorrect,c
221,4F4K,222,2,29.528580060144478,47.79393907039017,0.923931245148822,50.76218338515877,2,b,0.8664777000003596,correct,b
222,4F4K,223,1,57.35182181812316,74.65459037759165,1.647815427331052,71.63967987298089,1,n,1.1398207000002003,incorrect,c
223,4F4K,224,1,33.537897549125745,43.50562057555991,1.004262853503458,46.9112335434248,1,c,0.6177769000000808,correct,c
224,4F4K,225,2,55.67075778539314,32.225089761412136,1.5912083296989807,36.87684191557163,1,b,1.1945434999997815,incorrect,v
225,4F4K,226,1,46.22975008468413,26.835758136242276,1.3075739155333532,32.33252589406825,2,c,0.8853589000000284,incorrect,n
226,4F4K,227,1,63.24480336206847,55.73793447132177,1.8626338482183225,57.70276358253592,2,n,0.8062328000000889,correct,n
227,4F4K,228,2,55.06967077155994,66.41089889140306,1.5714431961335489,66.16505797674705,2,v,0.7271221999999398,incorrect,b
228,4F4K,229,2,47.46920833502178,32.73403291590867,1.3417131359120822,37.31770503286508,1,b,0.8181346999999732,incorrect,v
229,4F4K,230,2,51.809053556232826,67.63795393659007,1.4684270610977617,67.04699909808093,2,v,1.2854993999999351,incorrect,b
230,4F4K,231,1,34.4188768572607,45.88432829679974,1.0228299465441064,49.05157594690341,1,c,0.6786314000000857,correct,c
231,4F4K,232,2,55.01988456449291,72.3065827215406,1.569817162007405,70.19285509132561,2,b,0.6664556999999149,correct,b
232,4F4K,233,1,47.48556288628118,39.03071589341276,1.342169507784898,42.88525007754731,2,c,1.5221823000001677,incorrect,n
233,4F4K,234,2,54.29842634882221,34.06279426029991,1.5464420696170846,38.47644610633191,1,v,0.8542367000000013,correct,v
234,4F4K,235,1,29.768600489087085,41.17226828498399,0.92855419123337,44.80932640058501,1,c,0.9275095000002693,correct,c
235,4F4K,236,1,46.54298931795144,25.215317418349507,1.316118762717252,31.01903379869465,2,c,0.9213661999997385,incorrect,n
236,4F4K,237,2,53.44791829078639,45.90813936244237,1.5193324116853186,49.072959214709485,1,b,0.9456184000000576,incorrect,v
237,4F4K,238,1,38.62906658823424,54.354637560943445,1.1164139043561792,56.52264648851173,1,c,0.7878725000000486,correct,c
238,4F4K,239,2,34.96411085767369,43.158941063809465,1.034492600341122,46.59888624432649,2,b,0.8546026999997594,correct,b
239,4F4K,240,2,41.39029849391767,53.66456984931524,1.1823924437031046,55.92857873141041,2,b,0.7809970000002977,correct,b
240,4F4K,241,2,49.83411272209416,62.66876500922363,1.4093435960950993,63.34810240205607,2,v,1.2674129000001813,incorrect,b
241,4F4K,242,1,57.82176500138136,37.47377860119158,1.6639971356132564,41.49321707461408,2,n,0.5815360999999939,correct,n
242,4F4K,243,1,42.78905272142258,60.194804382150345,1.2172888807300688,61.39045452607125,1,n,1.8863858999998229,incorrect,c
243,4F4K,244,2,66.8530565615818,46.84507227433127,2.0077667795955336,49.91337949897965,1,b,1.0548392999999123,incorrect,v
244,4F4K,245,1,43.9414985568741,52.19573695620102,1.2468128739713014,54.65336500172885,1,c,0.514756000000034,correct,c
245,4F4K,246,2,60.60098714876377,48.193260040082656,1.7629965047920984,51.11856311258585,1,b,2.506879300000037,incorrect,v
246,4F4K,247,1,41.69522152602837,54.79509684219563,1.1899134540001974,56.90001378292066,1,c,1.182332000000315,correct,c
247,4F4K,248,1,26.009552675381848,42.27639782058584,0.8587360007910343,45.80369911455751,1,c,0.63605570000027,correct,c
248,4F4K,249,1,41.60168325253307,46.82297650363218,1.1876012340640931,49.89358389723417,1,c,0.5019902999997612,correct,c
249,4F4K,250,1,55.1443470706567,60.774863127563776,1.573885307302834,61.855706120467225,1,n,1.0670382999996946,incorrect,c
250,4F4K,251,2,54.0521845954006,39.48134551066404,1.538543823754038,43.28938377267775,1,v,0.714913499999966,correct,v
251,4F4K,252,1,29.71947266237762,42.08463844355306,0.9276060790933428,45.630944026247306,1,c,0.45406580000008034,correct,c
252,4F4K,253,2,40.280205136450405,55.06782701846003,1.1554110153544583,57.13294014818344,2,v,0.6535374000000047,incorrect,b
253,4F4K,254,2,77.72942429582488,63.56570805571239,2.5173097162782385,64.03987776939118,1,b,0.7393012000002273,incorrect,v
254,4F4K,255,2,47.23490641542861,34.069901797135124,1.3351919784770738,38.48267241513268,1,v,0.7265981999998985,correct,v
255,4F4K,256,2,60.33039346306114,47.433707787923375,1.753104267036836,50.44025025731364,1,v,1.2732568999999785,correct,v
256,4F4K,257,1,48.80765888269016,62.400565419354855,1.379580619084284,63.13933038251663,1,n,0.7575255000001562,incorrect,c
257,4F4K,258,2,72.52447656488363,58.180337890563045,2.259078333380921,59.74716772775015,1,b,0.5576885000000402,incorrect,v
258,4F4K,259,2,69.04306299403532,52.762572307817145,2.1013141883800217,55.147125189760274,1,v,0.45403859999987617,correct,v
259,4F4K,260,2,57.69674748995833,40.79175476298656,1.6596769167207015,44.466903641956605,1,v,0.4843445999999858,correct,v
260,4F4K,261,1,48.12508334129179,30.43027517539181,1.3601374956861054,35.33674901176511,2,n,0.7210709000000861,correct,n
261,4F4K,262,1,46.3256322900702,24.66519439963496,1.3101835759729028,30.57955116724535,2,n,0.6535843000001478,correct,n
262,4F4K,263,1,29.578008320222786,38.66288500556503,0.924881379244381,42.555743653791126,1,n,1.3462517000002663,incorrect,c
263,4F4K,264,2,27.02659886151792,41.70440034190264,0.8770907128709322,45.28844853863856,2,v,0.5936360000000604,incorrect,b
264,4F4K,265,2,47.279177119017184,35.90098625340808,1.336421699993657,40.09561008633961,1,b,0.5997105999999803,incorrect,v
265,4F4K,266,1,63.44319341962333,43.36345706142521,1.870333839586372,46.78315330126573,2,n,0.8063274000001002,correct,n
266,4F4K,267,1,43.83853228012352,57.1225000808904,1.2441461494980444,58.86826796171853,1,n,0.8063480000000709,incorrect,c
267,4F4K,268,1,48.1002499299519,31.11437819104882,1.35943530707384,35.92094791430169,2,c,0.7029898999999205,incorrect,n
268,4F4K,269,2,45.91779334230697,61.91982110507949,1.2991191907108353,62.76294967703544,2,b,1.3826262000002316,correct,b
269,4F4K,270,1,46.51375676668634,30.919303596624907,1.3153189716949991,35.75399513186051,2,c,1.188430000000153,incorrect,n
270,4F4K,271,2,60.29489313843804,75.56223330640022,1.7518105881307842,72.17316505628409,2,b,0.9517364999996971,correct,b
271,4F4K,272,2,77.78229021081768,57.64375188117352,2.5200785562530896,59.30265302881987,1,b,0.4242244000001847,incorrect,v
272,4F4K,273,1,43.35857427302295,53.47268720119888,1.231790774447007,55.76279572869095,1,c,0.3933662999997978,correct,c
273,4F4K,274,2,77.75917231166974,67.4684405830585,2.5188673871710554,66.92646084358323,1,b,0.8549287999999251,incorrect,v
274,4F4K,275,2,42.376767814057686,48.249115356743935,1.2068973988256224,51.16836892225751,2,v,2.2337781999999606,incorrect,b
275,4F4K,276,1,48.7357153999849,33.49349771449395,1.3775182782476505,37.978682676166834,2,n,0.7468849000001683,correct,n
276,4F4K,277,2,43.792261259479645,27.90449115133852,1.2429496341409374,33.213414882121015,1,b,0.7575114999999641,incorrect,v
277,4F4K,278,2,35.22141612225968,49.97742121528345,1.0400425001573712,52.70354318474792,2,v,1.223860699999932,incorrect,b
278,4F4K,279,1,76.71175693407335,57.5619915165378,2.4645986147910657,59.23468356213725,2,n,0.5865926000001309,correct,n
279,4F4K,280,2,67.12978744747903,58.14296117621427,2.019353693419584,59.71629333130525,1,b,0.9031636999998227,incorrect,v
280,4F4K,281,2,46.210280295998494,60.8762731276734,1.3070446345502744,61.936663036896014,2,b,1.716154899999765,correct,b
281,4F4K,282,2,30.814138256829523,45.9667434914187,0.9489632662831878,49.12558320242135,2,b,0.5208293999999114,correct,b
282,4F4K,283,2,30.16184617471689,48.21015999642019,0.9361784008520924,51.1336338344761,2,b,0.5808526999999231,correct,b
283,4F4K,284,2,66.126797405678,54.35232005342128,1.977673027382496,56.52065712779571,1,v,1.0306148999998186,correct,v
284,4F4K,285,2,50.53724490180041,42.58237544310562,1.4301013043258954,46.079379779687685,1,v,0.9031614999998965,correct,v
285,4F4K,286,2,46.17107799079473,68.05243415526868,1.3059795802851786,67.33994390387876,2,v,2.1905571000002055,incorrect,b
286,4F4K,287,2,55.64956972739281,44.91387702258119,1.5905074084238808,48.17922153562735,1,b,0.7104490000001533,incorrect,v
287,4F4K,288,1,35.95359211231477,57.20464748148421,1.0559984838655443,58.93689035890196,1,c,0.5770978000000468,correct,c
288,4F4K,289,2,30.66504782839024,47.13221829333108,0.9460258003164188,50.170516018623104,2,b,0.6111507000000529,correct,b
289,4F4K,290,2,62.67060532443281,54.18855722569526,1.840526037998272,56.3799827925001,1,v,0.5876032999999552,correct,v
290,4F4K,291,2,49.71324970415723,36.13812421382697,1.4058059743079554,40.30568290919716,1,v,0.6178709999999228,correct,v
291,4F4K,292,1,33.94413411371961,48.10011528900792,1.0127822485633329,51.03548259883069,1,c,0.4958513000001403,correct,c
292,4F4K,293,2,65.03149273042808,56.37308719658506,1.933138203277012,58.23947073177711,1,v,1.0063920000002327,correct,v
293,4F4K,294,2,55.32118243133442,41.66636708600982,1.5796834332560854,45.254195862413695,1,v,2.840518399999837,correct,v
294,4F4K,295,2,37.6781074782525,52.37874776749722,1.0945540701618073,54.81299895414063,2,b,0.5996983,correct,b
295,4F4K,296,2,46.40629985827008,33.02861037378126,1.3123831679803042,37.573651873966426,1,b,0.5997093000000859,incorrect,v
296,4F4K,297,1,73.00967372423878,53.85802424917711,2.2819864286826204,56.095461663038826,2,n,0.5510085999999319,correct,n
297,4F4K,298,2,51.38023530373403,36.18518274040411,1.455391267084646,40.34739987945032,1,v,1.3338889000001473,correct,v
298,4F4K,299,2,28.91738639737374,38.01217443964818,0.9122629254157996,41.97375419449135,2,b,0.5815124000000651,correct,b
299,4F4K,300,1,69.09173716531475,54.900228920984354,2.103442112214484,56.989870075681125,2,n,0.5275232000003598,correct,n
300,4F4K,301,2,39.46178994889181,59.10127141236158,1.135914067609434,60.5035563982647,2,b,0.8120905999999195,correct,b
301,4F4K,302,2,59.0482027098404,46.84674813838242,1.706979912810464,49.91488085410402,1,v,0.5808117000001403,correct,v
302,4F4K,303,1,49.89882623839923,34.957169862703154,1.411241397850956,39.26210518954866,2,c,1.5768004999999903,incorrect,n
303,4F4K,304,2,54.50766229050428,66.970112980393,1.5531852037156693,66.56968179078036,2,v,0.7029003000002376,incorrect,b
304,4F4K,305,2,47.432706111943546,33.82374279534111,1.3406951051793867,38.2672015615556,1,b,0.6907787000000098,incorrect,v
305,4F4K,306,2,53.44608345398855,45.27640689707612,1.51927444363753,48.5052848875341,1,v,0.6484252000000197,correct,v
306,4F4K,307,2,49.93623398577637,66.69183648340115,1.4123395904279268,66.36888989125653,2,v,0.6300621999998839,incorrect,b
307,4F4K,308,2,46.76201416182732,43.43206153092523,1.3221266883298732,46.844962492140965,1,b,0.4963680999999269,incorrect,v
308,4F4K,309,2,46.741765308528215,32.73548178220553,1.321570106797425,37.318962529421405,1,v,0.9459098000002086,correct,v
309,4F4K,310,2,60.67034106767595,45.49351884919675,1.7655408871474298,48.70046066884639,1,b,0.8667641000001822,incorrect,v
310,4F4K,311,1,64.0894326381734,51.398209274474254,1.8956373331364356,53.95541079149723,2,n,0.7273079000001417,correct,n
311,4F4K,312,1,46.66795092152008,27.61792446071512,1.3195431491361915,32.97612965661438,2,c,1.0488028999998278,incorrect,n
312,4F4K,313,1,26.53263027405042,42.5233124569398,0.8681275357382372,46.0261631446895,1,c,0.4661977000000661,correct,c
313,4F4K,314,2,54.353921884912445,37.700106418260965,1.5482276895857825,41.69510503918155,1,v,2.5795514999999796,correct,v
314,4F4K,315,2,52.47843588939293,62.82613341459453,1.489009622017642,63.47019399467657,2,v,0.9153119999996306,incorrect,b
315,4F4K,316,2,50.792192075026776,38.34720437797492,1.4377030866468248,42.27324672801955,1,b,0.8060395000002245,incorrect,v
316,4F4K,317,2,55.16445397419015,71.5937492676813,1.574543504132487,69.73509852582357,2,v,1.8134852000002866,incorrect,b
317,4F4K,318,1,55.57401255301051,49.67366622215282,1.5880104173471643,52.43463424164473,2,n,0.8561513999998169,correct,n
318,4F4K,319,1,50.287442553690376,70.81829578441037,1.4226919126491144,69.2276297801388,1,n,0.61942850000014,incorrect,c
319,4F4K,320,2,54.78064113549336,67.98258822578359,1.5620268300680056,67.29075698770835,2,b,2.336180499999955,correct,b
320,4F4K,321,2,48.709406347111816,32.02273867773962,1.3767648697610264,36.70204462882034,1,v,2.1728988999998364,correct,v
321,4F4K,322,1,55.529698270454986,66.53173216055238,1.5865477562793024,66.25286475317948,1,n,0.9638905000001614,incorrect,c
322,4F4K,323,1,54.647635299111485,67.02413379624949,1.55771257854846,66.60853194537127,1,c,0.6542002999999568,correct,c
323,4F4K,324,1,38.11151575097745,26.485497354555424,1.104463293934945,32.04629185956086,2,c,1.1877338999997846,incorrect,n
324,4F4K,325,1,57.46632395891792,43.34628500442589,1.6517435588321516,46.76768188688644,2,n,4.805438099999719,correct,n
325,4F4K,326,1,55.56412933214527,41.82661704178088,1.587684089649212,45.39852383336961,2,n,2.3490311000000474,correct,n
326,4F4K,327,2,51.65049955456227,41.46251293376464,1.463593574078111,45.07062521642722,1,b,0.5552257999997892,incorrect,v
327,4F4K,328,2,48.73689142707842,67.05338588302509,1.3775519655879336,66.62955161419825,2,v,1.8529248999998345,incorrect,b
328,4F4K,329,2,39.74950180278674,29.496389285502765,1.142730384074126,34.545263728940434,1,v,2.974172600000202,correct,v
329,4F4K,330,2,54.4354700767601,41.51849592025697,1.5508553192791923,45.12103436504333,1,b,0.666696800000409,incorrect,v
330,4F4K,331,2,40.55899212781636,30.7313361699399,1.1621286314587758,35.59339915075477,1,v,0.9820666999999048,correct,v
331,4F4K,332,2,53.530093453855386,67.63203225380464,1.5219308427741074,67.04279539685973,2,b,0.5995788000000175,correct,b
332,4F4K,333,2,60.07293493616937,52.8446890963228,1.743743752541219,55.21848883737432,1,b,0.6543640999998388,incorrect,v
333,4F4K,334,1,31.687101504562545,50.71860786396289,0.9663468719599196,53.357883635446825,1,c,0.5633247999999185,correct,c
334,4F4K,335,1,42.55633724715922,58.03581470872701,1.2114124280709182,59.627712406147296,1,c,0.5754363000000922,correct,c
335,4F4K,336,2,61.535450112210526,49.609250655089056,1.7975893762945756,52.377555368414505,1,b,1.704118699999981,incorrect,v
336,4F4K,337,1,57.78047527169665,51.6740241356581,1.6625690478383397,54.19720176847432,2,n,0.5815360000001419,correct,n
337,4F4K,338,2,66.46348728167206,53.24502287031301,1.9915678324112749,55.56577344559984,1,v,0.7088048999999046,correct,v
338,4F4K,339,2,34.39947184746803,46.17455697647459,1.022417301724331,49.31213388772635,2,b,0.8719501999999011,correct,b
339,4F4K,340,2,47.08642187005132,61.1890370794399,1.331075731906435,62.185619051459256,2,b,0.7336836999998013,correct,b
340,4F4K,341,1,64.07150891132395,51.86738445727653,1.8949309353094264,54.36645276889723,2,n,0.6118562000001475,correct,n
341,4F4K,342,2,70.33211069989605,54.26561078630623,2.1584015972221757,56.44619714456688,1,v,0.769709199999852,correct,v
342,4F4K,343,1,49.25467339989362,61.35885581242813,1.3924641665858006,62.320327843700376,1,c,1.8984910999997737,correct,c
343,4F4K,344,1,54.10480420983032,46.78037990409639,1.540228210716798,49.85541805695655,2,n,0.7467953999998826,correct,n
344,4F4K,345,2,65.60341921893094,58.96280510924253,1.956266033753924,60.39037064319584,1,b,0.750474899999972,incorrect,v
345,4F4K,346,2,47.60733086997429,33.632875142465224,1.3455723134866373,38.1003710711959,1,b,0.836526000000049,incorrect,v
346,4F4K,347,2,61.221953795859946,44.48627972618414,1.7859090535606408,47.79441203511066,1,v,0.4238842999998269,correct,v
347,4F4K,348,1,32.614102113861264,48.27815993025026,0.985155292616076,51.19426346748149,1,c,0.46669329999986076,correct,c
348,4F4K,349,1,39.95940611298703,45.49857858608746,1.1477291178139786,48.70500825058682,1,c,0.4965457000002971,correct,c
349,4F4K,350,2,45.110694016957375,26.65846826755678,1.2774978122486618,32.18748843291721,1,b,0.6729110999999648,incorrect,v
350,4F4K,351,2,62.645883206902,44.12522930347903,1.8395800998905865,47.469337275001415,1,b,0.7696012999999766,incorrect,v
351,4F4K,352,2,58.924742009282994,45.8442526108757,1.702603215603093,49.015583897773176,1,v,0.6965738000003512,correct,v
352,4F4K,353,2,57.9903384863706,48.62972872607329,1.6698403250024614,51.50746299018084,1,b,1.6314385000000584,incorrect,v
353,4F4K,354,2,43.24376994428119,55.5039625635936,1.228853641287362,57.50421506196223,2,v,0.9033905999999661,incorrect,b
354,4F4K,355,1,46.16336555545241,30.475145750620776,1.3057701498410113,35.37495542992704,2,c,0.38127209999993283,incorrect,n
355,4F4K,356,2,37.304488374490575,53.02766986043567,1.0860832191314098,55.37735233250428,2,b,0.6486697000000277,correct,b
356,4F4K,357,2,67.01735351714035,51.27957278502974,2.014637963648233,53.85127942939095,1,v,0.672545099999752,correct,v
357,4F4K,358,1,43.814514573661455,67.69573185786122,1.2435249355447202,67.08798756276134,1,c,0.5990593000001354,correct,c
358,4F4K,359,1,42.30846931936711,57.67498488371916,1.205184546834049,59.32860136866114,1,c,0.5329761000002691,correct,c
359,4F4K,360,2,60.38142716606959,68.90430525484425,1.754965676875105,67.93394739817235,2,b,0.903170599999612,correct,b
360,4F4K,361,2,78.09940901814154,59.12904443496471,2.536751624009308,60.52623529183547,1,v,1.7464992000000166,correct,v
361,4F4K,362,1,52.9515356018908,36.222199480929305,1.5037305406932566,40.38022161785313,2,n,0.7271792000001369,correct,n
362,4F4K,363,2,41.07317880244723,53.259479365003145,1.1746210229913452,55.57829454078296,2,b,0.5875863000001118,correct,b
363,4F4K,364,2,48.16373451549336,32.95558983313352,1.361231116482451,37.51015548643203,1,b,0.6604001000000608,incorrect,v
364,4F4K,365,1,39.64297556950635,19.98141967155936,1.1402018655682769,26.985367991352994,2,c,0.5444937999996,incorrect,n
365,4F4K,366,1,37.632080227076926,21.72942698422224,1.0935069629331622,28.29423012435212,2,c,1.0731143000002703,incorrect,n
366,4F4K,367,1,32.32448422732364,41.13333057191875,0.979240089093185,44.77427859143565,1,c,0.4904661999999007,correct,c
367,4F4K,368,2,50.11767355401658,32.21754190387283,1.4176783134733195,36.87031679537058,1,v,1.576819500000056,correct,v
368,4F4K,369,2,53.94298642672319,65.46329075869566,1.535054197172432,65.46937486427024,2,b,0.6422681999997621,correct,b
369,4F4K,370,2,65.58598391895205,49.54872563663852,1.955556904620101,52.3239073999435,1,b,0.6415908000003583,incorrect,v
370,4F4K,371,1,53.514792033168206,71.91248002613592,1.5214466656141423,69.94081956666562,1,n,0.6238751999999295,incorrect,c
371,4F4K,372,1,43.67795775689684,30.86368949037412,1.2399988070925403,35.7064512216982,2,c,0.8899692999998479,incorrect,n
372,4F4K,373,2,54.19338157431638,36.74495890787332,1.543067793744234,40.8443514358019,1,b,1.012380299999677,incorrect,v
373,4F4K,374,2,64.31542629440806,44.74793318057829,1.9045666673854933,48.029909244112496,1,b,0.6482495999998719,incorrect,v
374,4F4K,375,2,54.84388867208689,40.27997956299493,1.5640825523459894,44.00667245153454,1,b,2.2216301000003114,incorrect,v
375,4F4K,376,1,63.01407839967438,49.31976863076536,1.8537187243862567,52.120822899000416,2,n,0.7531951999999364,correct,n
376,4F4K,377,2,50.86560804581734,66.77023794885955,1.4398996210770223,66.42557305424688,2,b,0.625507799999923,correct,b
377,4F4K,378,2,63.15606773195995,53.1925375798171,1.8592000748782205,55.520303064816936,1,b,0.1277724000001399,incorrect,v
378,4F4K,379,1,33.73639886771076,46.661299372982754,1.008416735374254,49.74869950658376,1,c,0.8789170000000013,correct,c
379,4F4K,380,2,48.95434154953783,58.29129976026535,1.3837950127860417,59.83874637327897,2,b,0.5693452000000434,correct,b
380,4F4K,381,2,28.601978644295755,47.376368029667205,0.9062992269566428,50.38897023944546,2,b,0.47833159999981945,correct,b
381,4F4K,382,2,34.93227502854167,46.461289160935536,1.0338079851615858,49.56937438947129,2,b,0.44864370000004783,correct,b
382,4F4K,383,2,46.24410191651669,66.52556155396334,1.307964203451723,66.24838572280989,2,b,0.4904867000000195,correct,b
383,4F4K,384,2,41.43755839882579,58.45858887749044,1.1835550016843674,59.97658652887209,2,b,0.5693497000002026,correct,b
384,4F4K,385,2,60.02090998855865,47.890662540841376,1.7418583411047568,50.84855408903556,1,v,0.7872511000000486,correct,v
385,4F4K,386,1,44.73848304986802,61.78372093118567,1.2676482613177271,62.65589837919499,1,c,0.43603239999993093,correct,c
386,4F4K,387,2,64.54259863426176,55.147549390921405,1.9135849644185812,57.20091856076043,1,v,0.7877371999998104,correct,v
387,4F4K,388,1,56.82347159102036,68.72269226406024,1.6298104066719348,67.80823184555267,1,n,0.5693845999999212,incorrect,c
388,4F4K,389,2,51.51976059200128,69.0681704737708,1.4596199934224166,68.04694450927194,2,b,2.579562399999759,correct,b
389,4F4K,390,1,47.41364124600375,51.736145185164304,1.3401637016779022,54.25160056455652,1,c,0.8151479999996809,correct,c
390,4F4K,391,2,65.0988672645058,46.59804134753468,1.93584845516781,49.69199408853316,1,b,0.49589160000004995,incorrect,v
391,4F4K,392,1,67.96717706057585,54.51794055310137,2.054824687201353,56.66272682389341,2,n,0.6118136999998569,correct,n
392,4F4K,393,2,44.57480971883904,27.06324414741319,1.2633411653068416,32.519090287832235,1,b,0.5990194000000884,incorrect,v
393,4F4K,394,1,48.93618351015949,56.57495703946678,1.383272610051884,58.409334643476726,1,c,0.9395853000000898,correct,c
394,4F4K,395,1,37.26805751088073,51.97473207191775,1.085260759114257,54.46032229939381,1,c,0.5754428000000189,correct,c
395,4F4K,396,1,31.37432266549446,48.09409788603056,0.9600820958818608,51.0301143523152,1,c,0.757496700000047,correct,c
396,4F4K,397,1,35.64497684359125,46.735883915189696,1.0492433396090777,49.8155454555724,1,c,0.3933521999997538,correct,c
397,4F4K,398,1,61.00233119787757,46.18866368066436,1.7777715393145506,49.32479392825988,2,n,0.5511452999999165,correct,n
398,4F4K,399,1,31.253801950690093,47.950137403338005,0.9576789911766556,50.90164794071031,1,c,0.660379599999942,correct,c
399,4F4K,400,1,38.62027462892184,51.522894811302265,1.116209816143152,54.06476807538707,1,c,0.42979719999993904,correct,c
