,condition,trial,sub_task,x,y,xt,yt,cat,resp,rt,acc,correct_resp
0,2F4K,1,2,54.28944609964186,42.13783968450024,1.546153315483629,45.78141181001787,1,b,3.9157646000003297,incorrect,v
1,2F4K,2,2,73.28779473500599,60.738002076749,2.295222223280137,61.96406010696981,1,b,2.57363179999993,incorrect,v
2,2F4K,3,2,26.89322121320721,42.42319869465968,0.8746614631411074,46.03906317405205,2,v,3.0096738000002006,incorrect,b
3,2F4K,4,2,53.08869580017046,68.48914777532339,1.508025552159163,67.7963506884261,2,b,3.405046500000026,correct,b
4,2F4K,5,2,56.075831707444486,69.94340481889428,1.6046681238881684,68.7961394596332,2,b,1.2734617000005528,correct,b
5,2F4K,6,1,51.15293288767991,58.734553817332994,1.4485284161793996,60.33763465700799,1,c,5.0,correct,c
6,2F4K,7,1,39.20846578896344,53.45787379714249,1.1299461140559883,55.87452422773591,1,c,1.223949100000027,correct,c
7,2F4K,8,2,55.95479751385452,63.01113748316146,1.6006345165991762,63.75504995828688,2,b,4.0716818999999305,correct,b
8,2F4K,9,1,44.55355945359816,30.233214256657423,1.262783034791848,35.24873092067118,2,c,2.616135799999938,incorrect,n
9,2F4K,10,2,50.69641687057616,41.41063060957372,1.434842621817585,45.12502117073488,1,b,2.293038499999966,incorrect,v
10,2F4K,11,1,29.877826848119376,46.98226271994403,0.9306656116998308,50.148317701316415,1,n,2.1353165999998964,incorrect,c
11,2F4K,12,2,38.79722276556949,24.936210906506982,1.120324512502558,30.86567294486799,1,b,2.519017399999939,incorrect,v
12,2F4K,13,1,27.726415466063145,36.1970820401709,0.8899477023918982,40.44886907057752,1,n,2.688956799999687,incorrect,c
13,2F4K,14,2,37.27332831998236,51.52371443911032,1.085379713895681,54.18634494016434,2,v,4.407731400000557,incorrect,b
14,2F4K,15,2,33.1593060867678,47.28336694855339,0.996387745087903,50.4184236992744,2,b,1.5526123999998163,correct,b
15,2F4K,16,2,52.638425994471234,33.66739840407567,1.4939716587076446,38.21658477761876,1,b,1.73373680000077,incorrect,v
16,2F4K,17,2,59.26860849530264,72.88219037615131,1.714821314968337,70.71315770157278,2,v,3.5265627999997378,incorrect,b
17,2F4K,18,2,55.35126491698458,73.17448232454731,1.5806719097371882,70.89595357674405,2,b,1.4009321000003183,correct,b
18,2F4K,19,2,45.88740351533097,32.13027665794174,1.2982984863804623,36.87804118093025,1,b,1.7350161000003936,incorrect,v
19,2F4K,20,1,61.78933789844744,43.82336640852303,1.8071047519696213,47.30332612736007,2,n,2.414455599999201,correct,n
20,2F4K,21,2,64.84456867193693,49.30926303262326,1.9256387250539893,52.22808961618363,1,b,2.597905100000389,incorrect,v
21,2F4K,22,1,60.58961305929154,47.7858217628666,1.7625795745007664,50.86856109333911,2,n,2.004121299999497,correct,n
22,2F4K,23,2,70.52625694885293,57.997933815597726,2.1671330181659294,59.72930744652788,1,v,3.690298000000439,correct,v
23,2F4K,24,1,55.87236101156925,43.16413366633409,1.597893029126518,46.70812522513087,2,n,1.4251942000000781,correct,n
24,2F4K,25,2,50.032786205817104,36.87189358730426,1.4151780594756926,41.04944458229069,1,v,1.7579397999998037,correct,v
25,2F4K,26,1,64.2142647269501,57.17266116708581,1.9005644402234327,59.041617402113815,2,n,1.6680736000007528,correct,n
26,2F4K,27,1,22.269753128716196,40.90169152674992,0.7944853894648508,44.6659265595826,1,c,4.782748699999502,correct,c
27,2F4K,28,2,51.3780043518364,68.9647649900938,1.4553237510988546,68.12692701560276,2,v,2.080641900000046,incorrect,b
28,2F4K,29,1,55.58528838247607,36.84632528749688,1.588382808606081,41.02665554274256,2,n,1.6255435999992187,correct,n
29,2F4K,30,2,46.26797428959155,64.90170251209098,1.308613653817896,65.19613027556997,2,b,2.653539500000079,correct,b
30,2F4K,31,1,37.32193745743572,50.81646476331717,1.0864773688485645,53.56357270412666,1,c,1.6885748000004241,correct,c
31,2F4K,32,1,33.84738204201069,44.66759103131008,1.0107466775226033,48.06512473199772,1,c,1.6257191999993665,correct,c
32,2F4K,33,1,45.59294652749118,55.29849479590518,1.290373213870566,57.45747879414875,1,n,3.6113984000003256,incorrect,c
33,2F4K,34,1,48.70569640596733,63.59134316930037,1.3766586618762655,64.20218799209759,1,c,1.8855355000005147,correct,c
34,2F4K,35,1,40.6712276706234,50.892407517819386,1.1648440590134093,53.63057187576251,1,c,1.4801939999997558,correct,c
35,2F4K,36,2,52.61060123632191,44.54598307844743,1.4931074973594445,47.95543267319672,1,b,2.434044599999652,incorrect,v
36,2F4K,37,2,47.13220226402828,57.3090243419053,1.3323434881045944,59.15568230515697,2,v,1.3037870999996812,incorrect,b
37,2F4K,38,2,32.87570022427598,47.97857154564191,0.9905289228888616,51.041030715274765,2,v,3.3251516000000265,incorrect,b
38,2F4K,39,1,37.6346147714263,24.046057186969524,1.0935645970454204,30.15751508980604,2,c,2.0078112999999576,incorrect,n
39,2F4K,40,2,35.232220197815046,52.68371682259657,1.040276186967924,55.20162637008411,2,v,3.514337599999635,incorrect,b
40,2F4K,41,1,61.31070955558786,55.18221226803726,1.7892082139874657,57.35823074193775,2,n,3.6535667999996804,correct,n
41,2F4K,42,1,50.56026477493657,39.04543495006066,1.430786035961891,42.99491061155384,2,n,1.327154800000244,correct,n
42,2F4K,43,2,48.133136110500914,30.924435703899118,1.3603652733549103,35.83925667463714,1,b,1.5708910000003016,incorrect,v
43,2F4K,44,2,71.20992301646345,57.44848274733551,2.198161964412768,59.27216024998636,1,v,1.5405139000004056,correct,v
44,2F4K,45,1,38.98342107683936,49.65722043984805,1.124670688733962,52.53732774260392,1,c,1.8803502999999182,correct,c
45,2F4K,46,2,48.60286028922539,67.23591013285188,1.37371793705347,66.90901483564774,2,b,2.267814400000134,correct,b
46,2F4K,47,1,44.09542364212756,54.638136093493735,1.250810044005125,56.892459024040335,1,n,2.5190098000002763,incorrect,c
47,2F4K,48,1,56.94780394241963,39.5127092896549,1.634029600595278,43.41491190859452,2,n,1.3644469000000754,correct,n
48,2F4K,49,2,43.07042951870907,62.635949256146056,1.2244321959513866,63.46368208936975,2,b,3.192668599999706,correct,b
49,2F4K,50,1,43.30384155606279,64.74974337048072,1.2303896279326514,65.08202125853069,1,n,2.1376918999994814,incorrect,c
50,2F4K,51,2,55.25288492541839,40.86856575519535,1.5774415485912223,44.63605558590943,1,b,1.8318193000004612,incorrect,v
51,2F4K,52,2,27.394843769789738,42.30308801040438,0.8838327607336223,45.93061125009793,2,b,1.449489700000413,correct,b
52,2F4K,53,1,62.79317312466237,50.6709085027938,1.84522301722684,53.43507546436455,2,n,1.5041317999994135,correct,n
53,2F4K,54,2,41.44251971514005,52.95967259568583,1.1836771125979522,55.44193727313769,2,v,2.4590958999997383,incorrect,b
54,2F4K,55,2,45.100876197787024,55.682746669134026,1.27723703026861,57.7846717571749,2,v,2.0987984000003053,incorrect,b
55,2F4K,56,1,52.67313292484416,61.51003348707944,1.495050262656485,62.57912108322494,1,n,5.0,incorrect,c
56,2F4K,57,2,51.77966897387455,39.59587968325784,1.467530074529677,43.489719949001504,1,b,3.495689599999423,incorrect,v
57,2F4K,58,1,64.52754994892847,54.57736458521017,1.9129862426108049,56.84029349955423,2,n,2.147256400000515,correct,n
58,2F4K,59,1,44.14589077454404,61.03845161976159,1.2521233762462771,62.20422521213831,1,c,1.2431550999999672,correct,c
59,2F4K,60,1,29.938694219774057,53.52068874816322,0.931844302256004,55.92894791376929,1,c,0.9760256999998091,correct,c
60,2F4K,61,1,35.75833604627957,49.00769652343643,1.0517195736401022,51.95966916626769,1,c,0.8615664999997534,correct,c
61,2F4K,62,2,60.0396549259027,54.130832709038174,1.7425374324349978,56.45615531555495,1,v,3.150203799999872,correct,v
62,2F4K,63,1,57.22837375534517,46.50951799298762,1.6435908598168805,49.72375674513172,2,n,1.9598691999999573,correct,n
63,2F4K,64,1,55.400994714147785,39.9623444416385,1.5823073312671518,43.819508647433736,2,n,1.1887984000004508,correct,n
64,2F4K,65,2,56.16670348536495,40.44572517585531,1.607703212380882,44.254894760757054,1,v,1.0671375000001717,correct,v
65,2F4K,66,2,50.134297551564416,31.123089703173186,1.4181684701748931,36.009654603922925,1,b,3.5871672000002945,incorrect,v
66,2F4K,67,1,25.60900146341894,34.716149624648146,0.8516130979153207,39.13802416626332,1,c,2.0260490000000573,correct,c
67,2F4K,68,1,57.24185009473114,41.99522784269342,1.6440515120979025,45.65266060210649,2,n,3.30277439999918,correct,n
68,2F4K,69,2,48.5309902075424,63.1585665079676,1.3716664539806327,63.86906624172653,2,v,1.3948751999996603,incorrect,b
69,2F4K,70,2,74.27143743837436,52.3637418504115,2.342652754734232,54.922379866903086,1,b,4.139420399999835,incorrect,v
70,2F4K,71,2,55.98529090887677,40.585660664641615,1.6016497885130243,44.381007974518354,1,b,1.0003659000003609,incorrect,v
71,2F4K,72,2,49.20577561550601,65.93601245034438,1.3910490274287013,65.96450781234371,2,v,1.8939197999998214,incorrect,b
72,2F4K,73,1,59.898997476616856,49.111595956976736,1.737448149537255,52.05219060743844,2,n,2.8154426000000967,correct,n
73,2F4K,74,1,42.7231831491629,63.14313015050103,1.2156226780940802,63.85714099501557,1,c,3.2298320999998396,correct,c
74,2F4K,75,2,45.30766574291084,28.60229038701705,1.2827410613463808,33.87100594118802,1,b,2.098852699999952,incorrect,v
75,2F4K,76,2,49.619874026135605,58.32585452394432,1.4030789795459293,60.00077074307213,2,v,1.7553791000000274,incorrect,b
76,2F4K,77,1,36.9833145033104,51.61897429752302,1.07885384687173,54.27001747966803,1,c,3.441757200000211,correct,c
77,2F4K,78,2,54.7781176881868,43.24659476640928,1.5619448670293223,46.78258541135118,1,b,5.0,correct,v
78,2F4K,79,1,31.58219972953994,42.15470747211445,0.9642412082845532,45.79664086332621,1,n,1.5840674000000945,incorrect,c
79,2F4K,80,2,66.72600806155178,51.57662837012362,2.002469462540829,54.23282877633203,1,b,0.9887085999998817,incorrect,v
80,2F4K,81,1,44.90115678303057,60.01961482238833,1.2719436025043642,61.385767695027965,1,n,1.6023470999998608,incorrect,c
81,2F4K,82,2,38.46688111263188,53.82351365511417,1.1126550822126409,56.19093743475783,2,v,1.776357900000221,incorrect,b
82,2F4K,83,1,48.7324372744587,59.19001599148917,1.377424380567334,60.71107400049733,1,c,2.446168800000123,correct,c
83,2F4K,84,2,45.40392864615573,56.67244264752944,1.2853113352764087,58.62176233168326,2,b,1.8075420999994094,correct,b
84,2F4K,85,1,46.19811868462368,62.366474235018565,1.306714133121113,63.25334978975017,1,n,3.9034590000001117,incorrect,c
85,2F4K,86,2,45.87792169931268,59.64903394006375,1.2980425276327214,61.08527609434252,2,v,2.0213341999997283,incorrect,b
86,2F4K,87,2,55.44905492972623,45.15295212895062,1.5838894544786646,48.50274152108378,1,b,1.6193987000006018,incorrect,v
87,2F4K,88,2,50.64630520582459,66.67024302032695,1.4333482331752576,66.50095963198733,2,v,1.3463603999998668,incorrect,b
88,2F4K,89,2,70.38991989199835,56.02191188905421,2.1609977899565385,58.072471211804256,1,b,1.8563168999999107,incorrect,v
89,2F4K,90,2,59.086786691687706,44.910745453099565,1.7083500258719853,48.28439983165808,1,b,1.469121900000573,incorrect,v
90,2F4K,91,1,49.5866647149084,27.45463697820354,1.4021103922780969,32.9157760571699,2,c,1.5647739999994883,incorrect,n
91,2F4K,92,1,44.29469808810894,56.24976096615509,1.2560038988810618,58.26527311214766,1,n,3.204493199999888,incorrect,c
92,2F4K,93,2,44.95724936711154,29.160967737359705,1.2734280790031547,34.34037392075573,1,v,2.7374820000004547,correct,v
93,2F4K,94,2,64.28180545443745,44.88482018613348,1.903235601201695,48.26102420008658,1,b,1.3524833000001308,incorrect,v
94,2F4K,95,1,47.71122675359344,65.84659537712683,1.3484825033282928,65.89866060680896,1,n,2.7557043999995585,incorrect,c
95,2F4K,96,1,50.51917814996059,66.83394338589471,1.4295641339910663,66.61952180150725,1,n,3.5811029000005874,incorrect,c
96,2F4K,97,2,36.28274922041064,51.24759163008457,1.0632511951374612,53.94352442153414,2,v,2.409770999999637,incorrect,b
97,2F4K,98,2,42.52003356706111,25.911490568784096,1.2104982612072823,31.651690493170747,1,b,2.337078399999882,incorrect,v
98,2F4K,99,1,33.35275048192414,49.43028757347416,1.0004038497793806,52.33570591253342,1,c,3.8488474000005226,correct,c
99,2F4K,100,1,73.86965978065075,59.089089256302586,2.3231620530870702,60.62850443114877,2,n,2.3074928000005457,correct,n
100,2F4K,101,1,60.82871866008516,42.67499704658773,1.7713650508638137,46.26643218659507,2,n,0.9396606000000247,correct,n
101,2F4K,102,1,24.19063725480832,40.50756265979832,0.8268623686105456,44.31062048996359,1,c,0.8001150000000052,correct,c
102,2F4K,103,1,47.3336112939988,61.05858858197471,1.33793528806926,62.22028541287096,1,n,1.0685418000002755,incorrect,c
103,2F4K,104,2,46.34975761994731,31.870658757650094,1.3108410234579115,36.65350744692724,1,v,2.4644164000001183,correct,v
104,2F4K,105,1,40.55130251709117,57.06227098352462,1.161942820831224,58.94915472738378,1,c,2.0017679000002317,correct,c
105,2F4K,106,2,37.58198450457252,51.9694780883,1.0923684375225466,54.57744018027778,2,v,3.1366165999997975,incorrect,b
106,2F4K,107,1,29.55312627866369,37.70964736943536,0.9244029624530906,41.79747771450804,1,c,2.249494699999559,correct,c
107,2F4K,108,2,43.63580745767223,32.28999258114272,1.2389124356732528,37.01640480374738,1,b,2.312653400000272,incorrect,v
108,2F4K,109,2,31.509195791881822,47.947391337228034,0.9627785290858786,51.01313939977898,2,b,1.570980899999995,correct,b
109,2F4K,110,2,71.92589831359332,52.04713525642053,2.231133669347039,54.645455585788014,1,b,2.561525199999778,incorrect,v
110,2F4K,111,2,56.53804156436827,41.90813807019268,1.620165561666171,45.57404070651241,1,v,2.7010410000002594,correct,v
111,2F4K,112,2,43.96571925798256,32.925270812288844,1.2474409960742303,37.56844249261457,1,v,1.546570900000006,correct,v
112,2F4K,113,2,45.10665014411356,60.77317178508393,1.2773903920101917,61.992225360403744,2,b,1.0671760000004724,correct,b
113,2F4K,114,1,56.32401633850324,73.80374391248048,1.612970988814441,71.28450556714694,1,n,3.308008500000142,incorrect,c
114,2F4K,115,2,52.67308391041343,59.73816284728485,1.495048738862513,61.15768079083816,2,v,4.4003843999998935,incorrect,b
115,2F4K,116,1,35.64262920020273,24.377224265395963,1.0491921190324125,30.419915449497623,2,c,1.705860400000347,incorrect,n
116,2F4K,117,2,56.792144934247375,35.909686129006204,1.6287490620958167,40.193675488945445,1,b,1.710391399999935,incorrect,v
117,2F4K,118,1,24.60942603211684,41.923242350851694,0.8340945176917752,45.58767570243903,1,c,1.8099639000001844,correct,c
118,2F4K,119,2,55.62827456263089,41.552979340144304,1.5898032550524477,45.25347600566931,1,v,1.4130216999992626,correct,v
119,2F4K,120,1,42.34087560542648,31.637841709414204,1.205996957971688,36.45255649623789,2,c,1.940270099999907,incorrect,n
120,2F4K,121,2,52.70706871630746,41.071289821056354,1.4961056545066314,44.81888226730618,1,b,1.9579386000004888,incorrect,v
121,2F4K,122,1,69.81315197146304,56.6737595381393,2.13523455631918,58.62287056988023,2,n,1.4373593000000255,correct,n
122,2F4K,123,2,49.22895207913336,67.51155897774316,1.3917195925789445,67.10617753681471,2,v,2.622155699999894,incorrect,b
123,2F4K,124,2,59.08464732936274,43.30263932582523,1.7082740285554463,46.83319119759423,1,b,1.8612820999996984,incorrect,v
124,2F4K,125,1,34.958366634935544,57.39538245299393,1.034369039903278,59.2278311033589,1,c,1.4982222999997248,correct,c
125,2F4K,126,1,54.3438718068615,45.726588047018296,1.547904166258134,49.01948896877815,2,n,2.2627277999999933,correct,n
126,2F4K,127,1,44.54945410587422,29.201998531264277,1.2626752377446109,34.37495392469745,2,c,4.218286199999966,incorrect,n
127,2F4K,128,2,57.40660955793877,44.8402775605397,1.6496938186814276,48.22086007497831,1,b,1.6426038999998127,incorrect,v
128,2F4K,129,1,38.83354088809551,63.497321501691125,1.1211709169692607,64.13001735782339,1,c,1.41827529999955,correct,c
129,2F4K,130,1,28.701937155025057,47.536124352988615,0.9081850004986186,50.64495915070333,1,c,2.0867692000001625,correct,c
130,2F4K,131,1,36.168264948127394,51.28597611887129,1.060722994259711,53.97730452338159,1,c,1.2552632999995694,correct,c
131,2F4K,132,2,22.423008420961548,41.47281842670581,0.7970213372761753,45.181136926677866,2,v,2.377895499999795,incorrect,b
132,2F4K,133,2,67.47168851000247,56.60889927447209,2.0337617136990542,58.56826892292508,1,b,3.9876863999998022,incorrect,v
133,2F4K,134,1,66.56975006259749,54.00236255486441,1.9959734105526723,56.345366916264176,2,n,1.92948830000023,correct,n
134,2F4K,135,1,58.07960965732679,43.37129637832391,1.67294299833995,46.89518425686244,2,n,1.9424206999992748,correct,n
135,2F4K,136,2,59.6423058726496,71.86577515967795,1.7281987898223614,70.06624693101496,2,v,1.728650000000016,incorrect,b
136,2F4K,137,1,54.1738521207867,43.31871357160397,1.5424412756293546,46.84770537506013,2,n,2.42191080000066,correct,n
137,2F4K,138,1,64.90195107237292,52.483799253148256,1.927937833049759,55.02723021392144,2,n,1.607256999999663,correct,n
138,2F4K,139,2,35.84303200230531,53.022534937994855,1.0535734972852115,55.49661102448685,2,v,2.5176142999998774,incorrect,b
139,2F4K,140,1,46.80418594370649,67.10031289210589,1.3232866193896131,66.81162010936247,1,n,2.0009539000002405,incorrect,c
140,2F4K,141,2,49.6876083102748,61.88116183661724,1.405056601460219,62.87235241372763,2,b,1.5465684000000692,correct,b
141,2F4K,142,2,60.88340860029872,50.07964810630929,1.7733806734175568,52.91202924631013,1,b,1.0538624999999229,incorrect,v
142,2F4K,143,2,59.092331484165385,70.85992609078873,1.70854701121293,69.40915691978113,2,b,0.8379217000001518,correct,b
143,2F4K,144,1,44.21866655797928,58.52913244176708,1.254019686465823,60.1685254707795,1,c,1.4739653999995426,correct,c
144,2F4K,145,2,58.21333510888892,49.69389500114998,1.6776014962286383,52.56989067355096,1,b,2.007931699999972,incorrect,v
145,2F4K,146,1,62.65696403372061,49.2912227931051,1.8400040235172015,52.21204276550483,2,n,1.637617099999261,correct,n
146,2F4K,147,1,66.3127177029436,60.44696914340006,1.9853337157448812,61.73046327512485,2,n,3.113836900000024,correct,n
147,2F4K,148,1,63.75785253868015,48.91766912693448,1.8826118436270205,51.87946575356808,2,n,4.0712781000002,correct,n
148,2F4K,149,1,49.21988844073766,39.26206900894505,1.391457315642748,43.18956491667301,2,n,2.7799973000001046,correct,n
149,2F4K,150,2,52.192471621327705,31.388579927502143,1.4801815600529142,36.23784398246377,1,b,1.696832199999335,incorrect,v
150,2F4K,151,2,49.52621015147554,60.88922827719981,1.4003488824834385,62.08506979777665,2,v,2.9984797999995862,incorrect,b
151,2F4K,152,2,42.39565117326852,55.25721860278679,1.207371402372387,57.422261484068265,2,b,1.5640320000002248,correct,b
152,2F4K,153,2,40.11030998282774,54.66703375220429,1.1513362999353307,56.9172546646246,2,b,0.7505360999994082,correct,b
153,2F4K,154,1,40.45927802980179,61.14009590867872,1.1597214584465143,62.28524450929364,1,c,2.136791500000072,correct,c
154,2F4K,155,1,38.412324695426776,56.89252882277218,1.111393525467044,58.80676506834399,1,c,1.5410788999997749,correct,c
155,2F4K,156,2,34.3232599830218,50.52747050002774,1.0207982772762965,53.308343412895184,2,b,3.424306699999761,correct,b
156,2F4K,157,2,44.71641546311005,56.99957480565519,1.267066693076388,58.89659157099614,2,v,2.171645799999169,incorrect,b
157,2F4K,158,1,50.53990412417311,39.32095722893775,1.4301803867880345,43.24249760186365,2,n,3.676983000000291,correct,n
158,2F4K,159,2,44.57467210406202,26.35167804362061,1.263337550111133,32.00979216176835,1,b,5.0,correct,v
159,2F4K,160,1,24.844653851530687,45.14293407650851,0.8381844230413974,48.49371224040175,1,n,4.350994899999932,incorrect,c
160,2F4K,161,2,44.968628392930725,58.26470868548002,1.2737294334489286,59.95023118096409,2,b,1.7891450000006444,correct,b
161,2F4K,162,1,53.94297631681481,66.67548296398917,1.535053874458583,66.50476067006888,1,n,1.232450599999538,incorrect,c
162,2F4K,163,1,46.048193655637455,63.46524673882654,1.3026466604605893,64.10537129809168,1,c,2.92562099999941,correct,c
163,2F4K,164,2,50.83527660440495,31.04721951807465,1.438991727320231,35.94454077186609,1,b,1.6801058000000921,incorrect,v
164,2F4K,165,2,64.27752449136935,55.67984700214524,1.9030661824726216,57.78220714920442,1,b,2.2141680999993696,incorrect,v
165,2F4K,166,2,44.28262934079752,51.70013658064679,1.2556887284955105,54.34126677846304,2,b,1.5830071999998836,correct,b
166,2F4K,167,2,43.91220034478217,63.70319146989358,1.2460534980461564,64.2878960001415,2,v,2.3005310999997164,incorrect,b
167,2F4K,168,2,55.03094070417306,77.11766800252182,1.570178113822179,73.21521110889725,2,b,1.0976565999999366,correct,b
168,2F4K,169,1,61.46748492494419,46.45038056491772,1.795050644224958,49.670607974001896,2,n,1.0549971999998888,correct,n
169,2F4K,170,2,54.03060385420225,41.99371464238392,1.537853543420269,45.65129452974211,1,b,3.3757903999994596,incorrect,v
170,2F4K,171,1,52.3545832508148,62.77237293680317,1.48517969628157,63.569827535814696,1,n,1.4009353999999803,incorrect,c
171,2F4K,172,1,57.72911073138677,66.24885984018539,1.66079421318737,66.19401244550298,1,n,1.2749766000006275,incorrect,c
172,2F4K,173,2,68.950548049411,49.109723508305386,2.097275578324264,52.05052359566451,1,b,1.2854989000006753,incorrect,v
173,2F4K,174,1,62.02174057671128,44.12331594941319,1.815859043348513,47.57406183293076,2,n,4.436811900000066,correct,n
174,2F4K,175,2,49.89300347764429,61.86990763204267,1.4110705338082996,62.8634840857056,2,b,1.4447995000000446,correct,b
175,2F4K,176,2,47.822994536400174,32.67941818832123,1.3516202179885046,37.35448916236047,1,b,2.148666900000535,incorrect,v
176,2F4K,177,1,44.16963517090847,32.11661530057343,1.252741765870001,36.866214321254255,2,n,1.6922442999994018,correct,n
177,2F4K,178,2,64.7875636992051,46.39217041347084,1.9233574539919749,49.618284579774745,1,b,3.2531895000001896,incorrect,v
178,2F4K,179,1,66.21084983598362,73.93284415727388,1.9811326686689936,71.36337426563178,1,n,1.4737593999998353,incorrect,c
179,2F4K,180,2,56.14148770066361,44.235058507097136,1.6068604381898677,47.67490306460218,1,b,1.5101291999999376,incorrect,v
180,2F4K,181,1,53.85220360726223,38.94289712162806,1.5321590927349586,42.90281652997323,2,n,1.4493499999998676,correct,n
181,2F4K,182,2,45.40595174032863,62.05336328560799,1.285365408254329,63.00786090182857,2,v,1.9218443999998271,incorrect,b
182,2F4K,183,2,39.53465132338911,48.4694287345429,1.1376364064559548,51.479672799544986,2,b,1.4923090000002048,correct,b
183,2F4K,184,1,51.66741046138022,37.25215154165837,1.464108340806629,41.38866277403598,2,n,2.185224400000152,correct,n
184,2F4K,185,1,48.90337689289906,68.92899759058034,1.3823292709921806,68.10218724500467,1,n,1.656189300000733,incorrect,c
185,2F4K,186,1,40.66007745182371,56.049584926806446,1.1645740069207084,58.09591100959079,1,n,2.481177600000592,incorrect,c
186,2F4K,187,1,62.06751628523972,53.3873582263311,1.817588344531112,55.81339662204777,2,n,3.1562731000003623,correct,n
187,2F4K,188,2,48.23269357122658,39.649457869141216,1.3631844720658584,43.53791893606793,1,v,2.3976765999996132,correct,v
188,2F4K,189,2,56.17355381867457,67.79481218278737,1.6079322438880554,67.30761685276512,2,v,2.0517030000000887,incorrect,b
189,2F4K,190,2,41.29206178729365,50.0413362258268,1.179979547453864,52.87807958101175,2,v,2.1477584000003844,incorrect,b
190,2F4K,191,1,51.90894015639273,61.446981380967394,1.4714802764499335,62.52914397260693,1,n,2.590800599999966,incorrect,c
191,2F4K,192,2,55.04087322626884,48.48641555414371,1.5705024534587826,51.494837347387495,1,v,2.4098183999994944,correct,v
192,2F4K,193,2,44.89462900656086,31.05368535198956,1.2717709589494497,35.95008823262533,1,b,1.0610901000000013,incorrect,v
193,2F4K,194,2,57.98654276587294,67.00164930521382,1.669708530059564,66.74058603252618,2,b,1.0974732999993648,correct,b
194,2F4K,195,1,46.32114383689616,26.95620156600281,1.3100612960100153,32.50484463014804,2,n,2.7314186000003247,correct,n
195,2F4K,196,1,66.81449580078728,45.24130622173493,2.0061575001429985,48.58236857114252,2,n,2.7314182999998593,correct,n
196,2F4K,197,2,69.3123418865551,45.24726737599071,2.113113495460823,48.587740489205686,1,v,2.341494000000239,correct,v
197,2F4K,198,1,63.37846536763272,47.037574916757634,1.867818097351852,50.19795437430628,2,n,2.658497200000056,correct,n
198,2F4K,199,1,36.40529371521399,57.64483179634663,1.0659640706289846,59.43584933195787,1,c,3.3991086000005453,correct,c
199,2F4K,200,1,25.909811153611813,43.51766165917266,0.8569567708594912,47.02733747824525,1,n,2.567556799999693,incorrect,c
200,2F4K,201,1,69.7243644206648,57.59356706224949,2.131295941349108,59.393146380281465,2,n,2.790983099999721,correct,n
201,2F4K,202,2,70.33585855731205,58.55922775411175,2.1585698177351618,60.19332702233629,1,v,1.9900009000002683,correct,v
202,2F4K,203,1,43.32871099297816,33.807829982182696,1.231026082827574,38.3396067729706,2,n,1.2092003000007026,correct,n
203,2F4K,204,1,62.90309936698101,56.63290790937852,1.8494457482855469,58.58848452702318,2,n,2.020041499999934,correct,n
204,2F4K,205,2,56.44758683716401,67.02005079459362,1.617120970375183,66.75384509107845,2,b,5.0,correct,b
205,2F4K,206,1,55.509425641300176,38.68721623632241,1.5858790761710349,42.6732956904794,2,n,3.4233013000002757,correct,n
206,2F4K,207,2,57.1323934394631,68.6456394984086,1.6403137628963271,67.90550044672668,2,v,3.611402200000157,incorrect,b
207,2F4K,208,1,59.55883375362848,48.019421605922496,1.7252016638897585,51.07756700185437,2,n,1.9471494999997958,correct,n
208,2F4K,209,2,65.1732227924902,52.74376107103338,1.9388439400061623,55.25395624023794,1,b,3.7085355999997773,incorrect,v
209,2F4K,210,1,54.11616598403815,69.05557884088742,1.540592150262177,68.18965321961633,1,n,1.849125699999604,incorrect,c
210,2F4K,211,2,53.18269490944216,38.41658981612436,1.510976106868664,42.43055208168376,1,v,1.6743868000003204,correct,v
211,2F4K,212,2,46.335437428776736,25.976825211755816,1.310450739324928,31.70471286376173,1,b,1.504431499999555,incorrect,v
212,2F4K,213,2,42.92876581914732,32.3379430541719,1.2208305541567597,37.05797872896431,1,b,4.709883799999261,incorrect,v
213,2F4K,214,2,40.99371436216881,59.62679105645856,1.172681662492379,61.067193834426085,2,b,2.4537061000000904,correct,b
214,2F4K,215,2,44.01416481300707,54.89812802734703,1.2486982975812586,57.11531689891424,2,b,2.7435903000005055,correct,b
215,2F4K,216,2,42.997238890147536,55.54190774896224,1.2225700810023366,57.66488482930645,2,b,1.0544706999999107,correct,b
216,2F4K,216,2,42.997238890147536,55.54190774896224,1.2225700810023366,57.66488482930645,2,many,1.0544706999999107,correct,b
217,2F4K,217,2,35.5666391259447,47.015177512023634,1.0475355271831386,50.17785613992371,2,v,2.9559978000006595,incorrect,b
218,2F4K,218,1,32.74639133331102,50.35942418096441,0.9878690645516424,53.15973931534586,1,c,1.9896060000000944,correct,c
219,2F4K,219,1,50.87322537608148,34.379921382276606,1.4401277162606607,38.84194633744228,2,n,4.284016800000245,correct,n
220,2F4K,220,1,48.37182359849406,28.433332786699943,1.367134049224425,33.729608321600935,2,n,1.1086875000000873,correct,n
221,2F4K,221,1,54.45916234455865,45.85314055958749,1.551619562540953,49.13341245106758,2,n,1.6342536000001928,correct,n
222,2F4K,222,1,49.78185082668031,67.8093593290922,1.4078128160433994,67.31793024072674,1,n,1.5709833999999319,incorrect,c
223,2F4K,223,2,41.05502009224514,52.77840011957907,1.1741775701001305,55.28413449771845,2,v,2.8467422000003353,incorrect,b
224,2F4K,224,2,27.543927051961568,40.63857142485473,0.8865769818928595,44.42870007472857,2,b,3.951264600000286,correct,b
225,2F4K,225,2,41.12669104535168,27.549294046133248,1.1759288168505255,32.99409028241987,1,v,3.3981244999995397,correct,v
226,2F4K,226,2,42.62145098262596,55.10617947050496,1.213053793955286,57.29327854065502,2,b,5.0,correct,b
227,2F4K,227,2,68.12516243549945,55.00909110329515,2.0615863256683555,57.210273563765405,1,v,1.2674327000004268,correct,v
228,2F4K,228,2,70.89927622334588,48.769239217828286,2.1840082208011027,51.74716340853463,1,v,1.306256900000335,correct,v
229,2F4K,229,1,55.65312540106821,67.72812421667045,1.5906250119555978,67.26029743196756,1,n,1.8742641999997431,incorrect,c
230,2F4K,230,2,61.06139556509285,52.481829565829145,1.7799563557290412,55.02551073503404,1,b,3.428549700000076,incorrect,v
231,2F4K,231,2,36.86441071379808,41.65473897450321,1.076189638229538,45.34531410935298,2,b,1.9410822999998345,correct,b
232,2F4K,232,1,66.52085912518392,58.336677977826,1.9939452184575437,60.009712980107246,2,n,2.5349507000000813,correct,n
233,2F4K,233,1,55.347540128716936,38.25477313932528,1.580549483860422,42.285507797160165,2,n,3.5021370000004026,correct,n
234,2F4K,234,2,62.87560067309677,49.37992811620139,1.8483885018846025,52.29093327566736,1,b,2.5129015000002255,incorrect,v
235,2F4K,235,2,44.54491747289571,30.626531567461047,1.2625561268353016,35.58429166990702,1,b,3.3200919000000795,incorrect,v
236,2F4K,236,1,44.401981756260746,30.1758081168572,1.258809047280789,35.19985787828564,2,n,3.896642900000188,correct,n
237,2F4K,237,1,49.1553485822748,40.92001015530684,1.3895911369824978,44.6824458800369,2,n,3.142900899999404,correct,n
238,2F4K,238,2,27.947741877603185,43.35617593622571,0.8940529959355573,46.88153156411108,2,b,5.0,correct,b
239,2F4K,239,2,50.879047321561615,35.781706417430705,1.4403020743686248,40.08015454947819,1,b,4.49758219999967,incorrect,v
240,2F4K,240,2,59.93910464819031,77.55377507464894,1.738897794727701,73.45443862610986,2,b,1.517644399999881,correct,b
241,2F4K,241,2,42.89132929399738,52.63932240637302,1.2198805432205264,55.1629209953557,2,v,5.0,correct,b
242,2F4K,242,2,47.106533076164354,36.72465233617782,1.3316325052217677,40.91824352730771,1,b,1.9774230000002717,incorrect,v
243,2F4K,243,2,48.4064875129759,58.668094904176,1.3681198563493864,60.28296953346908,2,b,3.2545258999998623,correct,b
244,2F4K,244,1,56.851187221227605,41.68043038697195,1.6307499865664874,45.36850192951578,2,n,5.0,correct,n
245,2F4K,245,1,40.72401428562648,60.15613716936856,1.166123371666184,61.49609912177529,1,n,1.6011874000005264,incorrect,c
246,2F4K,246,1,51.75138523061278,67.17919495161571,1.4666672094274091,66.8683108014908,1,n,1.3644940000003771,incorrect,c
247,2F4K,247,2,45.12768927345602,58.80604323180556,1.2779493679684806,60.39638829570567,2,b,5.0,incorrect,b
248,2F4K,248,2,64.28700517687315,52.05469113729419,1.9034414000354247,54.652071439849976,1,b,3.1493130999997447,incorrect,v
249,2F4K,249,2,46.89827150385497,34.105650340813725,1.3258781033168436,38.600884612377854,1,b,2.007809400000042,incorrect,v
250,2F4K,250,2,44.7741919323801,55.6055707170231,1.268589897183552,57.71905171006513,2,v,1.4921445999998468,incorrect,b
251,2F4K,251,1,23.347450909600827,38.57075725247957,0.8124908816527906,42.56881042273056,1,n,3.526460600000064,incorrect,c
252,2F4K,252,1,50.64017518136224,64.78867232208573,1.4331655355260453,65.1112831041639,1,n,5.0,incorrect,c
253,2F4K,253,2,67.63777377381969,57.41315848680586,2.040797749641338,59.24267377242026,1,v,2.342993500000375,correct,v
254,2F4K,254,2,38.27520197913854,51.435791560424974,1.1082290264709047,54.10907183179824,2,b,1.2242527999997037,correct,b
255,2F4K,255,2,64.01293213532168,53.10299714966178,1.8926241823158765,55.566554324665,1,v,1.5164322999999058,correct,v
256,2F4K,256,1,64.15139110497563,51.4580480294124,1.898081227511064,54.12863652413207,2,n,2.0638614999998026,correct,n
257,2F4K,257,1,24.824297431769704,43.43133873980375,0.8378296947852718,46.94939749502617,1,n,4.62493429999995,incorrect,c
258,2F4K,258,2,36.02122805530013,41.54602288385846,1.0574847377486845,45.2471981156292,2,v,5.0,incorrect,b
259,2F4K,259,1,37.99405762282368,56.30153442338283,1.1017689637914443,58.30902149569553,1,n,5.0,incorrect,c
260,2F4K,260,1,65.51976643615211,55.953019711708976,1.9528660460399745,58.01408985602809,2,n,2.0248650999992606,correct,n
261,2F4K,261,1,65.95611325983865,53.71047909991629,1.970666159938868,56.09321993494108,2,n,1.9886877999997523,correct,n
262,2F4K,262,2,43.43426426164462,27.815671418654556,1.2337310522797913,33.2149395896021,1,v,2.6100055999995675,correct,v
263,2F4K,263,2,48.96182269878732,31.83409112230361,1.38401030115973,36.62191939960258,1,b,5.0,correct,v
264,2F4K,264,1,60.08849637382559,43.23779673330536,1.7443081036288306,46.7746410967593,2,n,1.5163441999993665,correct,n
265,2F4K,265,1,69.82497374589116,52.62257467113818,2.1357595189085283,55.14831621563691,2,n,1.4679181999999855,correct,n
266,2F4K,266,2,61.20296745016215,44.45553810252855,1.7852040980500854,47.87383941853541,1,v,1.8742972000000009,correct,v
267,2F4K,267,1,46.753832442336574,27.22121428130908,1.3219017686639492,32.723027540732446,2,n,1.2429769000000306,correct,n
268,2F4K,268,2,68.52455589641302,52.14019420231477,2.0787794134327533,54.72691340783527,1,v,1.397251000000324,correct,v
269,2F4K,269,1,67.12857942948399,53.06653234758412,2.01930296783534,55.53486187104912,2,n,2.4704589999992095,correct,n
270,2F4K,270,2,47.56802700972601,30.67491513946065,1.3444730254474364,35.62565461732663,1,b,3.7379116000001886,incorrect,v
271,2F4K,271,2,35.65806408116518,21.6109011026826,1.0495289210754424,28.268584618362546,1,v,5.0,incorrect,v
272,2F4K,272,1,49.71823749724119,65.22951661530497,1.4059517895930835,65.44123698729496,1,n,4.9161337000005005,incorrect,c
273,2F4K,273,1,37.20088186736099,49.8486694866763,1.0837458403030131,52.70724714401324,1,c,1.485907700000098,correct,c
274,2F4K,274,1,43.10842691275877,29.544014078105917,1.22540004328019,34.66376280905257,2,n,2.5251392999998643,correct,n
275,2F4K,275,2,72.89882354646612,59.7993361122939,2.276732360254125,61.20732688618313,1,b,3.3515234000005876,incorrect,v
276,2F4K,276,2,55.18166388057767,70.29936178841476,1.575107086764726,69.03581743048164,2,v,1.72869559999981,incorrect,b
277,2F4K,277,2,43.62589845936504,57.55852451288423,1.238657181800853,59.36394222586424,2,b,2.214193200000409,correct,b
278,2F4K,278,2,47.57129194666959,33.84808167578335,1.3445643081206369,38.37488969159969,1,b,1.4008996000002298,incorrect,v
279,2F4K,279,1,48.30987668376829,63.35838643068549,1.36537410944136,64.02316677121688,1,n,4.514908599999217,incorrect,c
280,2F4K,280,2,60.24898161285278,48.24496903856743,1.7501389268165255,51.2791945335062,1,v,1.9532107999993968,correct,v
281,2F4K,281,2,39.32865237806127,27.503362158878733,1.1327736183184338,32.95607784175519,1,v,1.1700927000001684,correct,v
282,2F4K,282,2,45.74902407029933,59.62695692258372,1.2945679768360647,61.06732869385068,2,v,2.359793300000092,incorrect,b
283,2F4K,283,2,74.74527437477278,61.74281643412611,2.3658493844663013,62.763232770249246,1,v,3.976516900000206,correct,v
284,2F4K,284,2,56.24718656460655,71.58827100816151,1.6103961149906942,69.88662382626276,2,v,4.3466389999994135,incorrect,b
285,2F4K,285,1,60.56895794870292,75.12349524605875,1.7618226898299294,72.0769675742893,1,c,2.3369313000002876,correct,c
286,2F4K,286,2,40.56187721814473,48.42588645290006,1.1621983540243253,51.4407967447196,2,v,3.9998609000003853,incorrect,b
287,2F4K,287,2,49.78017923510471,40.38135252624895,1.4077638816447102,44.19689082254945,1,b,1.7772021000000677,incorrect,v
288,2F4K,288,2,41.89604490986171,55.08539006166188,1.1948929282956229,57.27551097747588,2,b,5.0,incorrect,b
289,2F4K,289,1,36.69619132920853,49.74093255224948,1.0724316778493803,52.61164605394998,1,c,5.0,incorrect,c
290,2F4K,290,2,66.36997974831226,48.79157596711243,1.987699121668436,51.76707863109522,1,v,5.0,incorrect,v
291,2F4K,291,1,32.81084769842925,46.26751388823297,0.9891940252434862,49.50620840154031,1,n,5.0,incorrect,c
292,2F4K,292,2,69.88113260674085,58.31917414130213,2.138255095845503,59.99525090271983,1,b,2.962039700000787,incorrect,v
293,2F4K,293,1,67.82013490233969,57.40278874332069,2.04855133649946,59.23401557645053,2,n,2.3854923000008057,correct,n
294,2F4K,294,1,44.639176429960486,31.41410142712301,1.2650332393349817,36.259807226592585,2,c,3.4839382000000114,incorrect,n
295,2F4K,295,2,52.60743667697687,43.59679259623433,1.4930092464119924,47.09878109009368,1,b,1.7460166999999274,incorrect,v
296,2F4K,296,1,54.37368411974988,33.79236473445178,1.5488640553988762,38.32605310932766,2,n,1.3038040000001274,correct,n
297,2F4K,297,1,60.56889067932232,56.00308563774945,1.7618202253457211,58.05652120758212,2,n,1.6861379000001762,correct,n
298,2F4K,298,1,42.97349842451706,33.89185434364046,1.2219666848765165,38.41326963511865,2,n,5.0,correct,n
299,2F4K,299,1,33.602048857804135,46.817812766498186,1.0056034230188389,50.00069366082636,1,c,1.5044157000002087,correct,c
300,2F4K,300,2,51.9198141911079,64.14075665760093,1.471813044006833,64.62165612158262,2,v,5.0,correct,b
301,2F4K,301,2,52.62061486868015,39.55309446629454,1.4934184359684617,43.45123470437192,1,b,2.179132799999934,incorrect,v
302,2F4K,302,2,57.33930513425994,35.79970439789845,1.6473865944810315,40.096114662907794,1,v,1.249192100000073,correct,v
303,2F4K,303,2,56.89762393529532,43.24071518979857,1.6323254389432602,46.77727636252611,1,v,0.745524199999636,correct,v
304,2F4K,304,1,75.44121354991739,59.24489745599025,2.4003360623838206,60.75592948005348,2,n,1.437359199999264,correct,n
305,2F4K,305,1,49.12597329739377,59.347506526647024,1.3887425757191574,60.83971027911635,1,n,1.3467284999996991,incorrect,c
306,2F4K,306,1,23.53336501886946,42.34149606797968,0.8156380307482135,45.96529064690307,1,n,4.87979759999962,incorrect,c
307,2F4K,307,2,52.78721317277528,35.561785955022295,1.4986010788451674,39.885256240360775,1,v,3.0348681000004945,correct,v
308,2F4K,308,2,51.77333043120471,30.363877020835524,1.4673366575830151,35.360070177225744,1,b,4.576279500000055,incorrect,v
309,2F4K,309,2,57.59832010748976,63.98475349804909,1.6562834637306847,64.50294516453255,2,v,1.69220949999999,incorrect,b
310,2F4K,310,1,56.20179007525527,45.2031724046453,1.6088766288986007,48.54800282733723,2,n,1.7711374999998952,correct,n
311,2F4K,311,2,45.93915522716264,57.30025045007171,1.2996963979190026,59.14834823792159,2,v,4.382314099999348,incorrect,b
312,2F4K,312,1,47.50310759796466,63.45057795595644,1.3426592635356438,64.0940955586378,1,n,4.588513699999567,incorrect,c
313,2F4K,313,2,66.26414653836378,81.57646186851093,1.983329523173104,75.49146372145236,2,b,1.8621640999999727,correct,b
314,2F4K,314,2,38.920244134061136,50.74937801195229,1.1231941479158218,53.50436187461303,2,v,4.096893699999782,incorrect,b
315,2F4K,315,2,61.27208054183517,51.57204629167423,1.7877715777938423,54.22880413365436,1,b,5.0,incorrect,v
316,2F4K,316,1,48.42966381889225,30.90394042480828,1.3687793638395054,35.82169365208476,2,n,3.551977799999804,correct,n
317,2F4K,317,1,42.41426413506276,57.02549855100185,1.207838800679713,58.918329776985296,1,n,5.0,correct,c
318,2F4K,318,1,44.41590852644953,60.680000565529504,1.2591736499701127,61.91758018135896,1,n,1.2310034000001906,incorrect,c
319,2F4K,319,1,66.01086292084027,50.02664295264306,1.9729110157545044,52.86505747848358,2,n,1.352394099999401,correct,n
320,2F4K,320,1,54.08624308844452,61.13067391638574,1.5396338471349862,62.27773929439709,1,n,2.772754800000257,incorrect,c
321,2F4K,321,2,54.007509513937485,33.79860592084017,1.537115192234739,38.33152268479952,1,v,5.0,incorrect,v
322,2F4K,322,2,55.24272109246103,39.11866897574594,1.5771081900271708,43.06070158249285,1,b,3.1197793999999703,incorrect,v
323,2F4K,323,2,52.494113291612855,62.13733776499008,1.4894951218822745,63.07381445515685,2,v,1.195275600000059,incorrect,b
324,2F4K,324,1,38.31885079106182,49.38511945910644,1.1092353688747143,52.29554919454048,1,c,1.954612000000452,correct,c
325,2F4K,325,1,45.30426849501952,30.75125650327252,1.2826504468647222,35.690955616786674,2,n,2.0699078999996345,correct,n
326,2F4K,326,1,49.99049905962232,64.37450417688163,1.4139341887461638,64.79893439977809,1,n,4.667441600000529,incorrect,c
327,2F4K,327,1,58.90048272082553,50.13820862942359,1.7017445408644103,52.96390874446132,2,n,2.0867630000002464,correct,n
328,2F4K,328,2,42.98262461146619,48.318237720825394,1.2221986040485746,51.34465489355263,2,b,5.0,correct,b
329,2F4K,329,2,48.81363185667764,58.00171314938397,1.3797519798502245,59.73244199639919,2,b,5.0,correct,b
330,2F4K,330,2,72.56598536841963,50.89816381307498,2.261029101573567,53.63564904834161,1,b,1.1096188000001348,incorrect,v
331,2F4K,331,1,45.22596779001437,63.840682177804624,1.280563712394986,64.39303466063504,1,c,4.922223999999915,correct,c
332,2F4K,332,2,67.9098104904706,50.56707978190138,2.052374939464988,53.34334976693514,1,v,4.456204799999796,correct,v
333,2F4K,333,2,59.47784813149221,73.73086593271398,1.722298785303546,71.23985574864851,2,b,2.171719099999791,correct,b
334,2F4K,334,2,57.1280559263864,44.964811633137465,1.6401658197481777,48.333145931501605,1,b,1.2364886000004844,incorrect,v
335,2F4K,335,1,39.36050967410868,52.25089799235933,1.1335242771718474,54.82374884119086,1,c,3.83594869999979,correct,c
336,2F4K,336,1,49.70944526937778,65.81820525726323,1.4056947639944537,65.87773076339025,1,c,4.436982899999748,correct,c
337,2F4K,337,2,38.36402827365392,50.25491155173487,1.1102779178471998,53.06724895060615,2,v,4.618965199999366,incorrect,b
338,2F4K,338,1,47.59806977306237,58.44776877824556,1.3453132093361853,60.101428944768095,1,n,5.0,incorrect,c
339,2F4K,339,1,56.95129249425965,38.0360805955551,1.6341481413174712,42.08960800185301,2,n,3.059317199999896,correct,n
340,2F4K,340,2,43.75875844381251,28.155579731692757,1.242084008159864,33.49772986075492,1,b,1.6618875000003754,incorrect,v
341,2F4K,341,1,69.430227759883,60.58554427664341,2.118299868143695,61.84180703699764,2,n,5.0,incorrect,n
342,2F4K,342,1,57.908766913308376,41.097065653782,1.6670102873242565,44.842131744684224,2,n,2.0078335999996852,correct,n
343,2F4K,343,1,30.658527075799267,47.89424424382378,0.94589753241913,50.965590861309046,1,n,4.260797599999933,incorrect,c
344,2F4K,344,2,71.41088743797371,63.53777887443784,2.207367166826636,64.16108600052868,1,b,5.0,incorrect,v
345,2F4K,345,1,51.80329276437284,37.76910939329419,1.4682511653797887,41.85066531375054,2,n,1.218877500000417,correct,n
346,2F4K,346,2,25.488179086401374,42.74466259073441,0.8494761645966689,46.32934059267642,2,b,5.0,correct,b
347,2F4K,347,2,32.04731127108125,49.89624414991761,0.9736123261569932,52.74944614289626,2,v,2.8053804000001037,incorrect,b
348,2F4K,348,2,33.14222631231253,52.04188421491757,0.9960339269407288,54.640857626816754,2,v,5.0,incorrect,b
349,2F4K,349,1,38.82976813004888,50.39421834865499,1.121082961984455,53.19051931282789,1,c,2.3056311999998798,correct,c
350,2F4K,350,1,55.76049000862937,39.60764026267951,1.594180183439263,43.500299258216266,2,n,5.0,correct,n
351,2F4K,351,1,48.92877970831485,56.71744906308256,1.3830596609321828,58.65962915046004,1,n,1.236116299999594,incorrect,c
352,2F4K,352,1,64.97443391531672,46.612358178428586,1.9308458858957556,49.81616273661555,2,n,1.2674037999995562,correct,n
353,2F4K,353,1,40.28605236341272,54.64173633786235,1.1555515099356468,56.89554855788252,1,c,1.6619000999999116,correct,c
354,2F4K,354,2,34.766466640567884,50.88972884791499,1.0302496683641194,53.62820917426751,2,v,5.0,correct,b
355,2F4K,355,2,43.7020903663299,48.4231299532461,1.240621223799513,51.43833541499605,2,b,1.3038281999997707,correct,b
356,2F4K,356,2,46.22856400940348,62.59366222703483,1.3075416662652175,63.430734234992585,2,b,0.8549945999993724,correct,b
357,2F4K,357,1,46.85141152226038,60.45026943240863,1.324586762581426,61.73311748089807,1,n,2.4471053000006577,incorrect,c
358,2F4K,358,2,53.42836198376264,66.50793405460007,1.518714682582229,66.38302745196971,2,b,1.777234099999987,correct,b
359,2F4K,359,1,63.30056146782083,47.06536011457997,1.8647947449620117,50.22288542770822,2,c,3.283722299999681,incorrect,n
360,2F4K,360,1,55.4964373253356,71.18147306655199,1.5854508127486824,69.6210164802415,1,n,2.883120399999825,incorrect,c
361,2F4K,361,2,50.61273740691793,38.80971765424815,1.4323480726005584,42.78324186501035,1,v,4.50335720000021,correct,v
362,2F4K,362,2,72.97710269169139,54.94664181975748,2.280441372646662,57.15684429267958,1,v,1.9181699999999182,correct,v
363,2F4K,363,2,57.13731424794555,46.780404054081664,1.6404816171406087,49.96710262602945,1,v,0.8900850999998511,correct,v
364,2F4K,364,2,63.90760676483056,50.40299922631739,1.888483531654873,53.19828621630685,1,v,0.9168423000000985,correct,v
365,2F4K,365,1,52.84533926648961,30.615436013397517,1.500413530313348,35.5748086952484,2,n,4.733905699999923,correct,n
366,2F4K,366,1,53.101955785374685,65.15982509405467,1.5084414228671523,65.38924992808131,1,n,2.6768335999995543,incorrect,c
367,2F4K,367,2,32.34418352401508,50.26890659931623,0.9796413026284672,53.07963717517932,2,v,1.304127000000335,incorrect,b
368,2F4K,368,1,42.24082584843699,54.6168346393622,1.2034905181905096,56.87417727660694,1,n,2.299153799999658,incorrect,c
369,2F4K,369,2,51.0028090009497,39.48575314622909,1.444013540103175,43.390669283422966,1,b,2.895295100000112,incorrect,v
370,2F4K,370,2,51.04177249128738,31.623894951130488,1.4451839871892476,36.44053095570891,1,v,1.4009015000001455,correct,v
371,2F4K,371,2,47.10091563126319,58.02754245948307,1.3314769643388709,59.75386096572293,2,b,1.4919664000008197,correct,b
372,2F4K,372,2,32.62913683410522,46.270464426335366,0.9854633379624994,49.50886157511851,2,v,1.284603199999765,incorrect,b
373,2F4K,373,2,62.41732397658616,42.90810162950657,1.8308577692729116,46.47692803939397,1,b,0.8476478000002317,incorrect,v
374,2F4K,374,1,49.4668236700932,32.08323353378091,1.3986206489399722,36.83732059986896,2,n,2.3733832999996594,correct,n
375,2F4K,375,2,43.78161410010136,47.98032396613172,1.2426744737448765,51.04259819426596,2,v,1.7468393999997716,incorrect,b
376,2F4K,376,1,35.15506313946001,43.76087331300022,1.0386084687142012,47.24691187162913,1,c,3.8602437999998074,correct,c
377,2F4K,377,1,48.50690486020584,68.71777317311741,1.3709796395756666,67.95568681487863,1,n,1.018534400000135,incorrect,c
378,2F4K,378,1,41.48363009393164,30.413670541141265,1.1846894309018727,35.4025357135076,2,c,2.9256132000000434,incorrect,n
379,2F4K,379,1,55.57266094476668,38.90477316405873,1.5879657855071423,42.86858239653804,2,n,2.8626753999997163,correct,n
380,2F4K,380,2,45.3899263192348,55.35148157274663,1.2849371453933764,57.50266786406242,2,b,3.7509847999999693,correct,b
381,2F4K,381,1,56.2600029926558,41.59179515259671,1.6108253590634722,45.28850628681735,2,n,4.321489699999802,correct,n
382,2F4K,382,1,61.89526941023615,70.4347018984997,1.8110898006430372,69.12641700120497,1,n,1.2056621000001542,incorrect,c
383,2F4K,383,2,54.87087085260545,46.03287162125019,1.564960371944994,49.295153565485606,1,b,1.4790018000003329,incorrect,v
384,2F4K,384,2,59.2158681988666,43.293628480155846,1.7129416950831304,46.82505485663776,1,v,1.2977851000005103,correct,v
385,2F4K,385,2,49.64318083595421,33.51519779855273,1.4037591486666852,38.08338482891413,1,b,1.1296886999998605,incorrect,v
386,2F4K,386,2,36.63586385503479,48.06973734213205,1.0710871830867938,51.12256168283051,2,b,3.9998241999992388,correct,b
387,2F4K,387,1,48.60766195403406,33.937167312678866,1.3738551066327116,38.45301179387974,2,n,1.9289238999999725,correct,n
388,2F4K,388,1,40.83199713717985,58.32393300153113,1.1687447740481305,59.99918307965895,1,c,3.350457699999424,correct,c
389,2F4K,389,2,56.01131266832631,40.124484104005866,1.6025166873884762,43.96550403802956,1,v,1.747349100000065,correct,v
390,2F4K,390,1,63.33930767467281,42.61108600865673,1.8662978243296795,46.20872063649647,2,c,1.394842400000016,incorrect,n
391,2F4K,391,1,44.13378075415728,59.689013379265695,1.2518081052402623,61.1177641239104,1,c,1.692220400000224,correct,c
392,2F4K,392,1,29.97323184072246,45.947054862516126,0.9325137835561458,49.21793463400428,1,c,2.3673533999999563,correct,c
393,2F4K,393,2,34.479963631391854,50.0745719419612,1.0241300359089338,52.90753145126731,2,v,1.4373607000006814,incorrect,b
394,2F4K,394,2,51.92612514315208,69.46506299270516,1.472006206472531,68.47090557708445,2,b,1.0185922000000573,correct,b
395,2F4K,395,2,65.58884834407783,51.76586684450884,1.9556733889706208,54.39894134853645,1,b,4.103748800000176,incorrect,v
396,2F4K,396,2,46.90832924498946,54.87058992985207,1.326155432890322,57.0917364561047,2,v,5.0,incorrect,b
397,2F4K,397,1,41.983269388154206,62.30947341854707,1.1970621702954485,63.20874675312697,1,c,1.698301100000208,correct,c
398,2F4K,398,1,36.01429005410046,53.49756185590613,1.0573321836548204,55.9089136099737,1,c,1.2809422999998787,correct,c
399,2F4K,399,1,31.64546032638545,43.01691079152631,0.9655104705531156,46.57518372402054,1,c,1.2131127999991804,correct,c
400,2F4K,400,2,55.21386414316945,43.56682585632659,1.5761621090210027,47.07172586423887,1,v,1.4873154999995677,correct,v
