,condition,trial,sub_task,x,y,xt,yt,cat,resp,rt,acc,correct_resp
0,4F4K,1,2,28.49237206095741,39.70031864632727,0.904235937607158,43.24338511017197,2,v,3.277588200000082,incorrect,b
1,4F4K,2,1,49.70573415388854,71.98820545666426,1.405586290044346,69.42717750370755,1,n,1.6072997999999643,incorrect,c
2,4F4K,3,2,44.59064717789562,28.029193662434327,1.2637572908583483,33.19704679238463,1,v,0.7650542999999743,correct,v
3,4F4K,4,2,66.62467252837614,50.51994108454908,1.998254275219025,52.8232363369697,1,v,2.0988593000001856,correct,v
4,4F4K,5,2,30.730220702401965,36.84773407386525,0.9473087537331482,40.72395190939559,2,b,2.111202200000207,correct,b
5,4F4K,6,2,43.72254524389013,28.476539506013108,1.2411490308323958,33.56502752653194,1,b,1.0685438000000431,incorrect,v
6,4F4K,7,2,24.77865177942034,38.7259364553659,0.8370348253667945,42.38019796501725,2,b,5.0,incorrect,b
7,4F4K,8,2,50.59480996504509,33.02195374745212,1.4318142061140582,37.39671251530855,1,b,0.7751927000003889,incorrect,v
8,4F4K,9,1,58.18142837925524,43.98800555670726,1.67648880734924,47.05665061511536,2,n,0.9649595999999292,correct,n
9,4F4K,10,1,63.08800819890148,52.07524228740891,1.8565706877900197,54.17215856811652,2,n,1.1705004000000372,correct,n
10,4F4K,11,2,53.0834902596889,68.22281128800964,1.5078623230016313,66.9278695000743,2,v,3.3079603999999563,incorrect,b
11,4F4K,12,2,72.57491397187763,56.8422205065035,2.261448934716814,58.20839900986673,1,v,2.2748563000000104,correct,v
12,4F4K,13,1,52.99719135845302,41.51695212032876,1.5051588374582685,44.85739294653951,2,n,2.961995599999682,correct,n
13,4F4K,14,1,40.390391392062696,50.49101406853362,1.1580613961737831,52.79802841918495,1,c,3.1928828999998586,correct,c
14,4F4K,15,2,51.509303689161264,36.85896042098378,1.459302640592511,40.733815457386335,1,v,1.9109669999998005,correct,v
15,4F4K,16,1,51.96081016985868,42.424205615953774,1.4730682810613691,45.66475821862251,2,n,1.7610110999999051,correct,n
16,4F4K,17,1,64.69772910706834,45.32280190783784,1.9197678648684933,48.24340125733465,2,n,1.3523870999997598,correct,n
17,4F4K,18,1,42.64016458867145,60.56386245325302,1.2135259317442644,61.2247833140101,1,n,2.5626578999999765,incorrect,c
18,4F4K,19,1,41.23327428609143,58.23040392663569,1.1785379607395676,59.34929222254392,1,c,0.794024299999819,correct,c
19,4F4K,20,2,45.11442269584191,56.25415519460035,1.27759686777294,57.71991678501141,2,b,1.7457982000000811,correct,b
20,4F4K,21,2,69.16754084307723,54.55697319565829,2.106760368225085,56.29427347475119,1,v,3.2595304999999826,correct,v
21,4F4K,22,2,41.83653815632668,61.53372610713348,1.193415272464286,61.9872757093144,2,b,3.969526500000029,correct,b
22,4F4K,23,1,42.88370353585334,59.59333734189097,1.21968711821667,60.45152317208966,1,c,1.3448871999999028,correct,c
23,4F4K,24,2,29.291243812528045,47.22276467732632,0.9193826299054072,49.92739208821293,2,b,2.3416369999999915,correct,b
24,4F4K,25,1,57.51307434418906,74.64320891806699,1.6533500770250342,71.05080497936949,1,n,3.1379549999996925,incorrect,c
25,4F4K,26,1,65.94823503468753,74.69904662948628,1.9703433457689368,71.08365684108708,1,n,1.3402408000001742,incorrect,c
26,4F4K,27,2,35.74058977809318,55.92095372914099,1.0513315362428244,57.44184262738207,2,b,3.0591380000000754,correct,b
27,4F4K,28,1,68.86458723375628,55.716598314728415,2.093530036514269,57.27084535184015,2,n,2.9557707000003575,correct,n
28,4F4K,29,1,53.02593564797827,44.86247960557144,1.5060587709757156,47.83437621591733,2,c,1.3826687000000675,incorrect,n
29,4F4K,30,1,47.3236803046301,69.7587522620096,1.3376590207592425,67.97406303232573,1,c,3.805643500000315,correct,c
30,4F4K,31,2,57.91016984729632,71.80156237371612,1.6670589200450625,69.30859699877583,2,b,4.0058515000000625,correct,b
31,4F4K,32,2,57.11707122958167,71.2326449122657,1.639791215285163,68.94364045444304,2,b,1.4559158000001844,correct,b
32,4F4K,33,1,34.42159555179753,23.35814649276329,1.0228877725027554,29.47483178787096,2,c,4.558133600000019,incorrect,n
33,4F4K,34,1,61.85349449617536,77.78869718291091,1.8095172173884888,72.81505096431805,1,n,2.616151500000342,incorrect,c
34,4F4K,35,1,54.213893289742366,39.28543744725708,1.543726097492996,42.87557967674268,2,c,2.391084399999727,incorrect,n
35,4F4K,36,1,46.017385966918255,62.16128868606444,1.3018124159443587,62.47496378753567,1,n,2.506011699999817,incorrect,c
36,4F4K,37,1,50.29570662595059,32.92831239502077,1.422936418356441,37.31627718553242,2,n,4.516721700000289,correct,n
37,4F4K,38,1,56.69041995159863,39.921911596777214,1.625307391782646,43.43998030338905,2,n,1.8439736000000266,correct,n
38,4F4K,39,2,60.31516230521162,47.30456995425901,1.7525491064733982,49.9997027218801,1,v,2.9741981000001942,correct,v
39,4F4K,40,2,52.98950047433348,37.133092253083866,1.5049181405071843,40.9748176521704,1,v,2.012913699999899,correct,v
40,4F4K,41,2,38.15304384498488,60.94140490533256,1.1054174678356927,61.52284639586789,2,v,3.714375300000029,incorrect,b
41,4F4K,42,2,31.481602477122056,40.282658365273065,0.9622262578847084,43.76022649991306,2,v,3.8415024000000813,incorrect,b
42,4F4K,43,1,39.053914314551214,29.47975857969737,1.1263205138011094,34.3967176558268,2,c,5.0,incorrect,n
43,4F4K,44,2,55.38710521459264,41.48640543378546,1.5818503888881796,44.83021909488356,1,v,1.6376150999999481,correct,v
44,4F4K,45,2,46.09876039891568,29.494047537846512,1.3040171214630107,34.408625912972894,1,b,1.3280705000001944,incorrect,v
45,4F4K,46,1,49.05539619826512,37.92376015108168,1.3867059387561624,41.671428335417744,2,c,4.442860899999687,incorrect,n
46,4F4K,47,1,59.55953686583652,74.9821578912048,1.7252268879153037,71.24938608094992,1,n,1.267389699999967,incorrect,c
47,4F4K,48,2,48.00030961719568,36.829547600953234,1.3566130617130796,40.70797417503347,1,v,4.782741099999839,correct,v
48,4F4K,49,2,42.34639169292265,58.037555557654144,1.2061352983574232,59.19186425441924,2,b,1.6678901000000224,correct,b
49,4F4K,50,1,21.235287341457934,40.0573783533056,0.7775776301300426,43.560211214293,1,c,3.7935476999996354,correct,c
50,4F4K,51,1,55.43157411954853,36.38311065183512,1.5833138101787447,40.31616636595375,2,n,3.271162799999729,correct,n
51,4F4K,52,1,46.67097783346504,32.06248487998321,1.3196262075756564,36.575237787533545,2,n,4.508793400000286,correct,n
52,4F4K,53,1,50.44888581457026,33.03404864879487,1.4274760836295646,37.407105702836624,2,n,0.8001122000000578,correct,n
53,4F4K,54,2,39.21332381587737,49.689483719463055,1.1300602667858093,52.097981922025134,2,b,1.2299078999999438,correct,b
54,4F4K,55,2,35.8704628116424,44.26518241100276,1.0541746350926855,47.30324235015765,2,b,1.5829819999999017,correct,b
55,4F4K,56,1,31.06977755958107,41.4759999953876,0.9540212634233708,44.82096276760048,1,c,2.7496495999998842,correct,c
56,4F4K,57,1,38.39996630521955,21.637585511105357,1.1111079501423,28.166022500155613,2,c,3.441473700000188,incorrect,n
57,4F4K,58,1,47.91678490109378,66.61728651597386,1.3542588765350627,65.79696749728092,1,c,3.672117900000103,correct,c
58,4F4K,59,2,29.75117762858453,44.74666952134838,0.928217838655822,47.731426254110495,2,b,2.385463200000231,correct,b
59,4F4K,60,1,34.089248403894445,43.66631174749811,1.0158430023775242,46.77038498726951,1,c,2.8588214999999764,correct,c
60,4F4K,61,1,51.03542034271234,68.19230094251473,1.444993106575943,66.90672826617724,1,c,4.023283300000003,correct,c
61,4F4K,62,2,61.3643832116172,46.88000480729392,1.791206286112116,49.6242144616316,1,v,2.8281936000003043,correct,v
62,4F4K,63,1,36.952337016648194,24.05572499052472,1.0781591175339549,30.01563149264237,2,c,2.287495900000067,incorrect,n
63,4F4K,64,1,33.43636595927773,46.58168173028833,1.0021448000254145,49.36009413703032,1,n,1.1763435000002573,incorrect,c
64,4F4K,65,1,41.58512581264771,58.02415871317611,1.1871924106311156,59.18091490412642,1,c,2.0203897000001234,correct,c
65,4F4K,66,1,63.45991704155849,45.44096106421118,1.870984376140964,48.34834135005568,2,c,2.033559399999831,incorrect,n
66,4F4K,67,1,39.91742659139635,55.4864180825978,1.1467276567754914,57.077834955258766,1,c,1.2673574000000372,correct,c
67,4F4K,68,1,55.04657038525841,63.612016635627874,1.570688520477802,63.58439557469427,1,n,0.9821444999997766,incorrect,c
68,4F4K,69,1,66.67790405226651,55.31592282656268,2.0004674043369195,56.93459982377696,2,n,1.9525238999999601,correct,n
69,4F4K,70,1,67.7002717885796,54.72278403250245,2.043451714340613,56.43454037842325,2,n,1.3890439000001606,correct,n
70,4F4K,71,1,53.12737799589485,66.0352385110783,1.5092390561624045,65.37793563941446,1,c,5.0,correct,c
71,4F4K,72,1,48.55104257505745,66.21366985538481,1.3722385269629431,65.50689323863486,1,c,0.8912034999998468,correct,c
72,4F4K,73,1,46.886048515712616,56.86810855794951,1.3255411478448862,58.229834527692766,1,c,1.335584800000106,correct,c
73,4F4K,74,1,58.403401304676976,44.734035429126,1.6842450265263311,47.72019410970769,2,n,1.3572856999999203,correct,n
74,4F4K,75,2,50.87483475104019,64.1369077199247,1.4401759123977682,63.97938833737033,2,b,2.8890080999999554,correct,b
75,4F4K,76,1,62.80310930072912,74.595130726905,1.8456043110103024,71.02247487829416,1,n,0.9822109000001547,incorrect,c
76,4F4K,77,1,40.53726469830555,22.377999443799297,1.1616036896527897,28.724766938911827,2,n,2.264130699999896,correct,n
77,4F4K,78,2,58.98734813132246,40.36437334061549,1.704821206166041,43.83279844169408,1,v,5.0,correct,v
78,4F4K,79,1,55.05336657462548,40.20567979024814,1.570910510239541,43.69187110942053,2,n,1.1156675999995969,correct,n
79,4F4K,80,1,35.74373688683517,44.7691699312364,1.0514003400337848,47.75142941450776,1,n,1.3341455999998288,incorrect,c
80,4F4K,81,1,69.139440145568,54.084001090551766,2.105529668582167,55.89305913333953,2,n,1.590233200000057,correct,n
81,4F4K,82,1,51.91663638226471,40.894652885708695,1.4717157888175527,44.30398985539797,2,c,1.4797859000000244,incorrect,n
82,4F4K,83,1,41.45464549588593,31.2718288118774,1.1839756126641108,35.902998946133195,2,n,1.0139299999996183,correct,n
83,4F4K,84,1,47.63683984921451,32.84221587628331,1.3463982396015377,37.242371390356816,2,c,3.289813299999878,incorrect,n
84,4F4K,85,2,38.68801321307137,46.64956190050566,1.117783199580836,49.420211162817154,2,b,2.3298107999999047,correct,b
85,4F4K,86,1,56.549030541476654,72.87935110670436,1.6205358269565868,69.98541587753897,1,c,3.0044802999996136,correct,c
86,4F4K,87,1,48.2711780663922,53.45785677147728,1.3642758142098133,55.35948070004972,1,n,2.1290407000001323,incorrect,c
87,4F4K,88,2,45.729886108709046,59.119631590066135,1.2940528895377663,60.07053225335483,2,v,1.722606999999698,incorrect,b
88,4F4K,89,2,42.55697922686144,61.61404045495674,1.2114286000412684,62.04994294677422,2,b,0.8317833000000974,correct,b
89,4F4K,90,1,48.00024707870226,51.891468708610034,1.3566112975048554,54.01346371576435,1,n,2.2641693000000487,incorrect,c
90,4F4K,91,2,45.18369655183476,31.16602365643724,1.2794385841788611,35.813380545675,1,v,1.0494466999998622,correct,v
91,4F4K,92,1,53.9401852364893,45.68168983590601,1.5349647842305865,48.56206568396063,2,n,2.044285399999808,correct,n
92,4F4K,93,2,43.07882943553551,52.94855796962241,1.2246460878680792,54.92352622755024,2,b,3.1501954000000296,correct,b
93,4F4K,94,1,41.76858868042128,56.304045509772806,1.1917302036849702,57.7614731360886,1,c,2.3792809999999918,correct,c
94,4F4K,95,2,38.80320162713128,59.92501581446935,1.120463807669852,60.71690736449035,2,v,2.0138300999997227,incorrect,b
95,4F4K,96,2,33.532153718856904,51.37460581823589,1.0041429119203076,53.56610675763897,2,b,0.9881761999999981,correct,b
96,4F4K,97,2,49.936373328137606,63.13389350258422,1.4123436827484717,63.2215899119012,2,b,4.1018810000000485,correct,b
97,4F4K,98,2,47.35119421787742,59.407247259113696,1.3384245622713162,60.302128444940784,2,b,1.230929699999706,correct,b
98,4F4K,99,2,31.690753755577614,45.715452442820975,0.966420265336922,48.59203266597908,2,b,1.4494473999998263,correct,b
99,4F4K,100,1,54.13584665626895,38.84292548582177,1.5412227636624256,42.483715038292125,2,c,4.0239355999997315,incorrect,n
100,4F4K,101,2,61.69047040583068,48.4347826116772,1.803393356706709,50.99663113981856,1,v,2.5493264000001545,correct,v
101,4F4K,102,1,44.41868634924927,59.81069602969428,1.259246385971779,60.62556700531427,1,c,2.622164800000064,correct,c
102,4F4K,103,2,64.90493245148684,52.47532678992762,1.9280573612577947,54.51695572251055,1,v,1.680058999999801,correct,v
103,4F4K,104,2,50.74432017584979,36.03273354361086,1.4362726111175594,40.00923911276468,1,v,2.9366033000001153,correct,v
104,4F4K,105,2,49.287585191910246,35.91716609850154,1.3934174694406365,39.90811917811052,1,v,1.7589325999997527,correct,v
105,4F4K,106,2,55.44472008971536,75.24754740771503,1.5837466883829876,71.4034651245579,2,v,2.0144509000001563,incorrect,b
106,4F4K,107,1,55.05819126605672,41.27319644075252,1.5710681223156553,44.64057566273426,2,c,4.254728399999749,incorrect,n
107,4F4K,108,1,31.885458720531304,53.024529176237145,0.970341016205538,54.988664106704505,1,n,0.7578580999997939,incorrect,c
108,4F4K,109,2,52.73705446429275,32.908064938456974,1.4970388212932688,37.298892426811854,1,v,2.142765900000086,correct,v
109,4F4K,110,2,48.589767265740136,63.25458530935608,1.373343977087063,63.31343948120275,2,v,2.695020300000124,incorrect,b
110,4F4K,111,2,42.3142055931332,59.83622999438423,1.2053283127853194,60.64598027547908,2,v,2.3284927999998217,incorrect,b
111,4F4K,112,1,69.74865025796741,62.49349984521133,2.1323725384872225,62.7312635865102,2,c,1.3524035000000367,incorrect,n
112,4F4K,113,2,32.9370778351188,53.77054932620665,0.991793953495886,55.62628477325513,2,v,1.619379199999912,incorrect,b
113,4F4K,114,1,53.78380703773126,62.702674310541,1.5299815028328958,62.891966215249866,1,n,1.959251100000074,incorrect,c
114,4F4K,115,2,51.05470317153977,63.68357030056748,1.4455726290873057,63.6384463157243,2,b,4.819455100000141,correct,b
115,4F4K,116,1,40.044458722636,54.58407067069636,1.1497608097950691,56.31721040466699,1,n,1.1267949000002773,incorrect,c
116,4F4K,117,2,54.41701018107703,30.73861115363711,1.5502601179530595,35.45220438581474,1,v,2.061395900000207,correct,v
117,4F4K,118,2,58.43567736873321,46.69783985769519,1.6853758070173952,49.46296097368074,1,v,1.8488868999997976,correct,v
118,4F4K,119,1,76.05085049843765,64.22223099907556,2.430958921725759,64.04326471720411,2,c,2.792060699999638,incorrect,n
119,4F4K,120,2,43.02410395990232,52.8386570852223,1.223253252541287,54.82923167302289,2,v,2.3792985999998564,incorrect,b
120,4F4K,121,1,40.97208548825631,35.677422208030805,1.1721543560246468,39.69853657440405,2,c,4.970635600000151,incorrect,n
121,4F4K,122,1,40.28381978596314,51.96428398705251,1.1554978645368843,54.07636565915126,1,n,0.709380499999952,incorrect,c
122,4F4K,123,2,67.2777883478178,45.25450068133893,2.02557801364984,48.18273107229221,1,b,3.793411600000127,incorrect,v
123,4F4K,124,2,51.279679003288045,66.39512869325391,1.452351209644023,65.63758657048649,2,b,2.0078103999999257,correct,b
124,4F4K,125,2,57.17933681377527,69.85429771570936,1.6419157533949398,68.03795161478907,2,b,2.2323504000000867,correct,b
125,4F4K,126,2,60.47084091101836,74.87645590493241,1.758231731421854,71.18767366678841,2,b,0.8911195000000589,correct,b
126,4F4K,127,1,37.84023141632296,52.97108515175127,1.098250337278235,54.94284494760203,1,c,1.3704251999997723,correct,c
127,4F4K,128,1,69.10192835427299,49.91574220570044,2.103887920517668,52.29589151372257,2,c,1.379014599999664,incorrect,n
128,4F4K,129,2,37.418548514481984,56.74789724507114,1.0886622637413998,58.13024905665812,2,v,1.704939100000047,incorrect,b
129,4F4K,130,1,53.6834235024086,38.11148313095853,1.526791124517718,41.83712222081185,2,c,3.253338700000313,incorrect,n
130,4F4K,131,1,55.56215845156918,38.1692214710663,1.587619022434223,41.88810679466663,2,n,5.0,incorrect,n
131,4F4K,132,2,35.74899873576446,51.11105393690018,1.051515387474975,53.33743315416124,2,v,2.7508326000001944,incorrect,b
132,4F4K,133,2,49.757592953721954,67.28449094217714,1.4071028545129824,66.27144515738368,2,b,2.5554409999999734,correct,b
133,4F4K,134,1,57.92915143237797,70.38635049077944,1.6677170563591333,68.39111511522201,1,n,2.6403533000002426,incorrect,c
134,4F4K,135,2,52.67843450473562,38.85704917952971,1.49521509094871,42.49621471436059,1,v,3.1738444000002346,correct,v
135,4F4K,136,2,25.008627562022777,39.75686674578198,0.8410472898999652,43.293544865974525,2,v,1.881754699999874,incorrect,b
136,4F4K,137,1,58.2380942417003,45.07056338696681,1.678465434580195,48.019309220781416,2,c,3.6706914999999753,incorrect,n
137,4F4K,138,1,21.298381813083008,34.96122163294589,0.7785984913648205,39.07404273493534,1,c,3.2290750000001935,correct,c
138,4F4K,139,2,55.43371537142893,66.43943951833255,1.583384310507424,65.66943123719801,2,v,1.887016599999697,incorrect,b
139,4F4K,140,2,41.72777874556584,53.54500336866318,1.1907193080960032,55.43390506913699,2,v,2.232354199999918,incorrect,b
140,4F4K,141,2,44.70254413017993,62.166876110496496,1.2667012651341387,62.47928525353833,2,b,2.093034400000306,correct,b
141,4F4K,142,1,34.67074105223005,51.662970760443166,1.0282009367411151,53.81587760222336,1,n,4.042289299999993,incorrect,c
142,4F4K,143,2,45.58766447786256,34.58657354505776,1.2902314907580403,38.74838138362724,1,v,2.415175999999974,correct,v
143,4F4K,144,2,73.99971416368746,60.05470581133192,2.329453327093351,60.82036176316941,1,b,1.3826880000001438,incorrect,v
144,4F4K,145,2,55.023001695570855,43.52813019209552,1.5699189191560154,46.64740359107408,1,v,1.8088215000002492,correct,v
145,4F4K,146,1,56.14327630235005,39.65687028684672,1.6069202031434238,43.20484959316814,2,c,2.173056000000088,incorrect,n
146,4F4K,147,1,66.70355463581903,53.93599205594568,2.0015347160461485,55.76717645880503,2,n,1.207001499999933,correct,n
147,4F4K,148,2,41.00528705610408,27.818538946522835,1.1729638992499714,33.024402412617896,1,v,1.8852288000002773,correct,v
148,4F4K,149,2,36.99830739017247,50.51965182067006,1.079190251758089,52.82298428349399,2,v,1.3450385000001006,incorrect,b
149,4F4K,150,2,70.2688171415112,55.92342909466916,2.155562680097949,57.44391183496976,1,v,1.692706299999827,correct,v
150,4F4K,151,1,27.220966358275493,44.81657438718987,0.8806428753453674,47.7935705530061,1,c,2.148831599999994,correct,c
151,4F4K,152,2,40.811744679099554,50.45069415701946,1.1682526748085915,52.76288557370463,2,v,3.6235528000001977,incorrect,b
152,4F4K,153,2,73.91671913610024,64.7462410949746,2.3254365466237004,64.43349599632879,1,b,1.1525176000000101,incorrect,v
153,4F4K,154,2,34.84479539540398,26.57717996446361,1.031929107075426,32.01565273310515,1,v,1.9592662000000018,correct,v
154,4F4K,155,2,50.94276813987756,29.058127159836918,1.4422117930932574,34.046113127767605,1,v,2.5504672000001847,correct,v
155,4F4K,156,2,58.65291959996288,45.97055458608505,1.693006588929701,48.81838654333573,1,b,1.0246335000001636,incorrect,v
156,4F4K,157,2,44.193422810774486,22.46539270640195,1.2533615879509945,28.79116942363626,1,v,1.3219108999996934,correct,v
157,4F4K,158,1,62.32887907379472,47.38569022937728,1.827493623355828,50.07138899894978,2,n,2.0380144000000655,correct,n
158,4F4K,159,1,48.16631951631943,37.41907175288747,1.3613042894962095,41.22652912700404,2,c,4.2984081999998125,incorrect,n
159,4F4K,160,2,75.66497874755684,62.18142306714447,2.411531010866957,62.49053454244997,1,b,1.9219425000001138,incorrect,v
160,4F4K,161,1,50.26231965351875,39.03094220661109,1.4219488697043303,42.65015402188755,2,c,3.368444300000192,incorrect,n
161,4F4K,162,2,51.4024128321088,35.552064284904795,1.4560626028261303,39.58905387151555,1,v,1.6740086999998312,correct,v
162,4F4K,163,2,44.144883094078615,63.82741545108778,1.2520971393699132,63.74691021607709,2,b,1.0176557999998295,correct,b
163,4F4K,164,2,66.55579821745147,59.60012811782725,1.9953944218133777,60.45696811666559,1,b,1.4312306000001627,incorrect,v
164,4F4K,165,1,66.46581091473819,48.850576152999054,1.9916640644882024,51.36229093287252,2,n,3.8471544999997604,correct,n
165,4F4K,166,1,48.762380418919086,35.27497837709875,1.37828230117693,39.34731977471312,2,c,3.2890222000000904,incorrect,n
166,4F4K,167,1,35.13798263137621,53.60348887450451,1.038239642112936,55.48382369064173,1,c,1.261311900000237,correct,c
167,4F4K,168,2,37.66582944927463,53.61681250906253,1.0942746503792051,55.49519244633841,2,v,2.0447425999996085,incorrect,b
168,4F4K,169,1,41.29564454730729,22.018540505138,1.1800674608569894,28.452644284450617,2,c,1.2481382999999369,incorrect,n
169,4F4K,170,1,53.242812808450125,64.8676594715428,1.512866184293025,64.52340516133701,1,n,1.5040804000000207,incorrect,c
170,4F4K,171,2,45.22822509756124,28.35076968989282,1.2806238226863536,33.461387065615725,1,v,2.7191491000003225,correct,v
171,4F4K,172,2,46.970847132645694,36.31979576292596,1.3278805864843628,40.26066465561264,1,v,1.4372255000002951,correct,v
172,4F4K,173,2,32.53763714557267,43.97623808629776,0.9835900967384104,47.04618029418938,2,b,4.084865300000274,correct,b
173,4F4K,174,1,49.7607199131956,64.41968833312428,1.4071943519506829,64.19072980731438,1,n,2.3320229000000836,incorrect,c
174,4F4K,175,2,47.1845219346933,56.58029989454961,1.3337938092844128,57.99119860520147,2,v,3.709698599999683,incorrect,b
175,4F4K,176,1,53.862591838369056,71.25206374460362,1.5324901011919965,68.95618396566141,1,n,3.6892750000001797,incorrect,c
176,4F4K,177,1,38.77703748977893,54.19825422114086,1.1198543650370385,55.99012599037962,1,c,1.4313572000000931,correct,c
177,4F4K,178,2,56.802117762759366,40.64432495065746,1.6290868656993935,44.08150544482249,1,b,1.9835227999997187,incorrect,v
178,4F4K,179,2,67.50564725797348,58.587185682932514,2.0351983664240607,59.63960360027925,1,v,1.7846838999998909,correct,v
179,4F4K,180,2,38.39997501669955,51.92188773272535,1.1111081514196723,54.03974510313487,2,v,1.4555119999999988,incorrect,b
180,4F4K,181,2,52.923563785829685,66.41044083313656,1.5028561387772392,65.64859397629802,2,v,1.4250711999998202,incorrect,b
181,4F4K,182,1,64.2889294175093,51.56512224317405,1.903517564833928,53.731176393001554,2,c,3.2411502999998447,incorrect,n
182,4F4K,183,1,61.47731733137921,41.74147030439161,1.7954176962653297,45.05714428772355,2,c,1.747074800000064,incorrect,n
183,4F4K,184,1,54.91208775316365,72.41158166803368,1.5663022452621884,69.69403630179171,1,n,1.1885357000001022,incorrect,c
184,4F4K,185,2,54.62616250262719,67.83917457618936,1.5570171929456806,66.66104111640105,2,b,4.976868400000058,correct,b
185,4F4K,186,1,73.3753259987068,57.63882296800057,2.2994037026409555,58.86525719470863,2,n,4.279023999999936,correct,n
186,4F4K,187,2,54.420809389669024,42.18852984859575,1.5503825969396416,45.45498880764257,1,v,2.141303699999753,correct,v
187,4F4K,188,1,47.15646936564558,27.39413199888856,1.3330159851948955,32.67784272404424,2,c,2.972848100000192,incorrect,n
188,4F4K,189,2,55.2058454580496,39.45227008704155,1.5758993155622272,43.02343723694696,1,b,1.9167842000001656,incorrect,v
189,4F4K,190,1,67.1884289790512,47.663013585632974,2.0218176283424723,50.31631414619121,2,n,4.0290500999999495,correct,n
190,4F4K,191,1,44.08144141301466,35.637420715245106,1.250446420996871,39.66359294739079,2,c,3.6538621999998213,incorrect,n
191,4F4K,192,1,46.4613139340816,59.18901443379183,1.3138853744429562,60.12647801506191,1,c,2.4158700999996654,correct,c
192,4F4K,193,2,48.4531115209508,38.536237952963326,1.3694469177326791,42.21242192849634,1,b,4.350864099999853,incorrect,v
193,4F4K,194,1,55.7492303298833,39.83351031640227,1.5938069682760418,43.36154001770475,2,n,2.1655668999997033,correct,n
194,4F4K,195,2,48.149342418636415,32.799118515765315,1.3608237946660402,37.20539400524362,1,v,2.384061400000064,correct,v
195,4F4K,196,1,46.65688194823748,28.96992158371736,1.3192394611087022,33.9729591902051,2,n,5.0,correct,n
196,4F4K,197,1,50.9094343544254,36.37745801601936,1.4412124608829449,40.31121059893776,2,n,0.9761923999999453,correct,n
197,4F4K,198,1,45.21072863149887,62.87006858018951,1.2801579796273572,63.0201907508948,1,n,1.3536503000000266,incorrect,c
198,4F4K,199,1,53.017788120190176,70.721616276654,1.5058036314777927,68.61136744406821,1,n,2.8164802000001146,incorrect,c
199,4F4K,200,1,39.94319715678812,58.44279613216739,1.1473423342814175,59.522262866722606,1,c,1.619323599999916,correct,c
200,4F4K,201,2,56.396544500400125,70.69392981729125,1.6154054759362546,68.59324640337246,2,b,3.7264625999996497,correct,b
201,4F4K,202,2,54.39832835273017,46.26243419560439,1.549657993432528,49.07721297648597,1,v,1.710424200000034,correct,v
202,4F4K,203,1,58.97394759530578,42.78580067504753,1.704346213157826,45.98663257236693,2,n,2.202056200000243,correct,n
203,4F4K,204,1,45.41136654084124,37.83663366850207,1.2855101454772726,41.594563678768594,2,c,1.8137587999999596,incorrect,n
204,4F4K,205,1,72.80020348926745,64.5273087943606,2.2720681436738754,64.27089056935142,2,n,4.455008400000224,correct,n
205,4F4K,206,1,48.01191440424865,60.33107398424925,1.3569404719751583,61.04022582970979,1,c,1.467656100000113,correct,c
206,4F4K,207,1,47.99790230929927,67.73681301260551,1.3565451533158566,66.58948121808821,1,c,1.0246583999996801,correct,c
207,4F4K,208,1,50.45317625905759,38.24622480219423,1.4276034448514645,41.956118476159695,2,n,3.568695999999818,correct,n
208,4F4K,209,2,74.51930238773798,59.122998252475966,2.35475844212332,60.07324802909683,1,b,1.995695699999942,incorrect,v
209,4F4K,210,2,55.83772538836405,72.83489958922043,1.596742596901737,69.95788369874288,2,b,1.1821896000001288,correct,b
210,4F4K,211,2,60.12566564544527,49.60883372805495,1.7456568236721348,52.0273824814548,1,v,1.6010999000000083,correct,v
211,4F4K,212,1,49.70105571382602,30.529971800946814,1.4054495536344485,35.276401682334345,2,n,3.932980000000043,correct,n
212,4F4K,213,1,62.2571524574836,73.87635052407055,1.8247699244779585,70.59415925800475,1,n,2.140306399999645,incorrect,c
213,4F4K,214,2,42.92335197809892,49.03237678107449,1.220693123645956,51.52196543954138,2,v,3.11372719999963,incorrect,b
214,4F4K,215,1,60.93125717447303,45.511996631756034,1.7751460353750244,48.4114187137496,2,c,4.479249500000151,incorrect,n
215,4F4K,216,2,64.80640123646697,42.990483529550254,1.924111010643785,46.16883591634264,1,v,1.7105022999999164,correct,v
216,4F4K,217,1,61.71175325675018,47.06374593110096,1.804191651118955,49.7867763525876,2,n,1.5040743999998085,correct,n
217,4F4K,218,1,28.961255586596728,39.25018326374045,0.9130955025001936,42.844343278560046,1,n,2.067557500000021,incorrect,c
218,4F4K,219,2,46.011392482547215,60.01512605726816,1.301650179866226,60.78880762852285,2,b,3.5750441000000137,correct,b
219,4F4K,220,1,72.6570247383313,58.57167074515313,2.265313533627106,59.62700484242366,2,n,1.5526285000000826,correct,n
220,4F4K,221,1,58.37516320853714,42.63612636032554,1.6832563370753837,45.85339730180947,2,n,2.3168550000000323,correct,n
221,4F4K,222,1,51.50366996427561,68.07901919595986,1.4591316932788123,66.82811266582793,1,n,1.8560663000002933,incorrect,c
222,4F4K,223,1,60.657083628561125,73.32468296185499,1.765054228690539,70.25940788311067,1,n,5.0,incorrect,c
223,4F4K,224,1,43.10308973855329,36.71417692602457,1.2252640517420257,40.60664510178405,2,n,0.0003910999998879561,correct,n
224,4F4K,225,2,36.489131762145696,59.12852655498176,1.0678240539784147,60.07770728109436,2,b,3.017732700000124,correct,b
225,4F4K,226,1,52.729655448195,38.93114541775663,1.4968085072916242,42.56179932425572,2,n,1.836712599999828,correct,n
226,4F4K,227,2,43.36025891185048,31.851506934163822,1.2318339261635067,36.39542799240858,1,v,1.9956680000000233,correct,v
227,4F4K,228,2,47.25002566129209,28.08424934063672,1.3356118233284342,33.242236104023654,1,b,2.1898682999999437,incorrect,v
228,4F4K,229,2,31.525100486033494,43.1982101653016,0.9630970003510028,46.35374505162982,2,v,0.856145799999922,incorrect,b
229,4F4K,230,1,38.35501101148135,53.77516200202954,1.1100697506003334,55.63021551998621,1,n,3.312868200000139,incorrect,c
230,4F4K,231,2,47.38509540064968,39.9513986942045,1.3393684243814747,43.46614811613672,1,b,4.461056799999824,incorrect,v
231,4F4K,232,1,64.17664133461388,50.8595022600358,1.899078102874308,53.1188307101374,2,n,2.730472699999609,correct,n
232,4F4K,233,2,42.21780553964431,58.72404898268736,1.2029145525306115,59.75064007334151,2,v,3.0724402000000737,incorrect,b
233,4F4K,234,1,48.49565523144653,63.32325881634257,1.370658964566666,63.365621581913445,1,n,2.2398275000000467,incorrect,c
234,4F4K,235,2,43.379807233580046,63.47764743073812,1.232334763419247,63.482721536145945,2,b,1.7104104000000007,correct,b
235,4F4K,236,2,52.79157044307126,40.99669764943412,1.4987368685778506,44.39470762826492,1,v,0.8076000000000931,correct,v
236,4F4K,237,1,63.328286694595626,53.33884398069718,1.8658701648343516,55.257759903078814,2,n,2.5189330999996855,correct,n
237,4F4K,238,2,67.35184777612969,59.66864728966874,2.0286998526366893,60.51188108559134,1,b,3.2715776999998525,incorrect,v
238,4F4K,239,2,54.76811721974384,66.06395924803302,1.5616200882808629,65.39872262937126,2,b,1.7832413999999517,correct,b
239,4F4K,240,2,60.72255028897565,73.42160826994724,1.7674587055453723,70.31859734470673,2,b,1.1400045000000318,correct,b
240,4F4K,241,1,57.47921534451317,51.79335483710096,1.6521863991442665,53.928659281682044,2,n,4.60582260000001,correct,n
241,4F4K,242,2,51.65913512375276,33.5418999053691,1.463856417536048,37.84431355616519,1,v,2.80430989999968,correct,v
242,4F4K,243,1,60.827035102275694,50.19083097565452,1.771303038937946,52.53620151975452,2,n,2.4815717000001314,correct,n
243,4F4K,244,1,36.59291351244418,46.02559535471589,1.0701309929824718,48.86720788164535,1,c,5.0,correct,c
244,4F4K,245,1,51.76308918364002,71.55859904332429,1.4670242057299208,69.15338109579756,1,c,1.0853300999997373,correct,c
245,4F4K,246,2,53.76962509657911,71.61936476140322,1.5295303698929217,69.19229120478123,2,b,2.2323490999997375,correct,b
246,4F4K,247,2,55.59045131843189,49.45168707598966,1.588553346912092,51.88973899173988,1,v,1.139936999999918,correct,v
247,4F4K,248,2,51.29814560706095,44.2849970961363,1.4529090228414483,47.32086807800193,1,v,1.1945859000002201,correct,v
248,4F4K,249,2,62.80176514250698,42.13779511396376,1.845552725273831,45.409833861340005,1,v,1.1523686000000453,correct,v
249,4F4K,250,2,38.35745701502318,22.626610692486206,1.1101262137512828,28.91391190764746,1,v,1.5951083999998446,correct,v
250,4F4K,251,1,53.465903787711454,62.36808646059749,1.519900745079513,62.63466133944777,1,n,1.109538000000157,incorrect,c
251,4F4K,252,1,53.47861021423952,64.10436660742259,1.5203023904354498,63.95500219970606,1,c,1.024641099999826,correct,c
252,4F4K,253,2,53.35956450004306,63.264203601315046,1.516543557488326,63.32075152521665,2,v,2.318683200000123,incorrect,b
253,4F4K,254,2,50.28247275127053,67.16286326637665,1.4225448933794462,66.18542308112954,2,v,1.387539299999844,incorrect,b
254,4F4K,255,2,73.44703140265909,55.957854901092,2.302834836418713,57.47268384066459,1,v,1.2613756999999168,correct,v
255,4F4K,256,2,50.54354689755221,57.01855834266195,1.4302887261158468,58.354291597944616,2,v,3.3198836999999912,incorrect,b
256,4F4K,257,1,69.18736437898589,57.22367897964232,2.1076289935613026,58.52365099665427,2,n,1.4191227999999683,correct,n
257,4F4K,258,1,49.09757862452861,59.604627731724506,1.3879228338322538,60.46057571091566,1,c,1.4553866000001108,correct,c
258,4F4K,259,2,42.253713212421765,52.498697123398365,1.203813079056957,54.53706669022098,2,v,2.402298200000132,incorrect,b
259,4F4K,260,2,57.69672730482439,48.88017399005682,1.6596762200912778,51.38829529637018,1,v,1.7248242000000573,correct,v
260,4F4K,261,1,62.96782366603544,48.71197882598728,1.8519366004937736,51.240476251471385,2,n,1.686883299999863,correct,n
261,4F4K,262,2,59.65727013639279,46.66790547301491,1.728736642504345,49.436454947173786,1,v,1.7676045000002887,correct,v
262,4F4K,263,1,46.76084028925891,67.78200732127303,1.3220944156194536,66.621094954865,1,c,2.6766796000001705,correct,c
263,4F4K,264,2,34.55094148606546,49.08851235125128,1.0256427094972822,51.57124278884916,2,b,1.3710376999997607,correct,b
264,4F4K,265,2,35.80834751110241,52.092675407074296,1.052813887982866,54.18720245336653,2,b,1.7968062999998438,correct,b
265,4F4K,266,1,59.25943998456406,46.65855559444908,1.714494408896154,49.4281754515513,2,n,4.0553989,correct,n
266,4F4K,267,1,59.479743908150645,42.555235472556944,1.7223666823594428,45.78139201877158,2,n,0.891125899999679,correct,n
267,4F4K,268,1,44.7298427635976,58.46121164997619,1.2674205237917202,59.537239831291664,1,c,1.9276433999998517,correct,c
268,4F4K,269,2,60.49148606375952,47.64005757610153,1.7589867091762337,50.29604877838102,1,v,2.0820865999999114,correct,v
269,4F4K,270,2,51.10354856828155,44.24133368424193,1.4470416597182365,47.28202775598594,1,v,1.6485947000001033,correct,v
270,4F4K,271,2,29.75194609426832,46.57109887101717,0.928232671504798,49.35072059271951,2,b,0.7272226999998566,correct,b
271,4F4K,272,1,54.7158565566324,63.2363432420262,1.5599239507666922,63.299568310815445,1,n,1.0429252999997516,incorrect,c
272,4F4K,273,2,42.08042583914349,48.97332087781745,1.1994830535325731,51.47011110022101,2,b,0.9593187000000398,correct,b
273,4F4K,274,1,44.30626179272891,32.68986171143135,1.2563059544932484,37.11170525501413,2,n,2.889212299999599,correct,n
274,4F4K,275,2,51.299580953764,34.908769471329066,1.4529523887484297,39.028405595356126,1,v,3.9269561000000976,correct,v
275,4F4K,276,2,61.19155392510269,55.33132423028901,1.7847804523025652,56.94754813796269,1,v,2.0493398000003253,correct,v
276,4F4K,277,1,58.04038723165265,46.70910278413695,1.6715790899112937,49.47293339599965,2,c,1.4130716999998185,incorrect,n
277,4F4K,278,2,41.13757077285276,59.13139222747972,1.176194886228709,60.08001867522103,2,b,1.5115656000002673,correct,b
278,4F4K,279,2,63.63578743238521,52.80486868838519,1.877839321246694,54.80022594341475,1,v,1.164202099999784,correct,v
279,4F4K,280,1,42.204151472663455,58.10769008502832,1.2025730594795043,59.24915806916456,1,c,2.2127559000000474,correct,c
280,4F4K,281,2,46.76081654518274,62.57517053841664,1.322093762843187,62.79407122757125,2,b,3.356316099999731,correct,b
281,4F4K,282,1,48.65647461745096,59.93319739283481,1.3752503198540382,60.72343909822924,1,c,1.1765608000000611,correct,c
282,4F4K,283,2,40.25207566182053,55.83336955668546,1.154735371502302,57.36859698245295,2,b,1.4253033000004507,correct,b
283,4F4K,284,2,38.86129450755348,43.34360728266897,1.1218181542055192,46.48316589372799,2,b,1.5468477999997958,correct,b
284,4F4K,285,2,32.115312436395044,44.057462039697015,0.974990031131302,47.11844869745221,2,b,0.9699862000002213,correct,b
285,4F4K,286,2,55.71367126218108,37.56216102256941,1.5926288951536296,41.35258036234014,1,v,0.7333134999998947,correct,v
286,4F4K,287,1,45.63729754908689,58.28746865713494,1.2915638141033707,59.39580791382348,1,c,2.4144185000000107,correct,c
287,4F4K,288,2,64.7430680026989,51.33533200277609,1.9215786674810449,53.53205402536349,1,v,1.8366665999997167,correct,v
288,4F4K,289,1,44.56452880589532,59.63295662984567,1.2630711100578678,60.483283773515794,1,c,1.7407861000001503,correct,c
289,4F4K,290,1,54.90572485746259,36.64642378798671,1.5660950172983916,40.5471624319192,2,n,0.8258349000002454,correct,n
290,4F4K,291,1,61.46990652788153,45.471714789112085,1.7951410377434194,48.37565073895393,2,n,0.5452897000000121,correct,n
291,4F4K,292,2,34.338408380968104,19.30264319538908,1.0211198815070306,26.450831516368897,1,b,1.651339800000187,incorrect,v
292,4F4K,293,1,43.37620327990344,61.20793830948525,1.232242413112487,61.73231935682156,1,c,1.843856599999981,correct,c
293,4F4K,294,2,52.09705407090837,38.50308635730712,1.4772475662891824,42.18311161064205,1,v,2.3065695000000233,correct,v
294,4F4K,295,1,55.297785665100335,41.8994128529049,1.5789150693201193,45.19768613550433,2,n,2.1170266999997693,correct,n
295,4F4K,296,1,59.83189246820132,37.09171202105645,1.7350253887846698,40.9384203654618,2,n,1.164198899999974,correct,n
296,4F4K,297,2,59.74309170061096,35.90677928977613,1.7318245164259911,39.899033749338415,1,v,2.35606289999987,correct,v
297,4F4K,298,1,47.207461341858206,54.73416924697527,1.3344301961226412,56.44416413115681,1,c,1.225253099999918,correct,c
298,4F4K,299,1,66.37631854723038,46.8282474809813,1.9879611407738569,49.578407119359696,2,n,2.3126775999999154,correct,n
299,4F4K,300,2,59.8555048912253,52.42242122049213,1.735877506766733,54.47141636676997,1,v,1.308614099999886,correct,v
300,4F4K,301,1,60.90611874436486,36.32729465900455,1.7742183398775513,40.26723730160759,2,n,1.1341161999998803,correct,n
301,4F4K,302,1,37.59096207943812,53.34952322957173,1.0925723836357508,55.26689136386863,1,c,1.3355470999999852,correct,c
302,4F4K,303,2,47.59632594512106,63.74619526263986,1.3452644266309737,63.6856996228494,2,v,2.4097532999999203,incorrect,b
303,4F4K,304,1,53.29197712012983,44.86644168614318,1.514413643511512,47.837898027201206,2,n,3.2898047000003316,correct,n
304,4F4K,305,2,47.912591815101,66.4317216496407,1.354140800097376,65.66388664073884,2,v,1.182417400000304,incorrect,b
305,4F4K,306,2,43.78222121936852,55.11588348983626,1.2426901622242188,56.7662540113819,2,b,1.8560725000002094,correct,b
306,4F4K,307,1,30.64936289820281,45.23299329825057,0.9457172958443182,48.16362513055039,1,c,1.977414399999816,correct,c
307,4F4K,308,1,76.58877013093499,63.03181375026962,2.45830360795266,63.14376492653343,2,n,0.8561072000002241,correct,n
308,4F4K,309,1,26.17264280805265,39.7493344442005,0.861653231021859,43.28686313215018,1,c,1.424095600000328,correct,c
309,4F4K,310,1,46.89501696877706,34.330939003130865,1.3257883760218434,38.52659467390297,2,c,3.628605100000186,incorrect,n
310,4F4K,311,2,64.27332967600591,53.151411202145766,1.9029001876600715,55.09736993692429,1,v,4.509617700000035,correct,v
311,4F4K,312,1,52.7295755200703,68.45088829372862,1.4968060195101964,67.08547104725125,1,c,3.132913500000086,correct,c
312,4F4K,313,1,65.21006574617857,52.82143622592693,1.940329911173044,54.814449287225166,2,n,2.2566094999997404,correct,n
313,4F4K,314,1,41.84385127795981,51.96533033648278,1.1935967714182052,54.07726933156882,1,c,0.76366999999982,correct,c
314,4F4K,315,2,62.410255835594285,39.15740915057364,1.8305886934905775,42.76215611090395,1,v,0.678713400000106,correct,v
315,4F4K,316,1,42.90134118851983,60.618968949435526,1.2201345384119897,61.26838632808924,1,c,0.932190300000002,correct,c
316,4F4K,317,1,50.09745266781764,61.36453031598052,1.4170823312671423,61.85501585172985,1,c,1.1049599999996644,correct,c
317,4F4K,318,1,57.78257713192783,69.02030754261598,1.662641715256581,67.47554235984515,1,n,1.3586364999996476,incorrect,c
318,4F4K,319,2,29.065188105107644,41.5760036438151,0.9150710330831434,44.909926517382665,2,b,3.3636089999999967,correct,b
319,4F4K,320,2,65.86415771009857,49.51953190936928,1.966901527628208,51.94917665564983,1,v,0.6180368999998791,correct,v
320,4F4K,321,2,53.621032339979024,49.16368690725472,1.5248115688194412,51.63721338194152,1,v,4.4236000999999305,correct,v
321,4F4K,322,2,46.49568499778477,56.28631165061507,1.3148247783818998,57.74670404227631,2,b,2.742523600000368,correct,b
322,4F4K,323,2,63.36636830658523,51.06209617968261,1.867348304348497,53.29491385287379,1,v,0.7524962000002233,correct,v
323,4F4K,324,2,58.35046771222304,46.35750636951696,1.6823921590351738,49.16147947068409,1,v,0.8131883000000926,correct,v
324,4F4K,325,2,61.24183569338079,45.2834075746046,1.7866475589422253,48.2084091956612,1,v,0.6192988999996487,correct,v
325,4F4K,326,1,34.13308109597937,48.73707816226912,1.0167693401923068,51.26254171777266,1,c,1.1398957999999766,correct,c
326,4F4K,327,2,47.91416214409749,66.05015965055051,1.354185019032544,65.38873641718726,2,b,2.9742024000001948,correct,b
327,4F4K,328,1,60.79513987001576,45.03476222871768,1.770128624615102,47.98749542052944,2,n,2.616154999999708,correct,n
328,4F4K,329,1,41.93827958364634,53.38513608689367,1.195942798409935,55.29733721858999,1,c,1.6072473999997783,correct,c
329,4F4K,330,1,46.24812325458269,38.746997050424525,1.308073581789039,42.398830662587386,2,c,2.1109755999996196,incorrect,n
330,4F4K,331,2,44.86461613930293,64.72275107608297,1.2709774942827272,64.41607950352774,2,b,2.0805872999999337,correct,b
331,4F4K,332,1,51.03312591059191,66.7320177080092,1.444924165613104,65.87900701620178,1,n,2.2322204000001875,incorrect,c
332,4F4K,333,1,56.30088892787201,47.423202872013015,1.6121954637171392,50.1045326104147,2,c,5.0,incorrect,n
333,4F4K,334,1,37.96400497701848,49.5147702981658,1.1010806534907966,51.94500572947126,1,c,1.8075416000001496,correct,c
334,4F4K,335,2,52.20141393191357,65.8975020009716,1.4804568255853046,65.27808954751136,2,v,1.6376233000000866,incorrect,b
335,4F4K,336,1,48.96325783975362,61.21257672341208,1.3840516046811824,61.73595772315031,1,n,4.891062199999851,incorrect,c
336,4F4K,337,2,66.05653911616241,47.647926834143945,1.974785796134136,50.30299587421213,1,v,0.7637837999996009,correct,v
337,4F4K,338,1,54.082009926842446,70.00092093044125,1.5394983251046743,68.13571842004345,1,c,1.9132171000001108,correct,c
338,4F4K,339,2,27.87950478314302,36.40920298569672,0.8927852786264988,40.339043695514064,2,v,1.8985677000000578,incorrect,b
339,4F4K,340,1,32.72834773623632,42.20074321238582,0.9874984796260698,45.46585911852609,1,n,3.4596911999997246,incorrect,c
340,4F4K,341,2,62.16390031784415,50.73792257979267,1.821234898349533,53.01305965872772,1,v,1.3816436000001886,correct,v
341,4F4K,342,2,34.00441295494697,46.99006647268763,1.014052529866836,49.72160040833754,2,b,3.507768500000111,correct,b
342,4F4K,343,1,43.61861329683799,58.33846781342958,1.2384695509748391,59.4373528891645,1,n,3.033835199999885,incorrect,c
343,4F4K,344,1,55.57599857429159,41.82729266959312,1.5880760005962598,45.133509450711855,2,n,0.8000740000002224,correct,n
344,4F4K,345,1,51.80754577465628,40.14527692892794,1.4683810215849569,43.63824166932333,2,n,0.9214922000001025,correct,n
345,4F4K,346,2,59.93014232240768,42.47662641158291,1.7385737529315854,45.71141912606429,1,v,1.6621474000003218,correct,v
346,4F4K,347,1,42.809482797738,62.78438720976572,1.2178061332485772,62.95460089424596,1,c,2.00775909999993,correct,c
347,4F4K,348,2,47.66045578133331,26.00025278334836,1.347059590554449,31.55205218622153,1,v,1.3816490000003796,correct,v
348,4F4K,349,2,66.75718340350384,56.05607205043668,2.003768030317114,57.554716988245055,1,v,1.8075386000000435,correct,v
349,4F4K,350,1,40.66067529846709,58.12429147623864,1.1645884848450596,59.26271313937793,1,c,0.9038716999993994,correct,c
350,4F4K,351,2,49.58415525189557,37.600993828782165,1.4020372281179498,41.38680130513275,1,v,1.71789119999994,correct,v
351,4F4K,352,2,36.89469084564136,54.93040593428954,1.076867482640356,56.60988675740754,2,b,0.5527246000001469,correct,b
352,4F4K,353,2,44.71353607525613,59.6894205711651,1.2669908294921652,60.52851968979961,2,b,0.47375689999989845,correct,b
353,4F4K,354,2,57.95135683976042,42.96760135749049,1.668487299966695,46.148466879926005,1,v,1.2067381999995632,correct,v
354,4F4K,355,1,58.77386080053766,44.67329764827248,1.6972696922467283,47.6661934574889,2,n,2.1184628999999404,correct,n
355,4F4K,356,1,61.60645137414221,43.73382615774442,1.800245350899834,46.83046921032814,2,n,2.2894264000005933,correct,n
356,4F4K,357,1,68.41335133653328,52.978138979340216,2.0739779273235124,54.948893456169095,2,n,0.709047900000769,correct,n
357,4F4K,358,2,31.998089606929568,42.60747395059271,0.9726163089687218,45.827892143417024,2,b,0.7845801000003121,correct,b
358,4F4K,359,2,72.00465894722024,56.21258574380725,2.234790772374716,57.68527536094173,1,v,2.1002236000003904,correct,v
359,4F4K,360,2,50.780266423279926,59.34326521050271,1.4373465992378998,60.25068104641986,2,b,3.0834004000007553,correct,b
360,4F4K,361,1,40.52291855323366,54.90621085659144,1.1612572120713915,56.5894696645971,1,c,2.761515199999849,correct,c
361,4F4K,362,2,60.55459037919796,51.31330169924647,1.7612963971289948,53.51294879387162,1,v,1.9774227000007158,correct,v
362,4F4K,363,2,59.06840699607523,50.28956823395319,1.7076972277458162,52.62236993310125,1,v,2.1414898000002722,correct,v
363,4F4K,364,2,63.646543718971046,51.62047491084715,1.8782593858427243,53.77909821755017,1,v,0.7278083999999581,correct,v
364,4F4K,365,2,76.40508570903633,54.19368273861544,2.448931756283728,55.98624395308872,1,v,0.5648086000001058,correct,v
365,4F4K,366,2,65.1984241391599,56.03431256280104,1.9398602521577455,57.53654985039445,1,v,0.39977749999980006,correct,v
366,4F4K,367,1,35.628572355141124,50.50911181540016,1.048885480927643,52.81379984726878,1,c,0.8668132000002515,correct,c
367,4F4K,368,1,61.45041354321575,41.80473879616586,1.794413533358186,45.113440413773176,2,n,0.9592551000005187,correct,n
368,4F4K,369,1,56.991180919712704,45.03475918440911,1.635504158398428,47.987492715204354,2,n,1.540481600000021,correct,n
369,4F4K,370,1,43.44820626403145,32.579508369482745,1.2340887822449649,37.01715433089469,2,c,2.91840559999946,incorrect,n
370,4F4K,371,2,38.4004265363811,25.41744319767695,1.1111185837606663,31.087242294440845,1,b,1.3284112000001187,incorrect,v
371,4F4K,372,2,32.100305065196764,43.33624432363129,0.97468581393997,46.47661212108273,2,v,0.8550320000003921,incorrect,b
372,4F4K,373,2,47.64751050688611,61.1067339294066,1.3466970251734882,61.65287465385413,2,v,2.3490498000001026,incorrect,b
373,4F4K,374,1,47.37302314502938,62.53560784547516,1.339032237560716,62.76365608578272,1,c,1.5540412000000288,correct,c
374,4F4K,375,2,29.94530663014632,51.95618614485616,0.9319724407828056,54.06937179961749,2,b,0.9762229999996634,correct,b
375,4F4K,376,2,27.030102523176403,38.21030898052845,0.8771546170425527,41.92439433086579,2,b,0.8547103999999308,correct,b
376,4F4K,377,2,72.3859785462465,52.35078657347495,2.252581580679313,54.409728560910224,1,v,1.0914419000000635,correct,v
377,4F4K,378,1,59.356229389570814,42.29111183658332,1.7179486108865802,45.54629216041325,2,c,1.5055060000004232,incorrect,n
378,4F4K,379,2,31.14251702790335,45.58061426331579,0.9554653837648196,48.472340850766415,2,b,0.8789382999993904,correct,b
379,4F4K,380,1,45.97510221667566,58.4771760447469,1.3006682797942226,59.55022068774963,1,c,2.6221371999999974,correct,c
380,4F4K,381,1,29.774073462758597,37.56924239950524,0.9286598734813104,41.358820360032745,1,c,1.5028990000000704,correct,c
381,4F4K,382,2,61.54988785307663,52.06647515688923,1.7981291374734938,54.16459231233051,1,v,2.549269999999524,correct,v
382,4F4K,383,2,57.086017741980456,65.7828926021615,1.638732679752341,65.19481033513188,2,v,2.194984500000828,incorrect,b
383,4F4K,384,2,42.09943719483706,27.658909785066065,1.1999573389450815,32.89385307759093,1,v,2.931713099999797,correct,v
384,4F4K,385,2,52.83488747223612,38.91000697740616,1.500087467444131,42.5430876893593,1,b,1.0293951999992714,incorrect,v
385,4F4K,386,1,24.316322505191177,44.292696257029576,0.829026242301486,47.32771660429546,1,c,1.0178062999993926,correct,c
386,4F4K,387,1,48.50180615489743,62.20600257381795,1.370834289718351,62.509536428966975,1,c,1.3062012000000323,correct,c
387,4F4K,388,1,58.27465420142706,74.71226460204134,1.6797419613348692,71.09142561809263,1,n,0.9214819999997417,incorrect,c
388,4F4K,389,2,51.41360601890854,62.21924958202119,1.4564015492517155,62.51977445328229,2,v,2.432662100000016,incorrect,b
389,4F4K,390,1,67.68631824682083,78.94203824060838,2.042858881099525,73.4168551144791,1,n,0.7332978999993429,incorrect,c
390,4F4K,391,2,50.83219152122869,38.25667029590746,1.438899415362825,41.965345611113214,1,v,0.9578936999996586,correct,v
391,4F4K,392,1,45.44585517581909,61.60152261460473,1.2864324067475177,62.04018045221904,1,c,0.5223331999995935,correct,c
392,4F4K,393,1,62.69596004810576,46.3139832019234,1.841496686651652,49.12290553327952,2,n,1.5417756999995618,correct,n
393,4F4K,394,1,28.971472615118387,38.55153824977537,0.9132895167641332,42.22595040813989,1,c,1.1277948999995715,correct,c
394,4F4K,395,2,49.46229572218171,65.78691337723188,1.3984889665718336,65.19773500827756,2,v,3.0287938000001304,incorrect,b
395,4F4K,396,1,32.260784038696315,50.44897503436239,0.977943838358334,52.76138701052374,1,n,1.2181657999999516,incorrect,c
396,4F4K,397,2,41.69761711451004,61.95333413768368,1.1899727308511885,62.31386577584819,2,v,1.158175399999891,incorrect,b
397,4F4K,398,1,61.53380186185546,50.65774311371172,1.797527766048427,52.94326495249864,2,n,1.3416182000000845,correct,n
398,4F4K,399,2,45.17448551981955,32.5102847494221,1.2791935465056432,36.95788385737842,1,v,1.175281200000427,correct,v
399,4F4K,400,1,43.52589537008432,59.61284527979947,1.2360840633646293,60.46716364207426,1,c,1.407220099999904,correct,c
