,condition,trial,sub_task,x,y,xt,yt,cat,resp,rt,acc,correct_resp
0,4F4K,1,2,33.69283166273633,39.03184966841452,1.0075035693416068,42.60882832352156,2,v,2.567536000000473,incorrect,b
1,4F4K,2,1,53.896562500025134,70.64365641565317,1.533573034723927,68.5186261843582,1,n,1.5101355999995576,incorrect,c
2,4F4K,3,1,63.223686107362894,50.09018013072866,1.8618161061990528,52.40635490704913,2,n,1.5758796999998594,correct,n
3,4F4K,4,1,51.490052981586366,39.36725662547843,1.458718588131361,42.90596104062382,2,n,1.7287969999997586,correct,n
4,4F4K,5,1,56.10503920702886,45.20186746683347,1.6056430197170104,48.09393828101779,2,n,1.1096242000003258,correct,n
5,4F4K,6,1,45.80420218918773,29.924178211094443,1.2960542123822234,34.7256205486632,2,n,0.9749729999994088,correct,n
6,4F4K,7,1,53.29327910273653,69.93185477297985,1.5144546452518446,68.04801490082944,1,n,0.892537199999424,incorrect,c
7,4F4K,8,1,73.90932395402072,58.55685942047669,2.3250789720014,59.573136942742806,2,n,1.1275393999994776,correct,n
8,4F4K,9,1,32.70272072242033,48.52507833718988,0.986972383090282,51.034108919192334,1,c,2.1099040000008245,correct,c
9,4F4K,10,1,38.40643144103313,59.45601302668658,1.1112573361141185,60.29948659505094,1,c,1.2856260999997176,correct,c
10,4F4K,11,2,53.71634321743338,47.154334092176974,1.5278366414369409,49.82488391770888,1,v,2.543269099999634,correct,v
11,4F4K,12,2,56.31533014767342,65.32305170475436,1.6126796734324755,64.81713181189862,2,v,1.3402555000002394,incorrect,b
12,4F4K,13,1,29.60045594199027,43.41790193837018,0.925313200934352,46.5072322207056,1,c,2.4045311999998376,correct,c
13,4F4K,14,2,35.87447777880472,53.71485314004529,1.054262650642277,55.5369034936539,2,b,1.8742584000001443,correct,b
14,4F4K,15,1,62.80421111938042,50.88682744290463,1.845646597380416,53.10064323172804,2,n,1.510219199999483,correct,n
15,4F4K,16,2,56.19709329827975,40.84349064210886,1.6087195028499095,44.21640987278385,1,b,2.9134682999992947,incorrect,v
16,4F4K,17,1,55.5750516867797,44.92510203389264,1.5880447317316797,47.84799820880697,2,n,1.2800285000002987,correct,n
17,4F4K,18,1,47.39164908984067,58.80755734323355,1.3395509661300256,59.77646465559562,1,n,1.4630105999995067,incorrect,c
18,4F4K,19,1,56.78276965599898,43.63654933155257,1.6284315628284551,46.70183821529223,2,n,2.853840400000081,correct,n
19,4F4K,20,2,42.80732882895356,64.24060629160614,1.217751588298099,64.01524662195955,2,v,3.089460600000166,incorrect,b
20,4F4K,21,1,40.87956876178281,29.701508791490053,1.1699014966080747,34.539445936834305,2,c,1.6012146000002758,incorrect,n
21,4F4K,22,2,64.92016643194202,53.38764348916543,1.9286682313322945,55.25756818556113,1,b,1.7179690000002665,incorrect,v
22,4F4K,23,2,38.505505269086456,21.506679589844097,1.11354908875394,28.025578946382133,1,b,2.658462100000179,incorrect,v
23,4F4K,24,1,47.101780957676304,54.8567617438402,1.3315009230935435,56.50583714391994,1,c,2.2758817000003546,correct,c
24,4F4K,25,1,35.17793356874071,52.703000159928415,1.0391025247007222,54.670810767684216,1,n,1.1521082999997816,incorrect,c
25,4F4K,26,1,39.05798246767655,53.23786456582391,1.126415798764376,55.12946400911226,1,n,1.5297497999999905,incorrect,c
26,4F4K,27,1,58.400318899732966,46.21560676409231,1.6841370752544478,48.993680792532736,2,n,1.286980200000471,correct,n
27,4F4K,28,1,43.61214337078066,59.99298598684447,1.238302940557502,60.72933121633332,1,c,1.9558633000006012,correct,c
28,4F4K,29,1,40.39894325629718,54.50608752702287,1.1582673537224466,56.2092901542284,1,n,2.220248200000242,incorrect,c
29,4F4K,30,1,64.99420292822307,55.59996531069541,1.9316397909757332,57.13121927173543,2,n,1.7589800999994623,correct,n
30,4F4K,31,1,23.446999066809664,37.85404950250692,0.8141745169368728,41.56777924089849,1,c,1.8308888000001389,correct,c
31,4F4K,32,2,39.10743768070789,54.12800770779736,1.1275747918833043,55.888555665998005,2,b,2.9256083999998737,correct,b
32,4F4K,33,1,54.54270064681554,62.64787944280978,1.5543172701366483,62.80813665737484,1,c,2.2458575999999084,correct,c
33,4F4K,34,2,48.67920837197017,32.44162179964218,1.3759006026939429,36.85689660834801,1,b,4.717374699999709,incorrect,v
34,4F4K,35,2,64.83755204702693,46.48212389097144,1.92535778212558,49.229886695736006,1,b,0.9423966000003929,incorrect,v
35,4F4K,36,1,64.32785990131819,53.218550902550106,1.9050591559747936,55.11293447239611,2,n,1.322007200000371,correct,n
36,4F4K,37,2,51.46772429946835,69.50360724491546,1.4580414449592676,67.76106472923368,2,v,1.7338485999998738,incorrect,b
37,4F4K,38,1,43.47800208121075,53.91596101774376,1.234853644042381,55.70822349877206,1,c,1.4979635999998209,correct,c
38,4F4K,39,2,42.493717963471184,62.89457938235451,1.2098360364695016,62.99715781319344,2,b,1.3938555999993696,correct,b
39,4F4K,40,1,42.675717827045766,24.77964356647166,1.2144234338792803,30.54042225478971,2,c,1.299181899999894,incorrect,n
40,4F4K,41,2,39.61342892798333,50.42567290714292,1.1395015348491404,52.69911688513215,2,b,3.99348960000043,correct,b
41,4F4K,42,2,37.20590864643252,58.28623233852485,1.0838591290193709,59.35295838766875,2,b,1.1581424999994852,correct,b
42,4F4K,43,2,63.60919070397516,48.58734186378286,1.87680104415382,51.08888612378702,1,v,1.3948740000005273,correct,v
43,4F4K,44,2,37.14793318869083,46.96263019931198,1.0825532528910815,49.65531852373872,2,b,1.443535200000042,correct,b
44,4F4K,45,2,61.270547818265925,68.05607312844378,1.7877145986841372,66.77045080348753,2,v,1.1218416000001525,incorrect,b
45,4F4K,46,1,72.75893363295495,55.17026037518235,2.270119130895551,56.77016000951605,2,n,2.050386000000799,correct,n
46,4F4K,47,2,37.80482909044055,56.091522578474006,1.0974421351142485,57.54243332649835,2,b,1.5949984999997469,correct,b
47,4F4K,48,1,57.33078358709282,41.58725348163608,1.647094702464071,44.8778446362666,2,n,2.2105264000001625,correct,n
48,4F4K,49,2,54.94053399380434,45.876276228967285,1.5672290230570964,48.69272240795827,1,b,1.2310399999996662,incorrect,v
49,4F4K,50,2,64.04268366536971,45.148316879762575,1.893795446206372,48.04636059732672,1,v,2.8234074000001783,correct,v
50,4F4K,51,1,58.92210257570377,44.93364723286942,1.7025097699756575,47.85559326155999,2,c,2.3492353999999978,incorrect,n
51,4F4K,52,1,43.633979302913,23.957544141414377,1.2388653388048734,29.89682617244434,2,c,1.8442446999997628,incorrect,n
52,4F4K,53,1,56.97276290634598,74.02983059984433,1.6348778936171862,70.6447170277346,1,c,1.7117983999996795,correct,c
53,4F4K,54,1,59.51140153183075,45.36015248622953,1.7235008926940374,48.23454291787053,2,c,1.6793963000000076,incorrect,n
54,4F4K,55,1,39.25319958331752,57.87048454461615,1.1309976937577129,59.01334702558889,1,c,1.8075693999999203,correct,c
55,4F4K,56,2,61.63906805783635,43.87290664442804,1.8014667722388364,46.91217966103891,1,b,2.3719334999996136,incorrect,v
56,4F4K,57,2,65.58819257753282,46.93659072841977,1.9556467210387056,49.63227859133994,1,v,1.5586845000007088,correct,v
57,4F4K,58,1,65.32375214059493,44.13255975208435,1.944922359026898,47.14321032263879,2,n,1.8014982000004238,correct,n
58,4F4K,59,1,65.52964439076933,47.85886086188958,1.9532672182130657,50.44714478182771,2,n,2.0442522999992434,correct,n
59,4F4K,60,2,56.20026578307986,49.24751117652151,1.6088256335228424,51.66877389652498,1,v,2.238447300000189,correct,v
60,4F4K,61,1,34.93867269927465,43.1787336685007,1.0339455278064813,46.29434221009223,1,c,1.6743568000001687,correct,c
61,4F4K,62,1,31.14496515789913,43.57818216654053,0.95551402529209,46.64989088648644,1,c,1.8999809999995705,correct,c
62,4F4K,63,2,65.3886132413015,54.121296525384096,1.9475473402987904,55.88285311050807,1,b,1.540544299999965,incorrect,v
63,4F4K,64,1,59.34989121921048,42.25308052294991,1.7177222026755272,45.47036165025106,2,n,1.1535127999995893,correct,n
64,4F4K,65,1,72.5756560234779,53.490025798775,2.261483830339948,55.34504861800222,2,n,0.8790351999996346,correct,n
65,4F4K,66,2,60.84040924688501,44.719513648715456,1.7717957201372347,47.66524098317513,1,v,1.989610100000391,correct,v
66,4F4K,67,1,44.23283807563031,61.782617149824624,1.2543892860079784,62.139443910143406,1,c,1.3037880000001678,correct,c
67,4F4K,68,1,50.5012746009599,43.83069060510047,1.4290320151351676,46.87461277787207,2,c,1.6632495000003473,incorrect,n
68,4F4K,69,1,47.36741646755648,63.78785830139215,1.3388761321321088,63.6753406909235,1,c,1.0125071000002208,correct,c
69,4F4K,70,2,58.69202302420985,38.82071840400468,1.6943837880460964,42.42193005147806,1,b,1.5466292999999496,incorrect,v
70,4F4K,71,2,41.83203147620917,55.5159662029328,1.1933034382500525,57.06075390140626,2,b,3.0592586000002484,correct,b
71,4F4K,72,2,60.33239735317449,53.460791800302935,1.753177319928888,55.32007683531531,1,v,2.171861599999829,correct,v
72,4F4K,73,2,65.12851789701435,54.83791877838826,1.9370424045826449,56.48992603957925,1,v,2.226402899999812,correct,v
73,4F4K,74,1,59.82212887209664,41.35911222640316,1.734673165332614,44.67489632687968,2,n,2.0502817999995386,correct,n
74,4F4K,75,2,33.20089516431672,50.99407896520748,0.9972498144048608,53.19387311176858,2,b,1.8426510999997845,correct,b
75,4F4K,76,1,41.3095989875215,46.94769089273903,1.180409935942291,49.642100323444176,1,c,1.4494673999997758,correct,c
76,4F4K,77,2,60.15500689666941,45.01412046755715,1.7467222335321986,47.92711378643949,1,v,3.5620328999993944,correct,v
77,4F4K,78,1,50.017934494507394,34.23585508465895,1.414741073760021,38.40198917265904,2,c,2.639166299999488,incorrect,n
78,4F4K,79,1,54.885862886935215,38.53941458486665,1.5654483253198794,42.17309394328214,2,n,2.130582400000094,correct,n
79,4F4K,80,2,41.65583874687372,55.068507434556,1.188939382959248,56.684450775447225,2,b,2.5736019999994824,correct,b
80,4F4K,81,2,74.03783042443507,56.78807505084004,2.331300396188291,58.12168398426777,1,v,3.9095962000001236,correct,v
81,4F4K,82,2,58.058522754595785,46.10330403092996,1.6722095906813437,48.8941037469813,1,v,1.904654400000254,correct,v
82,4F4K,83,1,55.655459194249765,41.77343718820488,1.590702206645666,45.04350050144515,2,n,2.737515599999824,correct,n
83,4F4K,84,2,48.21989534190823,28.179659404792552,1.362821733739146,33.27832469662631,1,b,2.6356702999992194,incorrect,v
84,4F4K,85,1,46.803471931504525,64.91753131716229,1.32326697208193,64.51852484463717,1,c,0.9041300999997475,correct,c
85,4F4K,86,1,50.16007490609535,35.51416395567818,1.4189288477277908,39.51378529106047,2,n,1.734699499999806,correct,n
86,4F4K,87,1,37.03143923495411,47.47642030844253,1.0799340239917694,50.1095442135473,1,n,2.006838599999355,incorrect,c
87,4F4K,88,1,57.02866476932093,41.98693796336455,1.6367794568213998,45.23349106945576,2,n,2.6827758000008544,correct,n
88,4F4K,89,1,55.85158483665384,45.16184181644255,1.597202843039392,48.05837739785496,2,n,1.952463299999181,correct,n
89,4F4K,90,1,37.37420542539653,60.11455562834775,1.0876588833360077,60.82622742225634,1,c,1.728672600000209,correct,c
90,4F4K,91,2,52.230169945744045,63.39868377040256,1.481342350936798,63.38109332432434,2,v,3.7570840999997017,incorrect,b
91,4F4K,92,2,52.61661286619539,71.17763773116715,1.4932941598995322,68.86639725314699,2,v,1.6063965000003009,incorrect,b
92,4F4K,93,2,52.15664655814125,31.815117745191543,1.4790792927774656,36.32220876497,1,v,1.6618892999995296,correct,v
93,4F4K,94,1,58.110464229718886,72.39039369202696,1.674016707655564,69.63908627157898,1,n,1.8976320000001579,incorrect,c
94,4F4K,95,1,44.49681761224134,27.287474377469803,1.2612939388166025,32.54871750164213,2,c,2.153488200000538,incorrect,n
95,4F4K,96,1,50.679911921293325,33.63274315636371,1.4343502528719063,37.88047329177662,2,n,1.5370786000003136,correct,n
96,4F4K,97,2,26.9385722746472,43.28999255562056,0.8754867006525713,46.39337869926044,2,b,2.0395453000001,correct,b
97,4F4K,98,2,59.542777502577614,41.0483235434813,1.724625749095496,44.39850928573002,1,v,1.3219460000000254,correct,v
98,4F4K,99,2,52.393979329179885,66.6096461432723,1.4863968813468982,65.74976540414792,2,b,1.7094851000001654,correct,b
99,4F4K,100,1,54.885541384014736,60.78274167476488,1.5654378596044276,61.35596777001745,1,n,5.0,correct,c
100,4F4K,101,2,52.36518694253206,65.62066405538818,1.4855072109031484,65.0348789269704,2,v,2.3306968000006236,incorrect,b
101,4F4K,102,1,56.1795701238791,50.02201638490633,1.6081334177190223,52.346808660756345,2,n,1.1277916999997615,correct,n
102,4F4K,103,2,38.31491202656418,47.06122864221089,1.1091445214429798,49.742542925687694,2,v,1.2677463999998508,incorrect,b
103,4F4K,104,1,49.12486961573748,40.76097142641861,1.388710703866664,44.14306414032464,2,n,0.8546942999992098,correct,n
104,4F4K,105,1,43.264753097008985,57.11367864445526,1.229389946934503,58.39101642279054,1,c,1.3280869999998686,correct,c
105,4F4K,106,2,41.88835376310568,54.17363444022133,1.194701840884592,55.92731662123342,2,b,1.814061799999763,correct,b
106,4F4K,107,1,55.59658861541003,71.8412092228426,1.5887560934147928,69.2921624145748,1,n,0.9045912000001408,incorrect,c
107,4F4K,108,1,18.593082363644744,35.48753670836146,0.7360075501046103,39.49054382376284,1,c,1.4859337000007145,correct,c
108,4F4K,109,2,38.45561551373596,25.10621199677053,1.1123944604438742,30.798179710373343,1,b,2.2930226999997103,incorrect,v
109,4F4K,110,2,47.26727689933863,35.25886825374396,1.3360910325184077,39.29109023802387,1,v,1.496987700000318,correct,v
110,4F4K,111,2,31.29855841260083,43.13851252476149,0.9585707030197178,46.25853890236021,2,b,1.2433032999997522,correct,b
111,4F4K,112,2,24.10686564837,35.53081700736815,0.8254232434202918,39.52832251933691,2,b,0.8439736999998786,correct,b
112,4F4K,113,1,47.99279088544949,35.030765563682245,1.3564009750542942,39.09238276566535,2,n,2.476380500000232,correct,n
113,4F4K,114,2,53.21768196044604,28.879037692985108,1.5120757952652863,33.8553752472905,1,v,1.5332264000007854,correct,v
114,4F4K,115,2,24.24320848818326,43.9685090078325,0.8277667789391667,46.99724917300452,2,b,1.2129116999994949,correct,b
115,4F4K,116,2,43.267426008480186,59.84805604044752,1.2294582803325322,60.61361190235054,2,v,2.2566805999995267,incorrect,b
116,4F4K,117,1,43.32698862946971,26.37579480365721,1.230981993750382,31.811124745662035,2,c,2.846736200000123,incorrect,n
117,4F4K,118,2,47.51178880860614,38.315119538896376,1.3429016632047164,41.97484317627928,1,v,1.6073072999997748,correct,v
118,4F4K,119,1,45.61951326252222,28.46455978648761,1.2910862642338816,33.51286416300541,2,n,2.0624550000002273,correct,n
119,4F4K,120,1,47.65940004138204,40.280950853187846,1.347030018212912,43.71659992302761,2,n,0.8911278999994465,correct,n
120,4F4K,121,1,38.83379458283304,54.4780711623659,1.1211768316477693,56.18555882447864,1,c,1.7526503999997658,correct,c
121,4F4K,122,1,59.84918036781372,50.71171920890359,1.735649228251985,52.94830173632898,2,n,1.3756515999994008,correct,n
122,4F4K,123,2,51.99375715580175,45.23987991306246,1.4740778455443897,48.12770829257624,1,v,1.3720025999991776,correct,v
123,4F4K,124,1,50.1059728389142,66.99662370587461,1.4173334207879904,66.02577923616624,1,n,1.3943395999995118,incorrect,c
124,4F4K,125,1,34.57107407562399,52.08556362118683,1.026072180022804,54.13913406013979,1,c,1.746869599999627,correct,c
125,4F4K,126,2,38.77305739574032,55.48877455794618,1.1197616855493369,57.0379312589123,2,b,1.613516499999605,correct,b
126,4F4K,127,2,54.56873493038167,69.33355591743583,1.555158955123971,67.6463359593902,2,v,2.1595566999994844,incorrect,b
127,4F4K,128,1,44.59276513601945,63.96396954017917,1.2638129501048228,63.80786846734268,1,n,2.3430069999994885,incorrect,c
128,4F4K,129,1,69.35609569417755,61.24090219367669,2.1150369546471497,61.71636937212953,2,n,2.1838388999995004,correct,n
129,4F4K,130,1,38.5971055857164,55.73171654732749,1.1156721706146642,57.24162907284394,1,c,1.47983959999965,correct,c
130,4F4K,131,1,47.67798522878899,57.587618442036685,1.3475507029623934,58.78135607796637,1,c,1.5333478000002287,correct,c
131,4F4K,132,2,53.68874658048198,38.44672605222855,1.5269601348341009,42.09115073330923,1,v,1.6096683999994639,correct,v
132,4F4K,133,1,78.34442742852343,62.67697904644763,2.5497093925752083,62.83047095207407,2,n,2.6294581000001926,correct,n
133,4F4K,134,2,45.697831417132896,30.75644562069978,1.29319061490093,35.42499502105575,1,b,2.0553789000005054,incorrect,v
134,4F4K,135,2,42.12068468471123,63.42368949688642,1.2004876321942703,63.400056554456,2,v,1.9714211999998952,incorrect,b
135,4F4K,136,2,67.88434614801677,60.65611849637145,2.0512884615390745,61.25595276015153,1,v,0.7455510999998296,correct,v
136,4F4K,137,1,37.47030723839117,52.97752846128948,1.0898346134513848,54.9064516195558,1,c,1.4823920999997426,correct,c
137,4F4K,138,1,54.5699379472405,43.106365212064645,1.5551978595172635,46.22992239435502,2,n,1.2977734000005512,correct,n
138,4F4K,139,1,55.02323614385048,35.60742084073728,1.5699265728668108,39.59521025801113,2,n,1.3644960999999967,correct,n
139,4F4K,140,1,50.00869647178724,68.42678711371762,1.414469329117244,67.02714340388125,1,n,0.7029947999999422,incorrect,c
140,4F4K,141,1,50.408236091706655,59.84924609572444,1.426269966163445,60.61456300095772,1,c,1.2941201000003275,correct,c
141,4F4K,142,2,36.77497409434277,49.80971116729593,1.074190019880382,52.16120844047327,2,b,3.033784299999752,correct,b
142,4F4K,143,1,61.59867457054369,51.94104465374336,1.799954249409021,54.0143598946305,2,n,2.331976499999655,correct,n
143,4F4K,144,1,30.606106020977016,46.40907735644845,0.9448670042187052,49.16516374802092,1,c,1.328227599999991,correct,c
144,4F4K,145,2,43.19312484117956,60.45353398633727,1.2275601733414885,61.09557448461968,2,v,2.1548681000003853,incorrect,b
145,4F4K,146,1,41.84527303563783,55.98190137576328,1.193632060174568,57.450900641276334,1,c,1.8985894999996162,correct,c
146,4F4K,147,2,45.56916745730089,55.13981915939956,1.2897353183462463,56.74452694211272,2,b,2.312636999999995,correct,b
147,4F4K,148,1,41.38115472303985,51.47585189485197,1.1821676457207873,53.61191390033804,1,c,1.504083200000423,correct,c
148,4F4K,149,1,51.696393368933485,36.16400835309913,1.4649909994116994,40.08200085167708,2,n,1.3789409999999407,correct,n
149,4F4K,150,1,57.4201502341703,45.30579866159443,1.6501583891082603,48.18626481396479,2,n,1.1521391999995103,correct,n
150,4F4K,151,1,37.44007018780423,22.576945119963305,1.0891495824712856,28.833699005272983,2,c,1.061587099999997,incorrect,n
151,4F4K,152,2,51.530025542860656,37.18113616042686,1.4599315878954393,40.97492681142593,1,v,1.5164303000001382,correct,v
152,4F4K,153,2,43.71019428579137,64.72847874931139,1.240830306274288,64.37857080670027,2,b,2.519062400000621,correct,b
153,4F4K,154,1,62.68014706588567,47.97033281292192,1.840891262085276,50.54546027843121,2,n,1.2612990999996327,correct,n
154,4F4K,155,1,56.79884196028205,52.48661701070053,1.628975898692144,54.48474618283358,2,n,1.7603353000004063,correct,n
155,4F4K,156,2,28.53420319103188,42.20203673385595,0.905022832952874,45.424929460418966,2,v,2.652555900000152,incorrect,b
156,4F4K,157,2,31.813402050360526,51.23994791061372,0.9688881689196506,53.40737169252733,2,b,3.48394879999978,correct,b
157,4F4K,158,1,31.55101580725444,40.04718401179806,0.9636161473727262,43.50904846094029,1,c,1.5761117000001832,correct,c
158,4F4K,159,2,48.20718079084232,61.614519059839175,1.362461462671603,62.00851961068357,2,v,2.634294599999521,incorrect,b
159,4F4K,160,1,64.90934971779632,72.71126603493676,1.9282344700800824,69.83947207857656,1,n,1.3150102999998126,incorrect,c
160,4F4K,161,2,57.72500233261826,39.54188236294816,1.6606523346907516,43.06076110685471,1,v,3.2656380999997054,correct,v
161,4F4K,162,2,65.49490592489752,78.79060913703064,1.9518567537065703,73.29760469541162,2,v,1.3173579000003883,incorrect,b
162,4F4K,163,1,52.38632281151271,37.8784286859905,1.4861602467622326,41.58928631070977,2,n,2.142615900000237,correct,n
163,4F4K,164,1,54.89703530817329,43.92307234533028,1.565812058737559,46.95681920924959,2,n,1.2067157999999836,correct,n
164,4F4K,165,2,63.86570509298649,77.14156898489723,1.88683877338816,72.42499817386961,2,b,1.8681796000000759,correct,b
165,4F4K,166,1,69.54271501728468,56.2862293056047,2.1232605972595837,57.70476510432199,2,n,1.5344261000000188,correct,n
166,4F4K,167,2,57.1572701983519,62.8617897041426,1.6411625128744338,62.97207685541944,2,b,1.2064740999994683,correct,b
167,4F4K,168,2,56.34814070607008,70.70034929735066,1.6137803421217818,68.55576507097369,2,b,1.1582799000007071,correct,b
168,4F4K,169,2,65.41167182148473,53.32736350519245,1.9484813930959288,55.20602928979166,1,b,1.145932499999617,incorrect,v
169,4F4K,170,2,53.39850797277519,64.54071854206703,1.5177721620965023,64.23910973800899,2,v,1.716515299999628,incorrect,b
170,4F4K,171,2,43.15488269261424,59.656727850797694,1.2265843771451883,60.46050896445097,2,v,1.4206186999999773,incorrect,b
171,4F4K,172,2,26.36065306747433,40.98694716724063,0.8650285126288693,44.34393942601508,2,b,2.2883287999993627,correct,b
172,4F4K,173,2,46.76549858265549,31.65245047057141,1.3222224884652114,36.18382302370031,1,b,1.6059586000001218,incorrect,v
173,4F4K,174,2,39.2001106487164,31.58476928366081,1.1297498139806592,36.12629973785472,1,b,0.764097700000093,incorrect,v
174,4F4K,175,1,33.10824528286333,46.87345877297812,0.9953303623914678,49.576411581744814,1,c,3.0759221999996953,correct,c
175,4F4K,176,2,57.00678654650011,71.56000193503438,1.6360349817909037,69.11260571762342,2,b,2.179111400000693,correct,b
176,4F4K,177,2,69.17991689498676,56.07327315523655,2.1073026186020773,57.527202130032094,1,b,0.7347108000003573,incorrect,v
177,4F4K,178,2,60.11195557339809,53.41207929153226,1.7451592201823043,55.27845370187831,1,v,1.7529539999995905,correct,v
178,4F4K,179,1,55.02709647260821,38.80335022567116,1.570052601080194,42.40656039934615,2,n,1.9214807999996992,correct,n
179,4F4K,180,2,54.3968192502914,44.45259927157164,1.5496093645283382,47.42789347686153,1,b,2.5129357000005257,incorrect,v
180,4F4K,181,1,49.37795945766204,32.27896740978142,1.3960385531612198,36.71782472447754,2,n,2.148781699999745,correct,n
181,4F4K,182,2,38.73492795709948,44.545308502192846,1.1188742014712498,47.510341950454325,2,b,2.0141028999996706,correct,b
182,4F4K,183,2,37.655897786037386,25.58931328720285,1.0940486806868748,31.181614955464784,1,b,1.1642439000006561,incorrect,v
183,4F4K,184,2,62.04767560664061,49.01372531156189,1.8168386071232765,51.463612522044365,1,v,1.6558332999993581,correct,v
184,4F4K,185,1,47.214611135015,25.9473968671056,1.3346286083074654,31.46743004802286,2,n,1.6389829999998256,correct,n
185,4F4K,186,2,38.94104701139353,48.9625669276788,1.1236801284719966,51.41868891343708,2,b,1.5344445000000633,correct,b
186,4F4K,187,2,57.02687531162261,43.86548692362595,1.6367185522014418,46.90557714016877,1,v,1.595191899999918,correct,v
187,4F4K,188,1,50.097242866914215,34.45452037229241,1.417076148993764,38.59157122573592,2,n,2.3369466999993165,correct,n
188,4F4K,189,1,58.29428129082828,69.69058924082216,1.680427660808345,67.88670241602864,1,n,1.9718322999997326,incorrect,c
189,4F4K,190,1,51.90487928411818,70.45899095859247,1.471356024802858,68.39730037391904,1,n,3.1016061999998783,incorrect,c
190,4F4K,191,1,50.47361905256434,35.002189514358136,1.428210442287388,39.0675074218264,2,c,1.6012269000002561,incorrect,n
191,4F4K,192,2,42.64032663731391,59.214940305896434,1.2135300209777249,60.1055412847882,2,b,1.4676423999999315,correct,b
192,4F4K,193,2,49.27982263844805,31.378837863975463,1.393192565264293,35.95147690352746,1,v,4.2304510000003575,correct,v
193,4F4K,194,1,54.116000753722574,47.950952394134745,1.540586857000276,50.52837013034315,2,n,1.1460302999994383,correct,n
194,4F4K,195,1,52.68917415831696,67.61059691696133,1.4955490468757069,66.45931461470903,1,n,0.7882709999994404,incorrect,c
195,4F4K,196,2,31.871119404201544,51.08000932149575,0.970051725284767,53.26852625536798,2,b,1.2067418999995425,correct,b
196,4F4K,197,2,39.52011158542324,23.51240473960889,1.1372924993689515,29.55157604079545,1,b,0.6851861000004646,incorrect,v
197,4F4K,198,1,47.15751163632788,57.115127768227225,1.3330448765093577,58.39221301148633,1,c,1.1292029999995066,correct,c
198,4F4K,199,1,34.32022508094403,56.67765990727171,1.0207338577357068,58.03014005236848,1,c,0.9748435000001336,correct,c
199,4F4K,200,1,51.07577640762453,40.82279263401914,1.4462062259579018,44.198011974879705,2,n,4.606682999999975,correct,n
200,4F4K,201,1,48.69178946748998,33.860281421012864,1.3762606081202495,38.07698428797399,2,n,4.357707799999844,correct,n
201,4F4K,202,1,51.75355816571996,65.11100445974826,1.466733482158282,64.66126271229192,1,n,1.9290345999997953,incorrect,c
202,4F4K,203,1,53.02238155196356,49.74242075324904,1.5059474692896362,52.10234012401775,2,c,2.5868061000001035,incorrect,n
203,4F4K,204,2,53.66240784759414,67.30358764733545,1.5261240499595627,66.24320844920766,2,b,4.206172300000617,correct,b
204,4F4K,205,2,59.33420398184184,45.06528717904336,1.7171619611704927,47.97258351101007,1,b,3.545878900000389,incorrect,v
205,4F4K,206,2,54.11821333190152,40.488254155040735,1.5406577399072452,43.90073153415289,1,v,1.2067833999999493,correct,v
206,4F4K,207,2,36.02680355238749,53.88356818890732,1.057607348793506,55.68064763758348,2,b,1.141352900000129,correct,b
207,4F4K,208,1,42.12588224494549,56.7568017624005,1.2006173881815685,58.09576641152032,1,c,1.0745772000000215,correct,c
208,4F4K,209,2,45.854562982084666,33.9908929309838,1.2974121814086443,38.18991985296019,1,b,0.9689057999994475,incorrect,v
209,4F4K,210,2,39.97083020557349,55.80488681999627,1.1480018016630704,57.30288645946454,2,b,3.708532699999523,correct,b
210,4F4K,211,2,52.06537315908872,43.12996961477075,1.4762746967048086,46.25093429491314,1,b,2.7617581000004066,incorrect,v
211,4F4K,212,1,71.28200380336875,55.71320825673845,2.2014592111079057,57.22612725322833,2,n,1.0491259000000355,correct,n
212,4F4K,213,1,47.61628210593669,66.24213903651815,1.3458227958679396,65.48569130160503,1,c,1.0612772999993467,correct,c
213,4F4K,214,2,62.31145239594848,43.72856778109044,1.8268315006183904,46.78373198546446,1,v,1.3052632999997513,correct,v
214,4F4K,215,1,29.99397421584881,49.087481947029865,0.9329160873465272,51.52836211290408,1,c,1.0671801999997115,correct,c
215,4F4K,216,2,58.38676763240492,48.2365673577311,1.6836625679780248,50.78010606646937,1,b,1.443372300000192,incorrect,v
216,4F4K,217,1,35.0405913683387,52.60411759371229,1.036139132710848,54.58581907424923,1,c,1.054901499999687,correct,c
217,4F4K,218,1,46.892678182766346,31.00400051785092,1.3257238996116474,35.6340561960522,2,n,0.9882399000007354,correct,n
218,4F4K,219,2,67.77449135458562,51.711341836586215,2.0466079155662142,53.81579252210136,1,v,1.0419551999993928,correct,v
219,4F4K,220,1,43.2040213372042,63.33539771853101,1.2278383531308046,63.33306531774492,1,c,0.751542299999528,correct,c
220,4F4K,221,1,30.887370033805915,47.46281479333624,0.950409459786134,50.0975257076905,1,c,0.6740044000007401,correct,c
221,4F4K,222,2,69.6128050440632,49.18838713927379,2.126357465786911,51.616909734492914,1,b,0.8183079999998881,incorrect,v
222,4F4K,223,1,32.036758074799096,50.49837726067868,0.9733986927613548,52.76249021587402,1,c,0.7030952999994042,correct,c
223,4F4K,224,2,60.98063023542363,51.17501106455477,1.7769694851935036,53.35101522986046,1,v,0.7955212999995638,correct,v
224,4F4K,225,1,41.5691191112139,55.848437011940064,1.1867973193950507,57.339325568174,1,c,0.5997863000002326,correct,c
225,4F4K,226,1,57.13906313327987,49.418006052461465,1.6405412776994146,51.81825311711615,2,n,2.562724800000069,correct,n
226,4F4K,227,2,48.34318735079662,32.42674215708217,1.3663201987392273,36.84416700102396,1,v,1.582241399999475,correct,v
227,4F4K,228,1,52.79793836810064,59.09663320495679,1.4989353403752892,60.01014635769493,1,n,1.2744501000006494,incorrect,c
228,4F4K,229,1,47.3138006491453,62.99399585451665,1.337384238095937,63.07312192707732,1,c,0.8368755000001329,correct,c
229,4F4K,230,1,41.00874038795173,48.1697912534787,1.1730481328319025,50.72127544321999,1,c,0.6012220999991769,correct,c
230,4F4K,231,2,57.98096328916223,43.78452548735338,1.6695148184466877,46.83353044306869,1,v,1.0853291999992507,correct,v
231,4F4K,232,1,43.5398217959061,61.190961973993474,1.236442075113232,61.677198841080624,1,c,0.7515017000005173,correct,c
232,4F4K,233,1,46.61750250504285,57.72635062241429,1.318159614380936,58.89522911079909,1,c,2.2555621999999858,correct,c
233,4F4K,234,2,56.51986261554203,42.69376974735447,1.6195532214321076,45.86263590083173,1,v,1.3948763000007602,correct,v
234,4F4K,235,1,49.211664053182446,37.51853088470147,1.391219367107797,41.27198578390112,2,c,3.3504666999997426,incorrect,n
235,4F4K,236,2,67.2261197827117,48.3199762222324,2.0234028656858936,50.85356875399775,1,v,2.165460400000484,correct,v
236,4F4K,237,1,71.35604792560483,53.37189135133754,2.204851418010233,55.24410256953591,2,n,1.4738084000000526,correct,n
237,4F4K,238,1,45.61241119063613,33.30853804293909,1.2908956062607848,37.601003280745,2,c,0.5526066999991599,incorrect,n
238,4F4K,239,1,62.98208225154405,48.87529428711839,1.852485779163309,51.34202880351831,2,n,1.4203935000005004,correct,n
239,4F4K,240,1,76.07980451308497,63.77580840964232,2.432422998572678,63.666258524946834,2,n,1.467675799999597,correct,n
240,4F4K,241,1,70.21433945696616,53.43208722363746,2.153122173173557,55.29555170302688,2,n,2.57950560000063,correct,n
241,4F4K,242,1,28.04649079105411,39.22902070861481,0.8958907537426609,42.78346768597744,1,c,0.9083607000002303,correct,c
242,4F4K,243,1,47.530302565009215,64.47474490948458,1.3434187566983258,64.18999796456252,1,n,1.4558263999997507,incorrect,c
243,4F4K,244,2,39.97411539865645,29.19699803481989,1.1480802285577385,34.11914781187175,1,b,1.7482590999998138,incorrect,v
244,4F4K,245,1,55.20719779192504,37.87109424230416,1.5759436320379931,41.58281573847176,2,n,1.2735076999997545,correct,n
245,4F4K,246,1,42.14752415624138,52.512957480831616,1.2011578246954466,54.50741138369373,1,c,2.688926900000297,correct,c
246,4F4K,247,1,52.06502463191408,39.363098156634535,1.4762639975625096,42.9022755124316,2,n,1.2613461999999345,correct,n
247,4F4K,248,1,70.90517709797379,59.82527141673821,2.184276226492877,60.59539944578663,2,n,3.198657599999933,correct,n
248,4F4K,249,1,54.12153624363594,66.40431687601232,1.5407641999645871,65.60245732536968,1,c,1.7104442999998355,correct,c
249,4F4K,250,2,50.34688047641066,31.541073698449885,1.4244514140546776,36.08917950561736,1,b,2.8334110999994664,incorrect,v
250,4F4K,251,1,50.41202827936576,60.013071394530975,1.426382441006797,60.74535094035729,1,c,2.652542099999664,correct,c
251,4F4K,252,1,58.21696579008694,42.22056654243743,1.6777281563882551,45.44142203558626,2,n,1.0200332000003982,correct,n
252,4F4K,253,2,67.67307526078976,53.94996454575768,2.0422963957607214,55.73716264637535,1,v,1.133884599999874,correct,v
253,4F4K,254,1,24.35959667771143,44.72796983823288,0.8297725865372796,47.67275912608465,1,c,1.4068528999996488,correct,c
254,4F4K,255,1,54.09651359693391,40.475954186679466,1.539962700650157,43.88980453323475,2,n,1.1327056000000084,correct,n
255,4F4K,256,1,47.82857452404295,59.7470808740277,1.3517770590701783,60.53285802647185,1,c,1.4373905000002196,correct,c
256,4F4K,257,1,47.80127713956968,68.5454918182167,1.3510099633317052,67.10890604641375,1,n,1.375799100000222,incorrect,c
257,4F4K,258,1,46.49126406384144,55.54649562351228,1.3147039111268588,57.08637100987312,1,c,1.1945646999993187,correct,c
258,4F4K,259,1,38.31558977362495,53.34136272808946,1.1091601531194302,55.21800066501967,1,c,1.0054724000001443,correct,c
259,4F4K,260,2,50.662433580758616,59.587246490179695,1.433829030310103,60.40481499335744,2,b,3.3991276999995534,correct,b
260,4F4K,261,2,36.62690108140286,20.42484267741254,1.0708875771309114,27.223672327723268,1,b,2.5118182999995042,incorrect,v
261,4F4K,262,1,60.44340416627265,38.77106738744602,1.7572288916972754,42.37799437981251,2,n,2.3794282000008025,correct,n
262,4F4K,263,1,72.35954142132731,56.73473824812832,2.251343576538092,58.07747627127828,2,n,1.4299184999999852,correct,n
263,4F4K,264,2,48.85473902428741,32.28980551526067,1.380931895403941,36.72708598128168,1,v,1.2486021999993682,correct,v
264,4F4K,265,1,47.0450426387976,59.02097577097096,1.329930891189821,59.94906741340802,1,n,1.2697247000005518,incorrect,c
265,4F4K,266,1,52.94406020210454,63.21769465498474,1.5034968091075211,63.24360821270011,1,n,4.27898550000009,incorrect,c
266,4F4K,267,2,43.78732259245499,59.9427473962536,1.2428219938772844,60.68924325690221,2,b,1.079298700000436,correct,b
267,4F4K,268,1,34.034488819044874,41.62324804787725,1.014686926830209,44.90986851160735,1,c,3.4900316999992356,correct,c
268,4F4K,269,2,48.11214267144239,56.76043448274511,1.3597715405433175,58.09877744638755,2,v,3.430427999999665,incorrect,b
269,4F4K,270,1,56.09230286199197,42.90660394003137,1.6052178297401332,46.052098426713215,2,n,1.837905100000171,correct,n
270,4F4K,271,1,67.74806064798058,52.326273731407895,2.045483386208205,54.34668439172678,2,n,1.9532122999999046,correct,n
271,4F4K,272,1,42.53412321620002,55.09735808674237,1.2108529722318957,56.70876057062697,1,c,1.4677359999996042,correct,c
272,4F4K,273,2,57.36727999631547,47.97049260116459,1.648345192489268,50.54560117867166,1,b,1.255252400000245,incorrect,v
273,4F4K,274,1,58.778919448598586,43.73817596801632,1.697448240201603,46.79228273000161,2,n,0.9155038999997487,correct,n
274,4F4K,275,1,45.47627327014777,64.60876024562984,1.287246366720424,64.28970168140928,1,c,1.2810922999997274,correct,c
275,4F4K,276,2,31.51270021318152,48.42461696221737,0.9628486916169744,50.94569701407294,2,b,1.8196674999999232,correct,b
276,4F4K,277,2,68.6876618372609,50.04702689924698,2.085841964606581,52.36865973882366,1,v,1.0315218000005189,correct,v
277,4F4K,278,2,46.07853264499036,31.940528784975516,1.3034687354908645,36.42902582185688,1,b,0.8607443999999305,incorrect,v
278,4F4K,279,2,51.17953767554378,59.02012942766972,1.449330008731909,59.94838382799593,2,v,0.709038099999816,incorrect,b
279,4F4K,280,2,35.88001334137515,51.55656880500808,1.054384012522638,53.68183035256666,2,b,1.6133558000001358,correct,b
280,4F4K,281,1,36.62375907142828,49.899868432891,1.0708176116267067,52.24005001199315,1,c,3.4351693999997224,correct,c
281,4F4K,282,1,54.98092947059352,71.74217632986488,1.5685460490199832,69.22907509131872,1,n,0.6606730000003154,incorrect,c
282,4F4K,283,2,54.76992766539188,35.60912528117171,1.5616788799471226,39.59669882475705,1,v,3.714542700000493,correct,v
283,4F4K,284,1,57.59630914360687,35.52544170535425,1.6562142046740214,39.52363002466016,2,n,1.3939429000001837,correct,n
284,4F4K,285,1,32.82567579825918,42.766863068466165,0.9894990820073524,45.927702502483214,1,c,1.444872199999736,correct,c
285,4F4K,286,2,50.86379772771316,39.64711283627901,1.4398454177863311,43.15407610052109,1,b,3.9208611000003657,incorrect,v
286,4F4K,287,1,38.81484439045908,54.24346676284463,1.1207351097922638,55.98661193744319,1,c,1.5647223999994821,correct,c
287,4F4K,288,2,61.37853838541567,51.21886205563659,1.791733602714366,53.38907446260576,1,v,3.2593321000003925,correct,v
288,4F4K,289,1,44.96085154345136,54.176376478948136,1.2735234688985264,55.92964557244719,1,c,1.6119564000000537,correct,c
289,4F4K,290,2,62.4301052238076,48.99941215194713,1.8313444366922256,51.451044771450825,1,v,1.5346509999999398,correct,v
290,4F4K,291,2,34.221104903657775,45.94110840105532,1.0186321427970182,48.75024126732748,2,v,2.1841205999999147,incorrect,b
291,4F4K,292,2,68.81024651175423,46.59154738209748,2.0911657180891408,49.32681815583789,1,v,1.0610338000005868,correct,v
292,4F4K,293,1,44.451363861261015,55.931495103156735,1.260102346964726,57.4087785960482,1,c,1.9897972999997364,correct,c
293,4F4K,294,2,73.96592208692195,56.08300325703241,2.3278170267002296,57.5353233384244,1,v,1.7048930000000837,correct,v
294,4F4K,295,1,51.47873264090136,64.66222347646264,1.4583752463828092,64.32941152853526,1,c,1.5041667000004963,correct,c
295,4F4K,296,2,51.89471051192391,36.34126973099633,1.471044934058501,40.23731693492078,1,v,4.939156299999922,correct,v
296,4F4K,297,1,37.9811605118332,51.96084657312433,1.101473522323497,54.03146356641414,1,c,1.5965602999995099,correct,c
297,4F4K,298,2,47.347411565265176,39.91091008550612,1.3383192885458155,43.38810175573052,1,v,1.5525938999999198,correct,v
298,4F4K,299,1,47.38240553430194,59.66028008679363,1.339293509977653,60.4633549756334,1,n,2.3187271999995573,incorrect,c
299,4F4K,300,1,45.80937810954882,57.4838493619672,1.2961937145129498,58.696065509574325,1,c,1.6740355000001728,correct,c
300,4F4K,301,1,45.42411699410238,23.79952842056937,1.2858510285400009,29.774004881914973,2,n,2.2384203999999954,correct,n
301,4F4K,302,1,35.28296055325658,46.14037754823098,1.0413743783056062,48.92697919778357,1,c,1.0362766000007468,correct,c
302,4F4K,303,2,41.12899382041408,58.730253284818616,1.1759851273869713,59.71383333207509,2,b,3.3624165000001085,correct,b
303,4F4K,304,2,30.994278069218225,42.95869147026124,0.9525246559115518,46.0984661593347,2,b,1.6679631000006339,correct,b
304,4F4K,305,1,37.27331228768366,53.56097785599705,1.0853793520493786,55.40563215223768,1,c,1.7287567000003037,correct,c
305,4F4K,306,2,51.19567784270127,33.406400963893745,1.4498165222485422,37.685296481857804,1,v,4.157651099999384,correct,v
306,4F4K,307,1,62.991344012706286,44.66000635375982,1.8528425891470155,47.61233244279358,2,n,1.2795252000005348,correct,n
307,4F4K,308,2,37.4597161119458,51.27752448030255,1.0895946187557333,53.43997283387447,2,b,3.5435522999996465,correct,b
308,4F4K,309,2,54.004658219304105,73.35392018737102,1.5370240578318155,70.23562348132523,2,b,0.8001073000004908,correct,b
309,4F4K,310,2,51.816297239429545,42.43390801850971,1.4686482642197485,45.631317085294896,1,v,1.3234288999992714,correct,v
310,4F4K,311,1,67.760708633403,51.82922535648128,2.04602143435658,53.91773493696879,2,c,2.8422092000000703,incorrect,n
311,4F4K,312,2,44.24063793061994,27.798761521774264,1.254592756202683,32.96592014557232,1,v,3.1925916000000143,correct,v
312,4F4K,313,1,64.85061107282189,50.68240445223652,1.9258806932834311,52.92278324112468,2,n,4.465750400000616,correct,n
313,4F4K,314,2,54.36180082663712,40.215409529851314,1.5484813688748609,43.65839913452204,1,b,1.2616063999994367,incorrect,v
314,4F4K,315,1,52.50941489851212,45.13224575465112,1.4899691367209489,48.03208117801576,2,n,2.798218099999758,correct,n
315,4F4K,316,1,54.214507872614014,42.53644844837197,1.5437458262711568,45.72259302250772,2,c,1.65585209999972,incorrect,n
316,4F4K,317,1,30.51952878226388,42.91854299490619,0.9431674686709116,46.06272644978427,1,c,1.5281832999999097,correct,c
317,4F4K,318,2,53.92053877206418,61.77518383670491,1.5343378227945472,62.133661306551446,2,v,3.8530424000000494,incorrect,b
318,4F4K,319,2,58.222781055927605,39.476441191923264,1.67793104802267,43.00274183290175,1,v,1.825784200000271,correct,v
319,4F4K,320,2,27.926077817040703,46.13714055265667,0.8936503233898185,48.92410886254744,2,b,1.409446300000127,correct,b
320,4F4K,321,1,55.97670263586005,60.77266643295757,1.6013637784332455,61.34801615262601,1,n,3.6426259999998365,incorrect,c
321,4F4K,322,2,44.75194867791451,50.39032018636795,1.268003265034229,52.66829216138736,2,b,2.7314157000000705,correct,b
322,4F4K,323,1,57.26591758245076,47.77595089472887,1.644874515396055,50.37399435310388,2,n,5.0,correct,n
323,4F4K,324,2,49.95730727820909,61.21314630617938,1.412958622858393,61.69460254833864,2,b,1.6679775999991762,correct,b
324,4F4K,325,1,65.40368923096001,52.37880438618932,1.9481579850752584,54.39193248543852,2,n,1.6254938999991282,correct,n
325,4F4K,326,1,58.49969114751592,41.24297794832773,1.6876207536381314,44.571605190363954,2,n,1.8014484000004813,correct,n
326,4F4K,327,2,48.158974164805485,28.763020964655283,1.3610963766395532,33.75934958614728,1,b,1.000258600000052,incorrect,v
327,4F4K,328,1,71.47433568787919,57.53261314162473,2.210281421291473,58.73615803615985,2,n,0.8963147999993453,correct,n
328,4F4K,329,2,44.31786389310605,51.72222205723772,1.2566090860446697,53.82520473202703,2,v,1.018562700000075,incorrect,b
329,4F4K,330,2,53.66705503428346,71.79162060251836,1.5262715348928235,69.26059282439736,2,b,1.3705550999993648,correct,b
330,4F4K,331,2,50.85211597302085,63.05967477661334,1.4394956998401307,63.12324103658593,2,b,1.2505928999999014,correct,b
331,4F4K,332,1,54.42609139894335,43.178364252990704,1.550552894572314,46.294013372141286,2,n,0.9153845999999248,correct,n
332,4F4K,333,1,43.04657083589332,58.89904948938017,1.2238248723037422,59.85051468610471,1,c,1.595332399999279,correct,c
333,4F4K,334,2,41.132240949952205,46.08818771646277,1.176064535124382,48.880698322808605,2,b,1.2673810999995112,correct,b
334,4F4K,335,2,53.56182993477977,33.0964658244304,1.5229355596919578,37.41853719604389,1,v,1.431263599999511,correct,v
335,4F4K,336,2,20.589041889247486,41.449069572253705,0.7671982085377981,44.754914390143085,2,b,1.4376807999997254,correct,b
336,4F4K,337,2,36.82426899062232,48.79484907082795,1.0752916920886306,51.27133988752736,2,b,1.226280300000326,correct,b
337,4F4K,338,1,27.417497471478583,44.49603967367878,0.8842492063395988,47.46652716567468,1,c,1.054982900000141,correct,c
338,4F4K,339,2,50.23999338364933,63.596238477196245,1.4212888664805543,63.53069766376069,2,b,3.9330524000006335,correct,b
339,4F4K,340,2,48.90488984078983,70.98660641876755,1.3823727609535614,68.7425066892614,2,b,1.2070421999997052,correct,b
340,4F4K,341,1,65.00351376250079,52.28799060625401,1.9320138184451412,54.31369816586728,2,n,1.0624633000006725,correct,n
341,4F4K,342,2,52.48419281707704,65.19692574863288,1.489187884926677,64.72449303946595,2,v,4.867563799999516,incorrect,b
342,4F4K,343,2,38.21241807722754,55.3581729298452,1.1067831170985936,56.928232332851415,2,b,2.6585880999991787,correct,b
343,4F4K,344,2,54.93799176035252,36.82743212109608,1.5671461748467923,40.66395312466479,1,v,0.7154929000007542,correct,v
344,4F4K,345,2,48.21498710250378,63.7942706195667,1.3626826458418206,63.68017299443884,2,b,0.8669017000001986,correct,b
345,4F4K,346,2,36.35274115207099,52.87761795320684,1.0647998215361223,54.82074893490072,2,b,0.6544214999994438,correct,b
346,4F4K,347,1,33.770062348490946,48.83727784113733,1.0091228867256503,51.30862603413565,1,c,1.6764585000000807,correct,c
347,4F4K,348,1,75.01186103438627,66.16876684788059,2.379000922232404,65.43274428873902,2,n,0.9639733999993041,correct,n
348,4F4K,349,1,41.425495729837074,25.271632455645253,1.1832581605352497,30.92918968893762,2,c,0.7758561999999074,incorrect,n
349,4F4K,350,2,40.11980421941429,56.418867605478816,1.1515636273613032,57.81516638985167,2,v,3.14325319999989,incorrect,b
350,4F4K,351,2,71.33113101245533,50.384565093585145,2.203709308425421,52.663273614683945,1,v,0.8987871999997878,correct,v
351,4F4K,352,1,55.4035204373817,37.22069815588642,1.5823904377150328,41.00973819460504,2,n,0.757632900000317,correct,n
352,4F4K,353,2,45.63152942782949,29.95037923800159,1.291408907147078,34.747553926597526,1,b,1.5890518999995038,incorrect,v
353,4F4K,354,1,40.08541287110358,50.698919888172405,1.150740383361034,52.93716045646208,1,c,1.8803428000001077,correct,c
354,4F4K,355,1,50.985907081710224,32.495467943221804,1.4435061082965834,36.90297444447476,2,n,1.1096267000002626,correct,n
355,4F4K,356,1,39.68477886048877,55.4393749963952,1.141193445458597,56.99645392459717,1,c,1.054965600000287,correct,c
356,4F4K,357,1,67.92234401056469,50.052876575782,2.0529099139584126,52.37377004474018,2,n,0.9459931999999753,correct,n
357,4F4K,358,2,43.15260691917639,62.55848304940647,1.2265263324021871,62.73946023508904,2,b,1.777226399999563,correct,b
358,4F4K,359,2,61.346925783628286,43.454268011863256,1.7905561657718676,46.53960103581024,1,v,1.1102982000002157,correct,v
359,4F4K,360,2,56.44778088112621,73.74191099253623,1.6171274955212045,70.47140867163144,2,b,1.777212199999667,correct,b
360,4F4K,361,2,55.21058018088077,38.141075836373375,1.5760544796179885,41.821109413021325,1,b,1.8321056000004319,incorrect,v
361,4F4K,362,1,43.814334145335415,58.31140532949245,1.2435202699703212,59.37346860396113,1,c,0.6862092999999732,correct,c
362,4F4K,363,2,37.82042286169868,54.33182340677708,1.0977980530880544,56.06158614964904,2,b,1.0563388000000486,correct,b
363,4F4K,364,2,56.52485338474201,42.08744729862344,1.6197213075945718,45.32294176979816,1,v,1.4432522999995854,correct,v
364,4F4K,365,2,46.94463811160793,61.38566411928955,1.3271570870487883,61.82975423973377,2,b,1.2505793999998787,correct,b
365,4F4K,366,1,34.3876507120643,51.56779708339639,1.0221660085333093,53.69155336159209,1,c,1.8743083999997907,correct,c
366,4F4K,367,2,52.42068591701336,30.88401791704696,1.4872225779596413,35.53267259791498,1,v,1.5648771000005581,correct,v
367,4F4K,368,1,35.2990351586555,52.44539160357272,1.041722528394732,54.44926441865314,1,c,0.7510784999994939,correct,c
368,4F4K,369,1,42.88989336895347,55.40931067626822,1.2198441190805318,56.97120157292796,1,c,3.301897399999689,correct,c
369,4F4K,370,1,61.97871943289747,49.34123613520176,1.814235303097512,51.750960974820885,2,n,0.9506541000000652,correct,n
370,4F4K,371,2,56.71109787771559,67.87904570118344,1.6260064004792678,66.64715640363964,2,v,1.0730486000002202,incorrect,b
371,4F4K,372,2,53.87381034911702,36.07849268419383,1.5328476458219815,40.00712005434799,1,b,1.5418804000000819,incorrect,v
372,4F4K,373,1,36.18179817399236,55.54437090267906,1.0610215401790737,57.084588406119416,1,c,1.528263600000173,correct,c
373,4F4K,374,2,51.49960937204221,39.165948406691015,1.459008492841095,42.72759286757844,1,v,1.4022509000005812,correct,v
374,4F4K,375,2,51.75085397029788,39.40192454775271,1.4666510068809755,42.93668770134727,1,b,1.2067415000001347,incorrect,v
375,4F4K,376,2,49.01092957702384,61.73755775779007,1.3854243034842908,62.10438103159765,2,b,0.9033190000000104,correct,b
376,4F4K,377,2,51.65322017995126,71.74912053522635,1.4636763774917518,69.23350401362546,2,b,1.4251928999992742,correct,b
377,4F4K,378,2,37.4540871625746,54.59224233416202,1.0894670883941742,56.28223157880804,2,b,0.6922291000000769,correct,b
378,4F4K,379,2,73.94775719207678,64.06793811607888,2.3269379102145136,63.885922267050695,1,b,0.9518438000004608,incorrect,v
379,4F4K,380,2,38.75348463957504,57.31948018996801,1.1193060307719718,58.56076527659231,2,b,0.8790005999999266,correct,b
380,4F4K,381,1,42.14890467156714,52.884833546408245,1.2011923068390755,54.82694056414144,1,c,0.7529844000000594,correct,c
381,4F4K,382,1,47.4679432106934,56.31143882140236,1.3416778392300863,57.72575964989561,1,n,2.7787012999997387,incorrect,c
382,4F4K,383,2,50.285450438723885,65.25014295145861,1.422632979047697,64.76360671291965,2,v,1.05502929999966,incorrect,b
383,4F4K,384,1,40.42913389698204,46.95250918055584,1.1589947384737376,49.64636357698071,1,c,1.8794894000002387,correct,c
384,4F4K,385,1,42.34661195334845,57.87468238613541,1.2061408226950396,59.01678425872431,1,c,1.1095640000003186,correct,c
385,4F4K,386,2,56.688478913460266,41.641051462101885,1.625241791225129,44.92570834881312,1,v,1.903624800000216,correct,v
386,4F4K,387,2,42.47881672616352,56.36330575634736,1.2094612117029784,57.76893768784086,2,v,1.3088361999998597,incorrect,b
387,4F4K,388,1,55.79626173057999,43.49196548062924,1.5953664587830414,46.57315436608219,2,n,2.949876300000142,correct,n
388,4F4K,389,1,35.5172754140509,18.72032786018792,1.046460794625698,25.99225818989799,2,c,1.8682535999996617,incorrect,n
389,4F4K,390,2,45.82419048419985,59.88088004005342,1.29659302268775,60.63983957411832,2,b,2.0200267999998687,correct,b
390,4F4K,391,2,62.868679781507765,49.98531731461409,1.8481225085402904,52.3147403955428,1,v,0.7883537999996406,correct,v
391,4F4K,392,1,81.15517159221177,66.78274055028007,2.7031754397341503,65.87348759186061,2,n,1.5043638000006467,correct,n
392,4F4K,393,2,49.62582723667483,35.602125640871506,1.4032526824013314,39.59058580063186,1,b,1.9288894000001164,incorrect,v
393,4F4K,394,1,48.91088724684136,61.69029423906425,1.3825451709402037,62.0675778596742,1,c,2.1110185000006823,correct,c
394,4F4K,395,1,50.78661534289174,39.3226631295993,1.4375363732408089,42.86644117214306,2,c,1.5102583000007144,incorrect,n
395,4F4K,396,1,57.17074988606641,35.163752460429514,1.6416225988586102,39.20820076135237,2,n,1.8320719999992434,correct,n
396,4F4K,397,1,57.4919442938544,43.36033787557241,1.6526237759965865,46.455994477483166,2,n,3.574931899999683,correct,n
397,4F4K,398,1,43.736588941027534,55.90724199087361,1.24151153709888,57.38850402522524,1,c,5.0,correct,c
398,4F4K,399,1,51.6827691090631,39.89329636335979,1.464576013767848,43.37247164461692,2,n,0.9276296999996703,correct,n
399,4F4K,400,2,38.00047020963438,53.899398149246586,1.1019158900649186,55.694124522966455,2,b,2.4825847000001886,correct,b
