,condition,trial,sub_task,x,y,xt,yt,cat,resp,rt,acc,correct_resp
0,4F4K,1,2,60.69971145435163,42.31597578646888,1.7666195029701788,45.62496522302122,1,v,2.7799999999997453,correct,v
1,4F4K,2,2,39.97663004658304,29.157405103839498,1.1481402639699587,34.17484598406291,1,v,3.673195599999417,correct,v
2,4F4K,3,2,46.15192334886938,58.593429515258,1.3054594996887143,59.713798866972525,2,b,3.0044921999997314,correct,b
3,4F4K,4,1,32.544024047393144,46.67414103552409,0.983720737872986,49.50198153489718,1,n,2.7132040999995297,incorrect,c
4,4F4K,5,2,25.95232022583714,39.27443142344991,0.8577146138157841,42.91995391738772,2,v,3.21694110000044,incorrect,b
5,4F4K,6,2,61.064535372973765,49.03545518786756,1.7800725737089484,51.58653490141873,1,b,1.4133751999997912,incorrect,v
6,4F4K,7,2,44.13944478629906,60.83125123896769,1.2519555521789367,61.5067711623646,2,b,1.1825631000001522,correct,b
7,4F4K,8,1,53.40710874230934,67.02747262272226,1.5180436368492247,66.1643053402814,1,c,2.2084560000002966,correct,c
8,4F4K,9,2,49.52553955200579,64.33884022288439,1.4003293551409872,64.20354725772538,2,b,1.2858605000001262,correct,b
9,4F4K,10,2,47.42083368727205,53.87918615250709,1.3403641550508798,55.784437955442016,2,b,2.026013700000476,correct,b
10,4F4K,11,2,39.29468449830396,48.942377038467406,1.1319737750207284,51.50472900625626,2,v,1.2551727000000028,incorrect,b
11,4F4K,12,2,48.728260811757785,40.36532926633653,1.3773047604483002,43.88863891184317,1,v,1.3888256000000183,correct,v
12,4F4K,13,2,51.238964478254985,66.6490577232511,1.451122119013874,65.89435042803112,2,b,2.190133899999637,correct,b
13,4F4K,14,1,54.56079766192419,61.779683682282695,1.5549022959862435,62.25034745558418,1,n,3.9998193999999785,incorrect,c
14,4F4K,15,2,50.03984591733226,30.095044538024087,1.4153858265074424,34.95803309543872,1,b,3.356569099999433,incorrect,v
15,4F4K,16,2,52.25751657070314,39.64463384663316,1.482184966308931,43.24841708821829,1,v,1.3817011999999522,correct,v
16,4F4K,17,1,48.40578871319843,42.626682817355686,1.3680999761624186,45.90178052376317,2,n,2.325195800000074,correct,n
17,4F4K,18,2,47.292449958976434,66.61269465776647,1.336790604556276,65.8683030432143,2,v,2.725353300000279,incorrect,b
18,4F4K,19,1,67.88310444609326,51.184317808518806,2.0512354969996607,53.46458269663356,2,c,2.4536706999997477,incorrect,n
19,4F4K,20,2,39.40660129627079,59.8938617087261,1.134611222439157,60.76209112783592,2,b,2.0382219000002806,correct,b
20,4F4K,21,2,75.07597190370778,65.7669638747665,2.382174597690988,65.25729890941098,1,v,2.5604530999999042,correct,v
21,4F4K,22,2,35.65990107946805,41.90707383133482,1.049569013117415,45.26072042053179,2,b,3.1198561999999583,correct,b
22,4F4K,23,1,43.092388139320455,59.77100489459192,1.2249914197800769,60.66379635462327,1,n,2.4643874999992477,incorrect,c
23,4F4K,24,1,49.065688868973446,65.75012380693035,1.3870027672899208,65.2450325983153,1,n,1.1705838999996558,incorrect,c
24,4F4K,25,1,51.85537719345451,35.2583034737614,1.4698422386652945,39.3837519648116,2,n,1.1279499000002033,correct,n
25,4F4K,26,2,79.88319164544312,64.92858010155207,2.6326135324568622,64.64197023934531,1,v,1.9228911000000153,correct,v
26,4F4K,27,2,32.62405062031284,51.59370514904353,0.9853591160993748,53.81978575946863,2,b,1.6254924999993818,correct,b
27,4F4K,28,2,24.99281759872356,39.60328446188723,0.8407708335268483,43.21171508156003,2,b,3.8491715000000113,correct,b
28,4F4K,29,1,74.9653030236484,59.45801462738865,2.376698815107885,60.41267012693541,2,c,0.9035733000000619,incorrect,n
29,4F4K,30,2,46.222916206482,30.81222375669587,1.3073881139799095,35.56186565230838,1,b,1.9232616999997845,incorrect,v
30,4F4K,31,1,55.56269703747691,70.36106935683523,1.5876368031986183,68.45136486082227,1,n,1.0550133999995523,incorrect,c
31,4F4K,32,1,52.536712213952434,41.17900592651911,1.490815130544094,44.61244812737845,2,n,2.6401969999997164,correct,n
32,4F4K,33,2,51.77714401412688,46.75198901049538,1.467453023795063,49.57096945991815,1,b,3.1019390000001295,incorrect,v
33,4F4K,34,1,65.43651265153107,46.11237926230046,1.9494881422063253,49.003732900570725,2,c,3.320103499999277,incorrect,n
34,4F4K,35,1,31.61856610743076,46.90918067352102,0.964970660204492,49.71022423730757,1,n,5.0,incorrect,c
35,4F4K,36,2,55.07104165112335,45.15907289616071,1.5714879933361563,48.15675659004806,1,b,1.364488899999742,incorrect,v
36,4F4K,37,1,62.98607011030981,43.49007134478296,1.852639403271417,46.671006259427536,2,n,0.6956717999992179,correct,n
37,4F4K,38,2,36.83034633830485,43.032226154055074,1.0754275905473512,46.26310604600442,2,b,1.1524430999998003,correct,b
38,4F4K,39,1,64.20274014987925,45.857499948125216,1.9001090305261257,48.77744570099553,2,c,0.7455339999996795,incorrect,n
39,4F4K,40,2,59.80346238061698,45.94166821089678,1.7339999673784785,48.85218643631358,1,v,0.951859599999807,correct,v
40,4F4K,41,2,31.546273589462,45.22913833924434,0.9635211282826482,48.21905968351574,2,v,3.785828699999911,incorrect,b
41,4F4K,42,2,54.026588606196654,36.380669955753696,1.537725146106471,40.3658716392305,1,v,2.992392799999834,correct,v
42,4F4K,43,2,46.48661740832945,50.52462246438759,1.3145768846755306,52.89034678412727,2,b,1.2856677999998283,correct,b
43,4F4K,44,2,31.7087014488976,40.53703123211967,0.9667810120879704,44.041300314161646,2,v,1.583031299999675,incorrect,b
44,4F4K,45,1,47.75587884047763,63.5935313152388,1.3497351697397622,63.64305656439095,1,n,1.1339183000000048,incorrect,c
45,4F4K,46,2,49.05183992962233,65.30713845420007,1.3866033949121477,64.92098038468532,2,v,0.6546799999996438,incorrect,b
46,4F4K,47,1,63.26986062344828,49.77702458160029,1.8636046285293024,52.23702915079453,2,c,1.831851099999767,incorrect,n
47,4F4K,48,1,47.40747343473048,33.55716828365306,1.3399918286243175,37.90713117234285,2,n,0.8975139000003765,correct,n
48,4F4K,49,1,35.06110332602145,48.09835286263319,1.0365811757213788,50.761441564844624,1,n,2.804225700000643,incorrect,c
49,4F4K,50,2,58.17652256812747,44.75963554163574,1.6763177916240652,47.801439449857966,1,v,5.0,incorrect,v
50,4F4K,51,1,65.74416500880707,47.838570771392746,1.9619998758457355,50.53216534821377,2,c,2.4836138999999093,incorrect,n
51,4F4K,52,1,58.96208550399263,49.81154560458818,1.703925862010582,52.26725320238604,2,n,1.121764699999403,correct,n
52,4F4K,53,2,33.37270779996787,49.07592498782516,1.0008191042988643,51.62209293012748,2,b,1.303826299999855,correct,b
53,4F4K,54,1,51.75253920157049,62.21678870807261,1.4667024042181962,62.58956685197285,1,n,1.1096738000005644,incorrect,c
54,4F4K,55,2,64.68139718883783,42.137151989837456,1.9191159980328236,45.46566143187503,1,v,1.9714177000005293,correct,v
55,4F4K,56,2,56.76663842831911,42.44502104419468,1.627885414246388,45.73993132521031,1,v,1.1689980000001015,correct,v
56,4F4K,57,2,35.468414970962215,51.73938792075288,1.045398104926679,53.94596392345882,2,b,0.6071554999998625,correct,b
57,4F4K,58,1,58.452283737088464,44.68760614616676,1.6859579010212673,47.73734413882791,2,n,1.661914500000421,correct,n
58,4F4K,59,2,32.685488669127025,48.938993677574295,0.9866187841641868,51.50175474888084,2,v,1.3394661000002088,incorrect,b
59,4F4K,60,1,52.97078118359149,33.44356378866833,1.5043324550244024,37.809096011868704,2,c,1.2553100999994058,incorrect,n
60,4F4K,61,2,55.8296267462884,44.96609474198977,1.5964737176666135,47.98512099787432,1,v,1.1838265000005777,correct,v
61,4F4K,62,1,28.92079767076337,49.09627129147389,0.912327639479361,51.63996736532585,1,n,0.933634200000597,incorrect,c
62,4F4K,63,1,46.6771288430344,55.49882724656537,1.3197950073358435,57.15509142810302,1,c,3.5627726999991864,correct,c
63,4F4K,64,2,43.11614179793792,32.91154483229323,1.2255966457233984,37.351032498258,1,b,2.9073899999993955,incorrect,v
64,4F4K,65,2,31.839898068761656,46.86781969389553,0.9694221435603588,49.67358902779874,2,b,0.7940410000001066,correct,b
65,4F4K,66,2,61.03011439041524,40.88776352056709,1.7787989173420136,44.35327210297955,1,v,0.6544512000000395,correct,v
66,4F4K,67,1,64.09948223098222,47.39917579183755,1.8960335161156656,50.14388270574036,2,n,1.455548799999633,correct,n
67,4F4K,68,2,57.183662748514735,40.01611216873447,1.6420634590362555,43.5782968917194,1,v,1.5356212000006053,correct,v
68,4F4K,69,2,50.20254251826097,36.25769205099552,1.420182441861221,40.2579896804931,1,b,2.1352876000000833,incorrect,v
69,4F4K,70,1,65.46585237922443,42.957856115207136,1.9506778926660144,46.1968449535819,2,n,2.398601900000358,correct,n
70,4F4K,71,2,64.87165880815493,48.643944931938535,1.926723788281454,51.24221336850315,1,v,0.8486315000000104,correct,v
71,4F4K,72,2,56.4463511025108,70.38356239078917,1.61707941675456,68.46621951611446,2,v,0.9639518999993015,incorrect,b
72,4F4K,73,1,53.19148567756855,68.39043411387888,1.5112523368616304,67.11951277822611,1,n,0.9761010000001988,incorrect,c
73,4F4K,74,2,52.29987316405399,44.81223643224135,1.483491021159026,47.84824231748495,1,v,3.229119699999501,correct,v
74,4F4K,75,1,61.739677790627255,45.18502166064643,1.8052396031772435,48.17983142508204,2,n,3.090396600000531,correct,n
75,4F4K,76,1,59.58318651640749,46.52257131183593,1.7260755297859174,49.36761991364771,2,c,5.0,correct,n
76,4F4K,77,2,52.207671167287806,34.56042414834507,1.4806494685746343,38.77610355862809,1,v,2.731386100000236,correct,v
77,4F4K,78,2,45.14808587877219,36.81971434948815,1.2784915066042275,40.75152523653264,1,b,2.343019799999638,incorrect,v
78,4F4K,79,1,69.394466931684,58.77688981721021,2.116725231851048,59.86271900000419,2,n,1.3767369999995935,correct,n
79,4F4K,80,2,48.499940244418426,39.06641227609551,1.370781101670192,42.7355247712613,1,v,0.8900562999997419,correct,v
80,4F4K,81,1,54.843645983795874,64.3108858052645,1.5640746591276775,64.18265306150893,1,c,2.0757510000003094,correct,c
81,4F4K,82,2,54.17590366553406,40.98681462918195,1.5425070786169406,44.44140621222572,1,v,2.1112878000003548,correct,v
82,4F4K,83,1,43.3768308759928,37.01294158870815,1.2322584945893895,40.921494207489744,2,n,1.2369486000006873,correct,n
83,4F4K,84,2,43.10120217493044,35.5343607887063,1.22521596011354,39.62478140426242,1,v,1.7700346000001446,correct,v
84,4F4K,85,1,55.5186002792669,33.25425130945594,1.5861816609996946,37.64590064474827,2,c,1.2555577000002813,incorrect,n
85,4F4K,86,2,54.5302348923013,32.31214140243105,1.5539144152174045,36.83709780550624,1,v,1.3523343999995632,correct,v
86,4F4K,87,2,49.35185846286103,65.72328600582978,1.3952810519432144,65.225475944002,2,b,1.5177172000003338,correct,b
87,4F4K,88,2,55.37354516279967,74.55742776054574,1.581404412114474,71.07949518137269,2,v,2.94993710000017,incorrect,b
88,4F4K,89,1,40.05108969748627,51.76989864698345,1.1499193580769358,53.97237460789175,1,n,1.2856005000003279,incorrect,c
89,4F4K,90,2,50.73004332071358,69.29861795695838,1.435846275435236,67.74070501018996,2,b,1.091427900000781,correct,b
90,4F4K,91,2,43.40471392978176,29.275413273470704,1.2329731797810433,34.27301009327966,1,b,3.0710853999999017,incorrect,v
91,4F4K,92,1,50.39930377146084,62.3536092698821,1.4260050719903046,62.69528651003966,1,n,0.915472900000168,incorrect,c
92,4F4K,93,2,49.30027319731839,65.97491972937587,1.393785156728528,65.40845436865835,2,v,1.534467599999516,incorrect,b
93,4F4K,94,2,49.57233311708272,34.97024754375697,1.4016926015241256,39.13264096226119,1,v,1.6706372999997257,correct,v
94,4F4K,95,2,66.50975685049443,52.83288614040824,1.993484938805991,54.889094616252535,1,v,1.5648208000002342,correct,v
95,4F4K,96,1,51.045227628088575,65.42733706542111,1.445287823848137,65.00917000310142,1,c,0.9457681999992928,correct,c
96,4F4K,97,1,43.029891445118565,65.51571984774534,1.2234004767141258,65.07389222497451,1,n,3.5265105999997104,incorrect,c
97,4F4K,98,1,29.63224147328692,49.618414087112114,0.9259249995399008,52.09809414549032,1,n,1.0428914000003715,incorrect,c
98,4F4K,99,1,58.17465026568141,69.72569181136211,1.6762525280850131,68.02847607561678,1,n,1.2553279000003386,incorrect,c
99,4F4K,100,1,56.63753517675208,46.96794917723964,1.6235210107069944,49.76227037228354,2,c,0.7593576999997822,incorrect,n
100,4F4K,101,1,43.80265954297063,27.698748608347746,1.2432184215084905,32.97165326338248,2,c,1.0125310000003083,incorrect,n
101,4F4K,102,1,51.693482140204914,40.244355486079385,1.4649023154970922,43.78110848464497,2,n,0.6907909999999902,correct,n
102,4F4K,103,1,39.30862154646502,57.46894998536199,1.1323018830177138,58.79396892266536,1,c,0.6255241999997452,correct,c
103,4F4K,104,2,66.78850681773811,51.52300720682455,2.0050736139584044,53.75851045523321,1,v,1.6669943000006242,correct,v
104,4F4K,105,2,44.800181277185125,51.166491311535,1.269275670612817,53.44909508538894,2,v,1.8500885000003109,incorrect,b
105,4F4K,106,2,39.6314705771908,48.10843187789799,1.13992911676938,50.77033251338355,2,b,0.7393844999996873,correct,b
106,4F4K,107,2,33.5740170277668,52.6819140755732,1.0050174220421426,54.75931522425458,2,b,1.6268619000002218,correct,b
107,4F4K,108,1,34.845551314981435,50.44429925810429,1.0319453279992523,52.82027980161558,1,c,3.6416844000004858,correct,c
108,4F4K,109,2,53.670958531089454,48.163085834295046,1.5263954288073205,50.81853814301864,1,v,1.3209661000000779,correct,v
109,4F4K,110,2,47.903583930373486,59.65516800871585,1.3538871747322767,60.57097358223097,2,v,0.5877930999995442,incorrect,b
110,4F4K,111,1,57.01227201727293,68.10848288603681,1.6362216102955651,66.92414403127661,1,c,0.6546709999993254,correct,c
111,4F4K,112,1,48.608234709532354,63.54569649282678,1.373871469503516,63.606843533042536,1,c,0.8304596999996647,correct,c
112,4F4K,113,2,72.33478563447544,56.19655964950455,2.25018492338099,57.739278456001536,1,v,0.8486524999998437,correct,v
113,4F4K,114,1,42.8828732770553,33.59078994345692,1.2196660608097238,37.93615971524848,2,n,1.6123389000003954,correct,n
114,4F4K,115,2,43.189167836967904,55.19924154049561,1.2274591694397807,56.90305818383269,2,b,1.0367968000000474,correct,b
115,4F4K,116,1,41.29924039504668,49.0012952018057,1.1801557019912563,51.55651582541008,1,n,1.7276867000000493,incorrect,c
116,4F4K,117,1,67.49449671468568,48.237205035685705,2.034726521659716,50.88389615411764,2,c,0.7286360999996759,incorrect,n
117,4F4K,118,1,56.23127337341759,42.38902637049894,1.6098633142040946,45.69004518423547,2,n,0.7515247999999701,correct,n
118,4F4K,119,2,44.99425536950232,59.67130085407835,1.2744083822015069,60.583909574999005,2,v,2.7227207000005365,incorrect,b
119,4F4K,120,1,53.45658241436859,42.50685249940437,1.519606167454115,45.795018467862754,2,n,0.4980814000000464,correct,n
120,4F4K,121,1,42.40017810727807,52.52843363905062,1.2074850635642456,54.627233769274056,1,n,1.7458832000002076,incorrect,c
121,4F4K,122,1,38.8364968624488,45.00602957710007,1.121239834950701,48.02064351119197,1,c,0.8367491999997583,correct,c
122,4F4K,123,2,48.19453845668157,56.60435348575562,1.362103332324513,58.07883544477249,2,v,1.8075508000001719,incorrect,b
123,4F4K,124,1,33.90409656937827,54.95811828242347,1.011939400187785,56.69970006417783,1,c,1.6315853999994943,correct,c
124,4F4K,125,1,44.83871608379452,59.29307794381213,1.270293159954783,60.2799280220931,1,c,1.4690620999999737,correct,c
125,4F4K,126,2,41.655105262376246,27.520569713593844,1.1889212489406804,32.826020676970266,1,b,1.8319148999999015,incorrect,v
126,4F4K,127,1,66.45125853148295,46.200605332767445,1.9910614615869904,49.0820307087206,2,c,1.9841893000002528,incorrect,n
127,4F4K,128,2,40.03078100741036,49.46349335805769,1.1494338412197822,51.96228609863202,2,b,1.9957198000001881,correct,b
128,4F4K,129,2,44.17175299865882,58.2054809112102,1.2527969365669505,59.39781018917322,2,b,1.4973351999997249,correct,b
129,4F4K,130,2,37.69666533218163,49.7895136015573,1.0949765397854307,52.24796422228977,2,b,1.0914966000000277,correct,b
130,4F4K,131,2,41.99498286319125,59.161941894786274,1.1973537800660097,60.17419117533007,2,b,0.6305928000001586,correct,b
131,4F4K,132,1,54.74223493497866,50.80735342086062,1.5607798395812855,53.13672317464632,2,c,1.6618882000002486,incorrect,n
132,4F4K,133,2,64.06636053346085,59.06138885028104,1.8947280795844528,60.09299608009215,1,b,1.0296922000006816,incorrect,v
133,4F4K,134,2,45.636258789750926,62.327416936672,1.2915359161185127,62.67506516020858,2,b,0.9517706999995426,correct,b
134,4F4K,135,2,23.04143678364994,41.69918897467959,0.8073371046031249,45.07557562254829,2,v,1.4312425000007352,incorrect,b
135,4F4K,136,2,52.41314309287591,38.97849711341598,1.486989327445831,42.6576108174719,1,v,0.6835847000002104,correct,v
136,4F4K,137,2,52.82326747148137,44.59271549855564,1.4997250434132434,47.65289646347239,1,v,1.7347830999997313,correct,v
137,4F4K,138,2,53.34766648070688,66.57971263461022,1.516168392284876,65.84466146898771,2,b,0.9821891999999934,correct,b
138,4F4K,139,2,56.22924881030373,62.82852785697538,1.6097955410187876,63.0605167886124,2,v,1.1948129000002154,incorrect,b
139,4F4K,140,1,52.98431313267493,71.1521567478171,1.5047558171473447,68.96897737698933,1,c,0.6131879999993544,correct,c
140,4F4K,141,1,50.57304516263702,34.77567303782701,1.4311663331793127,38.96325731203908,2,n,1.1512157999995907,correct,n
141,4F4K,142,2,28.723174282603868,42.66870492406038,0.9085861559657558,45.93922041275135,2,v,2.543285400000059,incorrect,b
142,4F4K,143,2,42.45914537328966,51.92139795450963,1.2089665775866405,54.10343678809799,2,b,0.9275584999995772,correct,b
143,4F4K,144,2,34.93147950629922,24.15348738408304,1.0337908836171643,30.13458286266193,1,v,0.9639693999997689,correct,v
144,4F4K,145,1,64.18934699141832,48.913835798121376,1.8995799183323872,51.479637470075225,2,n,2.4957150000000183,correct,n
145,4F4K,146,2,37.256750521386415,53.57964122374047,1.085005620172811,55.5288599016296,2,b,3.775274900000113,correct,b
146,4F4K,147,1,32.791634305625195,46.68511322917135,0.9887988902364392,49.51170586603518,1,c,1.1824298999999883,correct,c
147,4F4K,148,2,50.53527786431759,66.15658196998172,1.4300428095243125,65.54001162937303,2,b,0.7386903000005987,correct,b
148,4F4K,149,1,58.70745378785948,41.03144697440799,1.6949275584936867,44.4811232650526,2,c,1.2918298000004143,incorrect,n
149,4F4K,150,2,50.39605101856698,70.64909879810602,1.4259086215598258,68.64097785722693,2,b,1.0236014000001887,correct,b
150,4F4K,151,2,50.09173712302549,33.72071843823487,1.4169139190383144,38.048400865845466,1,v,0.8414074000002074,correct,v
151,4F4K,152,1,58.46643809146524,44.67056767839146,1.6864542046164508,47.72218156615484,2,c,1.1096582999998645,incorrect,n
152,4F4K,153,2,55.48337734583944,40.42653079111812,1.5850203029770065,43.9430483561517,1,v,3.0459921000001486,correct,v
153,4F4K,154,2,51.53022128652741,68.84123375440889,1.459937530376748,67.4294142875013,2,b,0.5452500999999756,correct,b
154,4F4K,155,1,56.60536458000994,51.53052543924467,1.6224352890786278,53.76502797123783,2,n,1.1035782999997537,correct,n
155,4F4K,156,1,65.81161653858963,54.83818987038989,1.9647537374106887,56.598389293621054,2,n,1.639051300000574,correct,n
156,4F4K,157,2,61.97006454555043,77.59618738228728,1.8139088185216652,72.79304355534774,2,b,3.0846706000002087,correct,b
157,4F4K,158,2,39.4494898463058,51.31814293676495,1.1356235681102005,53.58079546407642,2,v,2.2263199999997596,incorrect,b
158,4F4K,159,1,50.06956448555686,64.05681628848394,1.4162607773222784,63.99229082571848,1,n,2.350080000000162,incorrect,c
159,4F4K,160,1,28.31996620553653,42.9722415443031,0.9009999843960056,46.2096619018386,1,c,1.0368240999996488,correct,c
160,4F4K,161,1,55.11743363672346,37.484105947658925,1.5730047301970511,41.33652281425905,2,n,1.8673250000001644,correct,n
161,4F4K,162,1,59.87874512291205,72.31826558248382,1.7367166018746478,69.71352803039365,1,c,1.6073694000006071,correct,c
162,4F4K,163,1,38.16089986260765,50.05802603919128,1.1055980650145076,52.48289762331904,1,n,0.5890787999996974,incorrect,c
163,4F4K,164,1,50.2595190715064,69.17879165484868,1.421866062838861,67.65946042470819,1,n,3.5142729999997755,incorrect,c
164,4F4K,165,2,45.844014925022186,59.78726199583056,1.2971276373452032,60.676812346014025,2,v,1.152145500000188,incorrect,b
165,4F4K,166,1,55.357668793055865,38.77037942906959,1.5808824137052084,42.47324613583317,2,c,2.031184499999654,incorrect,n
166,4F4K,167,2,33.65619026066406,47.57535687054356,1.0067362079392976,50.2996403038574,2,b,2.1837138000000778,correct,b
167,4F4K,168,1,56.67029964263149,72.53437124446418,1.6246275215560322,69.84905310161679,1,n,3.0287779999998747,incorrect,c
168,4F4K,169,1,43.42656338847622,36.22987049574785,1.233533504383202,40.2335921329712,2,c,0.9214104000002408,incorrect,n
169,4F4K,170,2,52.24437595674053,39.3776591307385,1.481780012542824,43.01151265277896,1,v,3.133227000000261,correct,v
170,4F4K,171,2,51.35060447748519,70.465370768165,1.4544947956562695,68.52017932220555,2,b,0.8001438999999664,correct,b
171,4F4K,172,1,55.44588526328252,42.289136425584296,1.5837850616097977,45.60105478577056,2,n,1.2370992999994996,correct,n
172,4F4K,173,1,48.18824770253894,38.866088826406845,1.361925163761134,42.55801819771682,2,c,1.27238269999998,incorrect,n
173,4F4K,174,1,29.496216799949764,44.92318688531512,0.9233096716234288,47.94695153475678,1,c,0.8501480000004449,correct,c
174,4F4K,175,1,27.89642899748971,47.91889503410845,0.8930995310791936,50.603080800787055,1,c,1.1035715999996683,correct,c
175,4F4K,176,1,54.94931271345664,50.83449349181508,1.5675151442334705,53.160352363485536,2,n,0.5755694000008589,correct,n
176,4F4K,177,1,51.3889317076228,42.08889141245374,1.4556544789425887,45.42267125850074,2,n,1.848866100000123,correct,n
177,4F4K,178,1,31.425142841875843,50.02932491521513,0.9610972237505075,52.45780137011674,1,c,0.636465199999293,correct,c
178,4F4K,179,2,31.52392203731914,46.83066163877558,0.9630733998016776,49.640672769236105,2,v,3.757036099999823,incorrect,b
179,4F4K,180,2,53.72313592286622,41.77538821190506,1.5280524641219848,45.143436160535096,1,b,2.7920985999999175,incorrect,v
180,4F4K,181,1,34.322565909487324,46.529010949708734,1.0207835443507232,49.37332955966963,1,c,1.1282169000005524,correct,c
181,4F4K,182,1,33.75806066313095,44.29350813784474,1.008871073337288,47.38655438474177,1,c,0.666957899999943,correct,c
182,4F4K,183,2,70.96159637237636,51.377395361885135,2.186840335914864,53.63221907229419,1,v,1.438617200000408,correct,v
183,4F4K,184,2,54.09213987293874,42.093454943398406,1.539822648899521,45.426736370665694,1,v,0.9896678999994037,correct,v
184,4F4K,185,2,33.98263687105184,21.731282854415436,1.013593449600883,28.27740525941672,1,v,1.2188406000004761,correct,v
185,4F4K,186,1,25.466961143802106,35.636801179572494,0.8491014458865446,39.71431496594327,1,c,0.8183337000000392,correct,c
186,4F4K,187,1,59.30071768832279,41.75605851037866,1.715966669596927,45.12622136905527,2,n,1.2430801000000429,correct,n
187,4F4K,188,1,48.518588873262544,59.80755679465735,1.3713127763023485,60.69305717688798,1,n,3.5132229000000734,incorrect,c
188,4F4K,189,1,37.60297782052941,24.189839337670264,1.0928454082197658,30.162985729490156,2,c,0.660425000000032,incorrect,n
189,4F4K,190,2,31.782120074232825,50.2735372962646,0.9682581214027932,52.67121841163721,2,b,3.581106099999488,correct,b
190,4F4K,191,2,50.4365844827622,61.455308071494414,1.427110983367561,61.997182093711785,2,v,1.0538080999995145,incorrect,b
191,4F4K,192,1,46.366401814229306,30.667414930376157,1.3112947923031493,35.43962110637724,2,c,1.2130514999998923,incorrect,n
192,4F4K,193,1,37.96668854177362,53.71856733474368,1.101142098985435,55.64747138137491,1,n,0.6619258000000627,incorrect,c
193,4F4K,194,2,44.21510528163996,60.939759867815255,1.253926823903288,61.59235460435668,2,v,0.5452847000005931,incorrect,b
194,4F4K,195,2,48.105220651840334,33.05971152628271,1.3595758299956515,37.47842706558463,1,b,0.589117499999702,incorrect,v
195,4F4K,196,1,52.726668353495945,70.87663757200905,1.496715536086222,68.78983723585941,1,n,0.9080859000005148,incorrect,c
196,4F4K,197,2,37.4746684283272,44.269746001237074,1.0899334532853024,47.36539853295497,2,v,2.4776959000000716,incorrect,b
197,4F4K,198,1,28.340700448932484,41.31155395546615,0.9013885401273636,44.73043365008862,1,c,0.9518447999998898,correct,c
198,4F4K,199,1,47.05253121614878,63.4036092307976,1.3301380049361426,63.49910877359773,1,n,1.752745199999481,incorrect,c
199,4F4K,200,2,33.3663954660441,51.40762448655292,1.0006877441097566,53.65844679052195,2,v,2.561469300000681,incorrect,b
200,4F4K,201,1,36.56614352882206,51.075557605943374,1.069535453045606,53.37006600349189,1,n,2.3125089000004664,incorrect,c
201,4F4K,202,1,35.79462142418174,60.43224485388861,1.052513430456284,61.19095234110072,1,c,2.4947631999993973,correct,c
202,4F4K,203,2,51.50614844449223,39.343704361765816,1.4592068967444185,42.98139350204311,1,v,1.3705853999999817,correct,v
203,4F4K,204,2,53.94559738355962,40.26280139098318,1.535137542625383,43.79750300517168,1,v,1.388815300000715,correct,v
204,4F4K,205,2,56.38988954576792,50.08169883325022,1.6151819420771372,52.503594253179806,1,v,2.0564110000004803,correct,v
205,4F4K,206,2,48.06050225858546,56.35378036331844,1.3583121577885202,57.87035830780692,2,v,1.0737554999996064,incorrect,b
206,4F4K,207,2,57.971776168475536,46.45403098263006,1.669195903457267,49.30684323681768,1,b,3.010590400000183,incorrect,v
207,4F4K,208,1,53.64753407767242,37.615316916197,1.5256521059788772,41.45224001730043,2,n,0.7637317000007897,correct,n
208,4F4K,209,2,33.2875674309213,53.68411723770876,0.9990487775125312,55.61807110407669,2,v,2.1717381999997087,incorrect,b
209,4F4K,210,1,52.3078991862608,41.38454397262271,1.4837386311911418,44.79541211526482,2,n,3.6590491000006296,correct,n
210,4F4K,211,1,55.60775706415231,40.60469292895614,1.5891251111438702,44.101471068063816,2,n,0.9821522000002005,correct,n
211,4F4K,212,2,53.71871000291193,67.23425654590795,1.5279118371739346,66.31096047463218,2,b,0.9299683999997796,correct,b
212,4F4K,213,2,58.26649097722943,44.68693170484157,1.6794568502180354,47.73674395838335,1,v,1.4860577000008561,correct,v
213,4F4K,214,2,61.13269006743253,44.742515075960206,1.782597147011859,47.78620538122987,1,v,2.3490174000007755,correct,v
214,4F4K,215,2,55.39537474968172,70.31009692318275,1.5821224275043118,68.41767255906828,2,b,1.0550213000005897,correct,b
215,4F4K,216,1,59.18410289037607,47.341403018736834,1.7118106004359726,50.09278725633161,2,n,2.2995575000004465,correct,n
216,4F4K,217,2,43.40174753650596,57.49220863881767,1.2328971268985514,58.81311433105888,2,b,1.1828030000006038,correct,b
217,4F4K,218,2,52.41725274068942,39.34525460329094,1.487116407599058,42.982768567738844,1,v,0.8308030999996845,correct,v
218,4F4K,219,2,61.25205632346983,79.23432413704266,1.7870273191252284,73.6470302579211,2,b,0.672668799999883,correct,b
219,4F4K,220,2,69.89495841314998,48.49383790486963,2.1388699316271564,51.11004587080771,1,v,1.6254908999999316,correct,v
220,4F4K,221,2,62.75329055739425,45.90374842221906,1.8436933441948216,48.8185156880834,1,v,1.0853902999997445,correct,v
221,4F4K,222,2,46.60358394453876,59.524062864167455,1.317778156851195,60.46574796210796,2,b,1.7590221000000383,correct,b
222,4F4K,223,2,60.960587792024576,45.086508977303104,1.7762290503391012,48.09222415572656,1,v,1.0800226000001203,correct,v
223,4F4K,224,2,62.52692356645422,44.0710916375574,1.8350351613384592,47.188513762743895,1,v,3.065437500000371,correct,v
224,4F4K,225,2,42.82077040113487,57.49455147074721,1.2180920091742715,58.815042564038194,2,b,1.0429224999998041,correct,b
225,4F4K,226,1,55.26895294070719,41.08937023051482,1.577968699286934,44.53267100351438,2,n,1.3159679999998843,correct,n
226,4F4K,227,2,62.77315977857992,47.625284890130544,1.8444552582226756,50.34376355801011,1,v,3.829834299999675,correct,v
227,4F4K,228,2,62.52108381550995,44.97571356207324,1.8348123388281157,47.99367725282358,1,v,0.9690350000000763,correct,v
228,4F4K,229,1,53.76870620097733,42.08863165657501,1.5295011440635795,45.42243987289528,2,n,2.0259325000006356,correct,n
229,4F4K,230,2,46.993656656639786,66.45183474240461,1.328510563868652,65.75285408442372,2,b,1.1580902000005153,correct,b
230,4F4K,231,2,58.28972150305526,41.87268194688563,1.680268333368478,45.23008860674194,1,v,1.6804908999993131,correct,v
231,4F4K,232,1,59.68901158610501,48.52309169227375,1.7298780629464685,51.13580994750715,2,n,1.8743571000004522,correct,n
232,4F4K,233,1,32.92635941144193,49.20701452201041,0.9915729237653472,51.73722727592752,1,c,2.9741707999992286,correct,c
233,4F4K,234,1,47.544011355554375,33.68932033156869,1.3438017746832756,38.02126798032508,2,n,1.6255325000001903,correct,n
234,4F4K,235,1,44.32187298351745,40.37052782515251,1.2567138497534704,43.8932603087466,2,c,3.6669465000004493,incorrect,n
235,4F4K,236,2,33.072052348499376,48.78788143028464,0.9945815477177644,51.36886931528792,2,b,1.4919786000000386,correct,b
236,4F4K,237,1,53.74381118907685,44.4897680505857,1.5287095610743775,47.561267299036025,2,n,0.7566252999995413,correct,n
237,4F4K,238,2,65.3086726424469,45.40013205987603,1.9443125865973432,48.371077592100896,1,v,0.6436934000003021,correct,v
238,4F4K,239,2,27.742625491491303,50.87210150397657,0.8902477347502145,53.193089142406826,2,v,1.9289644999998927,incorrect,b
239,4F4K,240,2,51.51602394500652,38.68826645662109,1.4595065833263567,42.40053589766136,1,v,0.9277466000003187,correct,v
240,4F4K,241,1,35.02303028473394,48.49440883927403,1.0357608323035814,51.11054872757618,1,n,2.6224251999992703,incorrect,c
241,4F4K,242,2,33.47840942262312,41.8925749503068,1.0030213275051496,45.24780661491643,2,b,0.9033098999998401,correct,b
242,4F4K,243,2,50.82156947043695,36.28573776153424,1.43858162731202,40.282587105826224,1,v,1.498061900000721,correct,v
243,4F4K,244,1,42.61862931923731,55.06095090469773,1.2129826203052732,56.78648162003186,1,c,3.3419018000004144,correct,c
244,4F4K,245,1,52.652071321779545,41.561938444013485,1.4943956282402056,44.95335592261005,2,n,0.8050834999994549,correct,n
245,4F4K,246,1,57.21494102805251,44.60756342632221,1.643131826743395,47.66611101463317,2,c,1.6983564000001934,incorrect,n
246,4F4K,247,2,50.98504986055993,39.720853211516925,1.4434803774337956,43.31607916003271,1,v,0.9457915000002686,correct,v
247,4F4K,248,2,42.96433571394711,30.91581737368036,1.2217338818206738,35.64941505335154,1,v,1.4007841999991797,correct,v
248,4F4K,249,2,42.15050540973406,57.62596863794879,1.201232290889454,58.92312295669168,2,b,1.5405304000005344,correct,b
249,4F4K,250,2,58.252111191007,47.41805332872642,1.678954735367851,50.16057629001533,1,v,1.0553880999996181,correct,v
250,4F4K,251,1,45.36340750232456,53.53729744142083,1.2842287707519782,55.49268174099424,1,n,1.3948684999995749,incorrect,c
251,4F4K,252,2,44.04530394787236,27.42591276067676,1.2495071166704566,32.74877691050746,1,v,1.2492497000002913,correct,v
252,4F4K,253,1,51.50963070511904,44.8325469942443,1.459312564038417,47.86631318633573,2,c,4.073544500000025,incorrect,n
253,4F4K,254,2,41.72358514332674,55.05949355817316,1.1906154777236744,56.78525231639963,2,v,1.0610367999997834,incorrect,b
254,4F4K,255,1,47.81868767457344,64.22335743583693,1.3514991740944196,64.11716584739297,1,c,0.8001672000000326,correct,c
255,4F4K,256,2,63.31600843895615,51.14845315405374,1.865393833263787,53.43342186992407,1,v,1.0624812000005477,correct,v
256,4F4K,257,1,38.98952196366332,46.94789038387584,1.124813378428929,49.74450706850234,1,n,0.9044314000002487,incorrect,c
257,4F4K,258,2,45.00104372071585,32.87018041834224,1.2745882901252337,37.31549181034989,1,v,0.9094096999997419,correct,v
258,4F4K,259,1,50.76867768386633,63.35938429777926,1.4370002676599898,63.465524827059845,1,n,4.297245499999917,incorrect,c
259,4F4K,260,1,44.98933448303941,31.04209274572323,1.274277982541176,35.75624263201959,2,n,0.7758557999995901,correct,n
260,4F4K,261,2,51.17838352988077,37.48540061163169,1.449295225541617,41.33766431313011,1,v,0.6739705999998478,correct,v
261,4F4K,262,2,50.83388009365453,63.45407614127907,1.4389499401472996,63.53740309981957,2,b,0.6423402000000351,correct,b
262,4F4K,263,1,45.16762110802793,31.100509258192623,1.279010965620312,35.80570267020172,2,n,1.7165385000007518,correct,n
263,4F4K,264,1,31.483637900007448,54.932758589767694,0.9622669853857936,56.67828631669573,1,c,1.4239758000003349,correct,c
264,4F4K,265,1,59.296934210598266,42.30731384245178,1.7158316708736876,45.61724851090009,2,c,2.1353020000005927,incorrect,n
265,4F4K,266,2,44.5339582578816,62.06903344361105,1.2622684351089497,62.47515001939578,2,b,2.9862725000002683,correct,b
266,4F4K,267,1,44.71159657618681,58.3674640701222,1.2669397318330051,59.52992414964175,1,c,2.0442603999999847,correct,c
267,4F4K,268,1,47.67118785214775,26.36364988160052,1.347360243535748,31.887943151822835,2,n,2.9013420999999653,correct,n
268,4F4K,269,1,77.78605930547782,63.00131959131141,2.520276077973089,63.19272442932297,2,n,2.1852430999997523,correct,n
269,4F4K,270,1,44.83712564255936,52.83078453975296,1.2702511491384216,54.88728901332304,1,n,2.9498928000002707,incorrect,c
270,4F4K,271,2,68.33377793336716,54.06018725392026,2.0705489902292307,55.93856956382111,1,b,1.8014885000002323,incorrect,v
271,4F4K,272,1,23.920689730356752,40.03390967480726,0.8222338615800411,43.594108008747085,1,c,4.3588190000000395,correct,c
272,4F4K,273,1,52.45249756044954,30.999694517791188,1.4882067078974697,35.72036087362688,2,n,2.3187317000001713,correct,n
273,4F4K,274,2,33.016106035680785,40.47829720584728,0.9934251533057326,43.9890743686234,2,v,3.454534800000147,incorrect,b
274,4F4K,275,1,53.72637418875582,43.26146285638707,1.5281553633481726,46.46734281471568,2,n,0.8729210000001331,correct,n
275,4F4K,276,2,62.59427946852605,52.000196034579886,1.8376071611981308,54.17155285758038,1,b,0.82438909999928,incorrect,v
276,4F4K,277,2,65.48023313276725,43.23775927477641,1.9512613093687303,46.44622478356426,1,v,0.6557874999998603,correct,v
277,4F4K,278,2,38.11852653216534,44.10435043083869,1.1046243199600527,47.21813016891792,2,b,1.0310531999994055,correct,b
278,4F4K,279,1,43.620672819931016,54.97667191679971,1.2385225915243665,56.715363661521735,1,c,1.4981238000000303,correct,c
279,4F4K,280,2,44.9567076018385,54.592066100041215,1.2734137330352555,56.39013431586874,2,b,0.9275896999997713,correct,b
280,4F4K,281,1,70.69163468395081,55.43306240178367,2.174598473364287,57.09982588225042,2,n,3.4291298999996798,correct,n
281,4F4K,282,2,60.12969622865907,46.01694739504924,1.7458031396243558,48.91902184594897,1,b,1.9166889000007359,incorrect,v
282,4F4K,283,2,56.47746244264261,47.06329570294756,1.618125912032671,49.846691005129536,1,v,1.6379138000002058,correct,v
283,4F4K,284,1,68.7807462664139,50.55730371801969,2.0898833060273985,52.91884604406086,2,n,0.9943890000004103,correct,n
284,4F4K,285,1,63.3476800433845,79.09923330173277,1.8666227722913933,73.57849416580903,1,c,2.0139144000004308,correct,c
285,4F4K,286,2,57.24257300405433,44.43895987304066,1.644076226449834,47.516040941956206,1,v,1.1039787999998225,correct,v
286,4F4K,287,2,46.64347454976714,57.20558185552242,1.3188717097151847,58.57683426997702,2,b,1.4022842000003948,correct,b
287,4F4K,288,2,43.54035059304987,60.46218340337411,1.2364556711390169,61.21470931995433,2,b,2.3901711999997133,correct,b
288,4F4K,289,2,48.82508312086246,66.71047521406828,1.380080568747131,65.93830237522302,2,b,1.1944860000003246,correct,b
289,4F4K,290,1,29.548239324985357,45.5395394108512,0.9243090281537532,48.49497912904677,1,n,3.950042200000098,incorrect,c
290,4F4K,291,2,50.48862461318505,40.57889361388169,1.4286561589850395,44.07852724588255,1,v,2.0031262000002243,correct,v
291,4F4K,292,2,51.067260047928364,41.34873874886674,1.4459501360381974,44.76353630837331,1,b,0.9518069000005198,incorrect,v
292,4F4K,293,2,63.7979422827795,53.895839277897245,1.8841819237740869,55.79862853740574,1,b,1.4495217999992747,incorrect,v
293,4F4K,294,2,25.332999324776974,41.15544513321492,0.8467394313026524,44.591477805423736,2,b,1.1085413999999219,correct,b
294,4F4K,295,1,61.798080139023895,47.4053129724185,1.8074332950109109,50.14930998677309,2,n,1.1824565999995684,correct,n
295,4F4K,296,2,58.44149570759403,45.513600603182766,1.6855797312116256,48.47192789618054,1,v,1.218378099999427,correct,v
296,4F4K,297,2,60.549954476574655,43.617908389546976,1.7611266147813138,46.78488533077775,1,v,1.0671656999993502,correct,v
297,4F4K,298,1,47.87012028857759,57.8731582393872,1.3529453907535018,59.12598483338416,1,c,2.8575673000004826,correct,c
298,4F4K,299,2,44.31048374662693,50.25605075003736,1.25641625428305,52.65594621658774,2,b,3.3929174000004423,correct,b
299,4F4K,300,1,41.01161806139384,54.74528080299647,1.1731183295892869,56.51982860225292,1,c,2.5675471999993533,correct,c
300,4F4K,301,2,44.85300242029674,65.68940480214474,1.2706705896457875,65.20077276493316,2,b,1.1642395999997461,correct,b
301,4F4K,302,1,58.59326242931582,43.664890356539935,1.6909076554968825,46.82673559935874,2,n,2.871009700000286,correct,n
302,4F4K,303,2,59.893081604731904,40.95677430632897,1.7372344268548343,44.41467553148218,1,v,1.2795760999997583,correct,v
303,4F4K,304,2,44.70406300449502,62.29341351349119,1.2667412733897765,62.6488012528549,2,b,1.1389868999995088,correct,b
304,4F4K,305,1,39.63031883422956,33.86898735764561,1.1399018159973346,38.17660557961382,2,n,3.0842328999997335,correct,n
305,4F4K,306,1,50.82033830120325,65.45935909177798,1.4385447980157822,65.03263173295083,1,c,4.302122200000667,correct,c
306,4F4K,307,1,45.03817549214523,54.136429189319934,1.2755728224638685,56.00342414780807,1,c,2.9424920000001293,correct,c
307,4F4K,308,1,49.84843546218082,29.317410605295507,1.4097634076503651,34.30797389242688,2,n,0.830467700000554,correct,n
308,4F4K,309,2,62.988226242574,50.13504295100726,1.8527224691660364,52.55022240158337,1,v,1.4240654000004724,correct,v
309,4F4K,310,2,55.49525595084457,69.73911755038732,1.5854118650552085,68.03747696340704,2,b,3.8957055000000764,correct,b
310,4F4K,311,1,65.84976911766574,56.26320288474003,1.9663131140646624,57.79486642437813,2,n,1.1521411000003354,correct,n
311,4F4K,312,1,38.86021090285245,28.90568161984949,1.1217928766445175,33.965852773440574,2,c,1.9957241000001886,incorrect,n
312,4F4K,313,1,64.44968852780497,40.1523286513788,1.9098914656376464,43.69932465679259,2,n,0.7335249000007025,correct,n
313,4F4K,314,2,56.265794484325696,43.51609803033014,1.6110193635445436,46.69419178771287,1,v,1.6072661999996853,correct,v
314,4F4K,315,1,52.5218264283495,45.96690353066139,1.4903537332396706,48.87459247436915,2,n,2.997012700000596,correct,n
315,4F4K,316,2,27.35873168662756,47.91594535881448,0.8831693136323616,50.60047700539239,2,b,0.8692762999999104,correct,b
316,4F4K,317,1,42.81914857827021,49.1002959366592,1.218050929886469,51.64350286133475,1,c,2.8406497999994826,correct,c
317,4F4K,318,1,65.21984844361715,57.54321433687866,1.940724663855799,58.85508245824816,2,n,0.8425899000003483,correct,n
318,4F4K,319,2,53.09064913912464,35.566371608556985,1.5080868072019191,39.65275382267646,1,v,1.6740281000002142,correct,v
319,4F4K,320,1,54.16540638896413,33.85874639654102,1.5421704096223496,38.16774638900615,2,n,1.6619409000004453,correct,n
320,4F4K,321,1,43.90682075481298,54.85957838766038,1.2459141155337374,56.61646546140917,1,n,1.8817052000003969,incorrect,c
321,4F4K,322,1,47.08277214564898,56.91251794830711,1.3309747152307294,58.33448591400025,1,c,0.569491499999458,correct,c
322,4F4K,323,2,31.533349392358296,51.31583207306721,0.9632622156899868,53.57878954222247,2,b,1.9289430999997421,correct,b
323,4F4K,324,2,42.6090164748999,34.92914142977011,1.2127401772221569,39.09684067101823,1,v,2.1221872000005533,correct,v
324,4F4K,325,1,55.71467071434589,45.5154295037971,1.5926619951413494,48.47355323668975,2,n,0.7808242000000973,correct,n
325,4F4K,326,1,55.1985392820289,38.838377532245765,1.5756599110544918,42.53347121217088,2,n,2.68390509999972,correct,n
326,4F4K,327,2,55.19387081691072,38.4652134277254,1.5755069565612572,42.203116793773006,1,v,2.0200056000003315,correct,v
327,4F4K,328,2,31.983498633687628,54.38226165188543,0.9723212514803432,56.21225578267226,2,b,2.0017243000002054,correct,b
328,4F4K,329,2,53.76470599545025,68.88740945495636,1.5293739224894356,67.46098509600779,2,v,1.4134465999995882,incorrect,b
329,4F4K,330,1,39.248238401869045,48.84584267911319,1.1308810205483222,51.41984979083043,1,n,1.2250601999994615,incorrect,c
330,4F4K,331,1,63.948453917153216,50.771292752929526,1.8900882771268688,53.10532159067198,2,n,0.569893900000352,correct,n
331,4F4K,332,2,50.15753247293672,63.90388587998678,1.4188538331968734,63.87730920265441,2,v,0.7459096000002319,incorrect,b
332,4F4K,333,2,25.472951160177036,44.47087738671414,0.849207215606311,47.54445228856009,2,b,1.1095706999994945,correct,b
333,4F4K,334,2,43.90889783026172,30.88945974895912,1.2459679296822903,35.62713190859517,1,v,1.0113086999999723,correct,v
334,4F4K,335,2,46.56066445424032,59.45488386002327,1.3166025833455857,60.41015305885316,2,b,0.498014200000398,correct,b
335,4F4K,336,1,50.50665836566012,65.54978477315169,1.4291920074254207,65.098809605818,1,c,2.1357425000005605,correct,c
336,4F4K,337,1,58.99748381641174,52.325667464871856,1.7051805617779294,54.452516612178464,2,n,1.9364006000005247,correct,n
337,4F4K,338,1,55.57905457322585,65.73584732411074,1.588176922398192,65.23463057462804,1,c,1.948529199999939,correct,c
338,4F4K,339,2,42.11417476197657,54.6837177021466,1.2003251331372708,56.46773726954071,2,v,3.7206560000004174,incorrect,b
339,4F4K,340,2,66.2341676135956,50.28408714346802,1.982093512322204,52.68043161298856,1,v,0.7747439000004306,correct,v
340,4F4K,341,2,46.004884101103485,61.92860412228985,1.3014740290707585,62.36616895830253,2,b,1.2310189999998329,correct,b
341,4F4K,342,1,41.78034857090493,49.77243360188131,1.1920216650816895,52.23300923089646,1,n,3.6174542999997357,incorrect,c
342,4F4K,343,1,41.72784860178999,55.984579560941775,1.1907210377591604,57.56221673419187,1,n,1.2680443999997806,incorrect,c
343,4F4K,344,2,60.09332065477017,43.78344367812212,1.7444830980845842,46.93233444422216,1,v,2.998455899999499,correct,v
344,4F4K,345,2,55.54134573130916,69.79829886969873,1.586932068079067,68.07711999367824,2,b,1.0246592999992572,correct,b
345,4F4K,346,2,47.49428002273917,34.596483232918445,1.3424128218925906,38.80743914287809,1,v,0.7454778999999689,correct,v
346,4F4K,347,2,62.102867228284325,47.58909439174391,1.8189249489230868,50.31178142042251,1,v,1.0671889999994164,correct,v
347,4F4K,348,1,62.02045200366009,50.46689701067603,1.8158103878333804,52.8399952918028,2,n,1.6633222000000387,correct,n
348,4F4K,349,2,38.11543354582749,49.79318631074084,1.1045532762960029,52.25117982244269,2,b,1.3939015000005384,correct,b
349,4F4K,350,2,65.82576086838438,46.16336581813248,1.9653317018029983,49.04898384949334,1,v,0.866817699999956,correct,v
350,4F4K,351,2,80.88285489681569,66.02605594482742,2.6879115167976013,65.44553250855202,1,b,1.2385066999995615,incorrect,v
351,4F4K,352,1,70.30188427505675,52.53861440710132,2.157045379944318,54.63599959363168,2,n,1.012567200000376,correct,n
352,4F4K,353,2,64.47755359482113,54.28984066691174,1.910998449590104,56.13379644298382,1,v,1.7043115000005855,correct,v
353,4F4K,354,1,65.61105646608226,51.15894338161917,1.956576737122228,53.44253695707858,2,n,3.417214399999466,correct,n
354,4F4K,355,1,31.890194414955182,48.05116516044863,0.9704365762097784,50.71981159339609,1,c,1.1642879000000903,correct,c
355,4F4K,356,2,52.26171924953918,30.28668949010919,1.4823145034476188,35.118994329696264,1,v,1.134226399999534,correct,v
356,4F4K,357,1,46.4206249119486,56.93938450794053,1.312774160376126,58.35673482375766,1,n,2.056214700000055,incorrect,c
357,4F4K,358,2,37.52253524811412,55.77354883636672,1.0910188723138092,57.38557985951884,2,v,1.746886099999756,incorrect,b
358,4F4K,359,1,58.6996025578111,67.91209114567927,1.6946508642601443,66.78736652682156,1,c,0.5209917000001951,correct,c
359,4F4K,360,2,48.32233098804684,58.64858536134517,1.3657277597888795,59.75860525094576,2,v,4.195108300000356,incorrect,b
360,4F4K,361,2,40.21025879480784,52.13661179980895,1.1537316993641815,54.289390261835,2,b,1.0548055999997814,correct,b
361,4F4K,362,2,25.706883755827302,47.22818479490894,0.85334824077594,49.99262692667602,2,v,1.443651200000204,incorrect,b
362,4F4K,363,1,39.88299371316131,56.91251984078678,1.1459068803787624,58.3344874814366,1,n,1.7167231000003085,incorrect,c
363,4F4K,364,1,50.98355469624691,40.7444263768016,1.4434354987851197,44.22575516847761,2,c,1.576961300000221,incorrect,n
364,4F4K,365,1,67.98664644391741,55.34393612599851,2.055656760532824,57.02487391919833,2,n,0.8061607999998159,correct,n
365,4F4K,366,2,19.514350635179607,38.54337811469132,0.750243343660505,42.27228294859442,2,b,1.5164932000006957,correct,b
366,4F4K,367,2,63.12041894170514,74.33456382396605,1.8578223684645463,70.94738383924671,2,b,1.9896072000001368,correct,b
367,4F4K,368,2,54.756036651730376,67.34716411783235,1.5612278455449484,66.3907778289814,2,b,1.2735615999999936,correct,b
368,4F4K,369,1,57.68926581228126,75.42736684946289,1.659418729061004,71.58687565569386,1,c,0.7347181999994064,correct,c
369,4F4K,370,1,36.62493340739048,29.489366833764684,1.0708437609156822,34.45128738727609,2,c,2.154861900000469,incorrect,n
370,4F4K,371,2,73.44424854516178,58.15110388973957,2.302701580070223,59.35340380275439,1,b,0.8731031999996048,incorrect,v
371,4F4K,372,2,45.78107837057385,60.03627829768661,1.295431159330577,60.87583644548318,2,b,1.3284402999997837,correct,b
372,4F4K,373,2,53.64968320900747,38.56736268289564,1.5257202887878725,42.29350975660472,1,v,0.6543197000000873,correct,v
373,4F4K,374,1,59.50632166320708,47.68696160291383,1.723318843914646,50.398259026406485,2,n,3.326144999999997,correct,n
374,4F4K,375,2,24.48164952854727,47.27561133908847,0.8318812388013044,50.03458801849105,2,b,1.922841000000517,correct,b
375,4F4K,376,2,57.28287838344259,76.62005503732786,1.6454547484080304,72.26068228242691,2,b,3.9928088999995452,correct,b
376,4F4K,377,2,34.397584275132864,19.920806093030357,1.022377171647955,26.937634798261406,1,v,0.6241623999994772,correct,v
377,4F4K,378,1,45.85783759177247,63.791984641910375,1.297500529875152,63.792987377002206,1,n,3.1076726999999664,incorrect,c
378,4F4K,379,2,35.940246834708724,26.608101210443404,1.055705477291696,32.08504522582992,1,v,1.3526357999999163,correct,v
379,4F4K,380,2,40.49679062573488,33.60761748707442,1.1606264549997083,37.95069092103042,1,v,1.206720299999688,correct,v
380,4F4K,381,2,67.82710415412853,45.83612048161535,2.0488482371796013,48.75845871519808,1,v,0.9580903000005492,correct,v
381,4F4K,382,2,35.9806863364524,51.75506050236292,1.056593610076229,53.9595310770653,2,b,1.9049873000003572,correct,b
382,4F4K,383,2,49.773475339252144,67.12791259868087,1.407567647976476,66.23561571837959,2,b,0.8972550000007686,correct,b
383,4F4K,384,2,44.054714725791285,38.44550333714342,1.249751658675749,42.18567849170184,1,v,1.7832902999998623,correct,v
384,4F4K,385,2,34.71948883031965,48.8254438241592,1.029243733501197,51.40190920987852,2,b,1.1108596000003672,correct,b
385,4F4K,386,2,64.93775240583572,45.88197241676346,1.9293736550831524,48.79917848161995,1,v,0.7576757999995607,correct,v
386,4F4K,387,2,53.74334156736116,46.78971528522717,1.5286946325202244,49.60439658536756,1,b,1.4120947000001252,incorrect,v
387,4F4K,388,1,53.54746197174712,69.77703303326281,1.5224806150350636,68.06288117751521,1,c,1.668436400000246,correct,c
388,4F4K,389,1,36.25199788350207,56.80428477185526,1.0625715100397677,58.24479094726541,1,c,0.6801531999999497,correct,c
389,4F4K,390,2,45.38958687113093,56.354804276058886,1.284928075536078,57.87121129257665,2,b,2.063888899999256,correct,b
390,4F4K,391,2,51.62368345890057,42.444022572970695,1.462777665169758,45.73904177090366,1,v,0.9700658000001567,correct,v
391,4F4K,392,2,42.059602453098336,55.022857935237006,1.1989637776418434,56.75434400518619,2,b,0.5527351999999155,correct,b
392,4F4K,393,1,55.89069383825723,33.2716050805934,1.598502294693329,37.66085128587216,2,n,2.012821399999666,correct,n
393,4F4K,394,2,53.52569320093069,36.62165874004469,1.5217915914269329,40.577459009766734,1,v,0.9943389000000025,correct,v
394,4F4K,395,2,38.63161338919999,49.819602853450846,1.1164730303506465,52.274306770784975,2,b,2.226332000000184,correct,b
395,4F4K,396,2,46.46615869980478,63.04021846926932,1.3140177472722407,63.22243679635147,2,b,0.9688909000005879,correct,b
396,4F4K,397,2,45.56613543526284,60.2667237473134,1.2896540042253144,61.05943262616912,2,b,1.097865300000194,correct,b
397,4F4K,398,2,60.408860597731774,45.82949587802087,1.755967104021939,48.75257526338881,1,v,0.6666276000005382,correct,v
398,4F4K,399,2,40.4915925073529,57.79823706329788,1.1605010075387805,59.06455903653319,2,b,1.4799089999996795,correct,b
399,4F4K,400,1,45.59423565921323,57.03759429819453,1.290407805034166,58.43801073323715,1,c,3.2048658000003343,correct,c
