,condition,trial,sub_task,x,y,xt,yt,cat,resp,rt,acc,correct_resp
0,4F4K,1,2,58.66888299318176,48.525915595733935,1.6935686747888543,51.31992536550815,1,v,5.0,NA,v
1,4F4K,2,2,56.535611708132485,69.77878330896252,1.620083700916137,68.28909174626968,2,v,0.5210046000001967,incorrect,b
2,4F4K,3,2,20.550742146402467,41.5106164276588,0.7665874392020977,45.07330695470988,2,b,0.6670186999999714,correct,b
3,4F4K,4,2,39.689023021566015,23.261487090337106,1.1412941657577385,29.568421083640462,1,b,0.6113359999999375,incorrect,v
4,4F4K,5,2,64.98871546579764,54.591025049930735,1.9314193868903728,56.58434835158899,1,b,0.5648298000005525,incorrect,v
5,4F4K,6,2,51.39609969152572,69.1836427705472,1.4558714662872272,67.88676293301997,2,v,0.639572699999917,incorrect,b
6,4F4K,7,2,59.81674938803506,51.91439540638722,1.734479130048665,54.2865995804275,1,b,0.8014227000003302,incorrect,v
7,4F4K,8,2,39.857628609445264,53.428884688415,1.1453026282967744,55.59255833344767,2,v,0.5574618999999075,incorrect,b
8,4F4K,9,2,36.06922125939638,47.587783536351,1.0585406243959423,50.49012870451264,2,b,0.692257900000186,correct,b
9,4F4K,10,2,58.42815743957624,44.332631277647806,1.6851122811417525,47.59348093383229,1,v,0.5648657000001549,correct,v
10,4F4K,11,1,48.29434716747833,33.43996808550895,1.3649332641698553,37.95342911456407,2,n,0.7030242999999246,correct,n
11,4F4K,12,1,33.35889062894983,45.69896354492145,1.000531590266031,48.81184227510243,1,c,0.29166500000064843,correct,c
12,4F4K,13,2,25.07487259281583,46.902617171119225,0.8422066533327297,49.88236196795441,2,b,0.5755992000003971,correct,b
13,4F4K,14,2,41.84613396008212,60.15891911530894,1.1936534292689545,61.18046852809472,2,v,0.8244033000000854,incorrect,b
14,4F4K,15,2,71.57690627209077,55.8720274472442,2.215000751359251,57.66591644213875,1,b,0.5405326000000059,incorrect,v
15,4F4K,16,1,67.15992351529245,49.822705913113424,2.02061954205655,52.46157228080193,2,n,0.7455384999993839,correct,n
16,4F4K,17,1,58.22852208757935,70.48102549512397,1.6781313737327428,68.75672732637858,1,n,0.564889199999925,incorrect,c
17,4F4K,18,1,59.02162446479362,48.94825179214857,1.706036761396245,51.69247488959296,2,c,0.4131984999994529,incorrect,n
18,4F4K,19,1,65.34047454231509,50.81300368097612,1.9455987894752595,53.32840940418752,2,n,0.6231776000004174,correct,n
19,4F4K,20,1,57.83747067121704,41.75881965257118,1.6645406695603902,45.29489588542896,2,c,1.158411200000046,incorrect,n
20,4F4K,21,2,45.66078707286318,64.68788606920019,1.2921948337291096,64.6793880160194,2,b,0.5090316000005259,correct,b
21,4F4K,22,2,53.25066151051896,44.19373580748058,1.5131131180796358,47.46950040452716,1,v,0.7940529999996215,correct,v
22,4F4K,23,1,52.51256508086118,37.91002890439431,1.4900667421346612,41.86981401778619,2,n,0.39485659999991185,correct,n
23,4F4K,24,2,55.89234736564453,39.07610780961045,1.5985572587575991,42.90421823875148,1,v,2.543320499999936,correct,v
24,4F4K,25,2,51.02029314912764,35.95451530848486,1.4445386393688329,40.14534631035424,1,b,0.8243650000003981,incorrect,v
25,4F4K,26,1,49.250871466376445,36.08558765998654,1.3923540841337814,40.26045575037007,2,c,0.4981480999995256,incorrect,n
26,4F4K,27,2,25.208906691010597,44.14078861412091,0.8445572929166901,47.42223433614175,2,v,1.0540876000004573,incorrect,b
27,4F4K,28,1,60.90824327506719,52.82515480181646,1.7742967236903326,55.073683347531365,2,n,0.388833799999702,correct,n
28,4F4K,29,1,52.56992129828921,47.21809113861313,1.4918449886017682,50.16236295247782,2,c,1.231156299999384,incorrect,n
29,4F4K,30,1,63.23634589103368,40.85346440275171,1.862306299022953,44.48690467277929,2,n,0.9227749000001495,correct,n
30,4F4K,31,2,65.34059315896867,48.30310996083915,1.9456035884250515,51.12312001717776,1,v,0.575619899999765,correct,v
31,4F4K,32,2,32.94551576582571,48.44302696842525,0.9919679907522764,51.24673017368192,2,b,0.5337054000001444,correct,b
32,4F4K,33,1,56.61772843472608,40.02065754112006,1.6228524694078008,43.7445844309201,2,n,0.5998892999996315,correct,n
33,4F4K,34,1,44.45775087766362,60.16165827386629,1.2602697176553863,61.18265616223218,1,c,0.3645298000001276,correct,c
34,4F4K,35,1,23.071272724292776,42.68874162761245,0.807838148864857,46.12541242820314,1,n,0.2964635999996972,incorrect,c
35,4F4K,36,1,62.87194445195899,52.29136075692072,1.8482479761320347,54.61298373533375,2,n,0.9157684000001609,correct,n
36,4F4K,37,1,45.87865984947018,57.64393453568122,1.2980624519609256,59.139518586562005,1,c,0.9154366000002483,correct,c
37,4F4K,38,2,29.84001418886971,45.90487355854293,0.9299341242593414,48.99519628172055,2,v,0.9518645999996806,incorrect,b
38,4F4K,39,2,38.116416931170335,51.07266585335493,1.1045758634522085,53.554898096675714,2,b,0.35853270000006887,correct,b
39,4F4K,40,1,32.49734621518671,53.13658443976465,0.9827663641643009,55.34163860769596,1,n,0.36368210000000545,incorrect,c
40,4F4K,41,1,34.52979690788254,47.23258078900652,1.0251918446612325,50.175216776484525,1,n,3.265270999999302,incorrect,c
41,4F4K,42,2,61.7593530990842,52.89679696359208,1.805978343770438,55.135379723626,1,b,1.3721212000000378,incorrect,v
42,4F4K,43,2,44.64942586062269,58.43114866433622,1.2653028857657906,59.78508017547121,2,v,0.4844789999997374,incorrect,b
43,4F4K,44,1,52.930811742385934,33.95170545400744,1.503082661845305,38.396753662275614,2,n,0.3220455000000584,correct,n
44,4F4K,45,2,58.5169731179134,46.89027867262892,1.688227340316654,49.871405451046826,1,b,0.945739699999649,incorrect,v
45,4F4K,46,1,49.93537150495536,59.34345701463598,1.4123142606489012,60.52568135583177,1,c,0.4373310000000856,correct,c
46,4F4K,47,1,29.67420042305792,50.077046371361256,0.9267332326027165,52.68464664079943,1,n,1.078574899999694,incorrect,c
47,4F4K,48,2,47.02920862690256,31.207818947334644,1.3294930715285025,36.03916298806795,1,v,0.3948939000001701,correct,v
48,4F4K,49,2,62.45349024159798,47.028606949087695,1.832235195349691,49.994217255851495,1,b,0.5830229000002873,incorrect,v
49,4F4K,50,2,75.16480527475014,65.60960452874725,2.3865791080159164,65.36007350554533,1,v,0.2977967000006174,correct,v
50,4F4K,51,1,56.143305364337685,38.08075698688203,1.6069211742490528,42.02101706498253,2,n,0.3864653000000544,correct,n
51,4F4K,52,1,58.89324794963776,67.15143853369716,1.7014885448438084,66.4726897020536,1,c,1.1364324000005581,correct,c
52,4F4K,53,1,40.28066239809876,50.07364921672586,1.1554220016192385,52.68166904811444,1,n,1.036791199999243,incorrect,c
53,4F4K,54,1,59.743634509183096,40.31021655198644,1.7318440643097437,44.002557154991806,2,n,0.9640281000001778,correct,n
54,4F4K,55,1,72.9932792181296,63.219690135430845,2.281208599765978,63.572255480255,2,c,0.7637033999999403,incorrect,n
55,4F4K,56,1,58.602128350737615,49.52515545414721,1.6912194227655668,52.20023371028491,2,n,1.0249538000007306,correct,n
56,4F4K,57,1,42.25511163532319,56.59191635691874,1.2038480857120295,58.26790309454528,1,n,0.507835200000045,incorrect,c
57,4F4K,58,1,63.88351530019536,50.99251070976517,1.8875376989169352,53.48502056645983,2,c,0.443446700000095,incorrect,n
58,4F4K,59,2,55.75027350853082,35.30724399282271,1.5938415419742311,39.57804682937238,1,b,0.6232666999994763,incorrect,v
59,4F4K,60,1,66.38025913925235,50.39017896058979,1.988124045571244,52.95887355911749,2,n,1.7093364000002111,correct,n
60,4F4K,61,2,40.17214473209487,29.765084451556103,1.1528176604315967,34.821016595761506,1,v,0.5162452000004123,correct,v
61,4F4K,62,2,53.01207613254071,34.63041945121877,1.505624786592801,38.98701506427948,1,v,0.5998758999994607,correct,v
62,4F4K,63,1,62.65650754123637,39.42129393078639,1.8399865573723,43.21110694539306,2,n,0.3523913999997603,correct,n
63,4F4K,64,1,48.56139515409434,67.16668151774796,1.3725339685491722,66.48352189042333,1,c,0.8305157000004328,correct,c
64,4F4K,65,1,39.48500359630138,51.25491114407446,1.136462521853854,53.71364948023674,1,n,1.407051400000455,incorrect,c
65,4F4K,66,1,51.25394572445188,40.70298803279663,1.4515742520778894,44.35270072096077,2,c,0.17527889999928448,incorrect,n
66,4F4K,67,1,57.9278656168216,40.65513478875527,1.6676724658987885,44.310028788049806,2,n,1.00662580000062,correct,n
67,4F4K,68,2,56.12512315332604,40.31558893229551,1.606313730755581,44.007344844078574,1,v,0.3828029999995124,correct,v
68,4F4K,69,2,40.24263253821499,54.34923045784968,1.1545086450355635,56.3787916083023,2,b,0.5345736999997825,correct,b
69,4F4K,70,2,58.09333275157936,67.38091227370501,1.6734204637042152,66.63540780262193,2,b,0.4872410999996646,correct,b
70,4F4K,71,2,42.07803727108103,34.43193821372173,1.1994234780364093,38.81414118954009,1,b,0.44207769999957236,incorrect,v
71,4F4K,72,1,50.5149941220612,61.569658932982165,1.4294397610115257,62.29627515294472,1,n,0.34037550000084593,incorrect,c
72,4F4K,73,2,60.08673338108228,47.26970123799215,1.7442441577621035,50.20814376432372,1,v,0.46552859999974316,correct,v
73,4F4K,74,2,28.6196049912112,39.224593946106864,0.90663147331703,43.03619622159716,2,b,0.5517287000002398,correct,b
74,4F4K,75,1,53.54883584554874,66.02812141016547,1.5225241112567225,65.66535607795558,1,c,0.7819197999997414,correct,c
75,4F4K,76,1,54.53789601443297,67.47987325460541,1.5541619867989078,66.70534555418403,1,n,0.48594729999967967,incorrect,c
76,4F4K,77,1,44.2550733490522,25.35638849775154,1.254969411476391,31.212501987443574,2,c,1.3523854999994,incorrect,n
77,4F4K,78,2,54.18775588216498,64.22151547144169,1.5428872916340353,64.33069901894609,2,b,0.6922629999999117,correct,b
78,4F4K,79,1,36.29878204154475,26.93703918187615,1.0636057348924477,32.48466156963649,2,c,1.7048233999994409,incorrect,n
79,4F4K,80,1,46.25929892704957,53.0481066000112,1.3083776023945686,55.26557560774573,1,n,0.6360700999994151,incorrect,c
80,4F4K,81,2,32.887824562923264,47.77237019451311,0.9907786850727808,50.65362771947408,2,v,1.6502152000002752,incorrect,b
81,4F4K,82,2,57.05133304357166,68.92010987842997,1.6375511731706305,67.70687210488184,2,b,0.6301836000002368,correct,b
82,4F4K,83,1,41.41037273307936,58.65180853437796,1.1828861152564274,59.96496674993408,1,n,0.4859273000001849,incorrect,c
83,4F4K,84,2,42.80966095799251,35.02955131377408,1.2178106449100108,39.33527477424008,1,v,0.5101744999992661,correct,v
84,4F4K,85,2,56.6413656572388,44.565339943200975,1.6236503335310704,47.80115870824977,1,b,0.6801918000001024,incorrect,v
85,4F4K,86,1,37.25322072080483,53.916108560396,1.0849259835314953,56.009523298700735,1,n,0.4070246999999654,incorrect,c
86,4F4K,87,1,60.0107340994312,42.361723999008326,1.7414897999716104,45.833314460236224,2,c,0.5634557000003042,incorrect,n
87,4F4K,88,2,41.34809773493982,53.438319349277336,1.1813553020376049,55.6006478633375,2,b,0.35748330000024,correct,b
88,4F4K,89,2,52.64236334174639,70.83211910746445,1.4940939823980637,68.9876025429513,2,b,0.6120365999995556,correct,b
89,4F4K,90,1,56.57062547645941,47.63050923142828,1.621263698545729,50.5279826840324,2,n,0.30262349999975413,correct,n
90,4F4K,91,2,59.59950128627513,76.95209130627416,1.726661210784318,72.67994490938257,2,v,1.7589938000000984,incorrect,b
91,4F4K,92,1,63.87133926979757,57.715313700387874,1.887059847261732,59.1982942776964,2,n,0.48595059999934165,correct,n
92,4F4K,93,1,55.29911560516266,40.9403295092471,1.5789587353350978,44.56438971333588,2,n,0.48669950000021345,correct,n
93,4F4K,94,2,39.09474020855605,55.469228483601,1.127277110270874,57.32721857398694,2,v,0.5573822999995173,incorrect,b
94,4F4K,95,1,35.85371416818096,48.65478774583349,1.0538075529228648,51.43367666942598,1,n,0.6558304999998654,incorrect,c
95,4F4K,96,2,60.37228036773399,47.06095811153323,1.7546319100668717,50.02293218824718,1,b,0.38883139999961713,incorrect,v
96,4F4K,97,1,51.31970416034135,57.38569627844967,1.4535605043604265,58.9264854986107,1,n,0.6848253999996814,incorrect,c
97,4F4K,98,2,70.31528794492309,51.489528956829375,2.15764667861709,53.91775879491572,1,b,1.2920426000000589,incorrect,v
98,4F4K,99,2,50.5011554125313,30.785131916044392,1.4290284733498757,35.68060340783889,1,b,1.097518399999899,incorrect,v
99,4F4K,100,2,47.97572875095027,32.01700475461742,1.3559198132671706,36.72922176064258,1,v,1.1025736000001416,correct,v
100,4F4K,101,2,39.63953455489463,25.52763016760466,1.140120282611322,31.349058637867625,1,v,0.5089428000001135,correct,v
101,4F4K,102,2,36.230629792412,56.38211083877907,1.0620994751212958,58.09291114084999,2,v,0.5566212000003361,incorrect,b
102,4F4K,103,1,71.58451809650346,60.15458848386885,2.2153513770437674,61.17700969742799,2,n,0.5938223000002836,correct,n
103,4F4K,104,2,75.7380247949018,60.99508712004437,2.4151967889032253,61.84449449933136,1,v,1.484801000000516,correct,v
104,4F4K,105,2,65.08885423099264,50.31654677378655,1.935445424096305,52.89443175280415,1,v,1.7590172000000166,correct,v
105,4F4K,106,1,44.68720903848388,52.462794165570514,1.266297398426259,54.761133475863154,1,n,0.583610900000167,incorrect,c
106,4F4K,107,1,48.0772116117401,27.530792859409598,1.3587842006062754,32.9690516605298,2,c,0.4722996000000421,incorrect,n
107,4F4K,108,1,54.084956421073215,36.63245597624024,1.5395926540190954,40.741511608292704,2,n,2.451061700000537,correct,n
108,4F4K,109,1,32.88661665263393,53.71351020252437,0.9907537992160148,55.83633838348436,1,c,1.1339993000001414,correct,c
109,4F4K,110,1,46.0138084638925,30.509120508057062,1.3017155750078098,35.44719993271984,2,c,0.5344508999996833,incorrect,n
110,4F4K,111,1,27.99913772414618,37.91028748956103,0.8950090228048478,41.87004296092516,1,n,0.698375699999815,incorrect,c
111,4F4K,112,2,58.715857670215655,44.36469741928528,1.695223779442678,47.62210118560335,1,v,0.5709853999996994,correct,v
112,4F4K,113,2,52.982281376379945,66.87278361681999,1.5046922437842842,66.2740818402054,2,b,0.6303942000004099,correct,b
113,4F4K,114,2,65.61659968633224,48.2760449744804,1.956802280856484,51.09920139554241,1,v,1.0429429999994682,correct,v
114,4F4K,115,2,53.84934330224815,36.74834057853269,1.5320679651185858,40.84360717300928,1,b,0.498051999999916,incorrect,v
115,4F4K,116,2,44.01297901775048,31.20780085656958,1.2486675076591849,36.0391476133896,1,v,0.4920202999992398,correct,v
116,4F4K,117,2,54.817491525482666,65.35617957673534,1.5632242423270015,65.17405512965591,2,b,1.3223816999998235,correct,b
117,4F4K,118,1,27.079924545823896,35.0467565937452,0.8780638375288095,39.35030535315086,1,n,0.7644079000001511,incorrect,c
118,4F4K,119,1,50.90430175636788,37.138616329064725,1.4410586493843072,41.18782606546651,2,n,1.0139217000005374,correct,n
119,4F4K,120,1,51.4576481205922,69.55503457818499,1.4577359760911,68.13847399457191,1,c,0.3685031999993953,correct,c
120,4F4K,121,1,28.595120005794502,47.43976241455843,0.9061699785288564,50.35894273644784,1,c,1.5781331999996837,correct,c
121,4F4K,122,1,57.59162419433182,47.2273798509636,1.6560528628511342,50.17060307251453,2,n,0.8790171999999075,correct,n
122,4F4K,123,2,50.31504538599816,60.62726745893081,1.4235087505313746,61.55334009628826,2,b,1.0381361999998262,correct,b
123,4F4K,124,2,54.8255118667725,73.76808933373995,1.5634849759637983,70.83927828151423,2,v,0.5515621000004103,incorrect,b
124,4F4K,125,1,48.07285740654851,29.815272113796063,1.358661177571988,34.86311387007851,2,n,1.7858119000002262,correct,n
125,4F4K,126,2,51.48722256744607,61.90550487266713,1.4586327351388584,62.55859965843654,2,v,0.9043693000003259,incorrect,b
126,4F4K,127,1,52.74667894498084,64.12635720515104,1.497338461814181,64.2592063264716,1,c,1.4863713999993706,correct,c
127,4F4K,128,2,42.50546329459068,57.66297136020354,1.210131559637266,59.15519868211331,2,b,1.1582285999993474,correct,b
128,4F4K,129,1,42.1669325815198,58.96532698753735,1.2016426940445348,60.219728445144746,1,n,0.996865600000092,incorrect,c
129,4F4K,130,1,53.56842908504443,42.57022176593485,1.5231445595826902,46.019545849185874,2,c,1.7225995999997394,incorrect,n
130,4F4K,131,2,41.6648490773879,30.53929952333366,1.1891621689290008,35.47269150079122,1,v,0.9942786999999953,correct,v
131,4F4K,132,1,49.18101339363871,63.39233661818628,1.3903329385062564,63.70385957697399,1,n,1.2192018999994616,incorrect,c
132,4F4K,133,2,43.623678194136005,36.782769534331806,1.2385999954120068,40.87394964627981,1,v,0.5650561000002199,correct,v
133,4F4K,134,2,38.64978486205778,55.35636887829633,1.1168949863219015,57.232086050468446,2,b,1.1642916999999215,correct,b
134,4F4K,135,1,33.41765347030683,47.939710202912416,1.0017549260397118,50.801757354205584,1,n,1.7347646999996869,incorrect,c
135,4F4K,136,1,63.62500053474279,46.34417478460677,1.87741815554599,49.38608948312016,2,c,0.6982633000006899,incorrect,n
136,4F4K,137,2,43.21750723011784,56.80064843135448,1.2281827256708069,58.4416227380717,2,v,0.672711000000163,incorrect,b
137,4F4K,138,2,31.57031813597891,49.76034000125591,0.9640030018733684,52.40682850255962,2,b,0.7820837999997821,correct,b
138,4F4K,139,2,47.858658705159726,57.47214235505631,1.3526229723304062,58.997867068307,2,v,1.7590355000002091,incorrect,b
139,4F4K,140,2,48.59496411758956,68.4877351995251,1.373492396204771,67.40944794892265,2,b,0.3947619000000486,correct,b
140,4F4K,141,1,55.72714754715738,44.86442639686699,1.59307526242717,48.06798564193591,2,n,1.2431934999995065,correct,n
141,4F4K,142,1,45.13583936444834,53.8646441829224,1.2781659685521716,55.96555766075182,1,c,1.4009298000000854,correct,c
142,4F4K,143,2,35.63007939809704,53.155198889815736,1.0489183514969458,55.35763465375133,2,b,0.9957170000006954,correct,b
143,4F4K,144,2,48.85575726775158,63.86499574976981,1.380961135258318,64.06224762043465,2,v,0.9700435999993715,incorrect,b
144,4F4K,145,2,36.0009403166946,53.96794993225095,1.0570387089923226,56.053792210450354,2,b,0.9532792999998492,correct,b
145,4F4K,146,1,58.10928727916546,45.996030253382415,1.6739757382741267,49.076341117035646,2,n,1.1946195000000444,correct,n
146,4F4K,147,1,31.3275725483142,42.58771535709541,0.959149213889978,46.03517167161422,1,c,0.697002099999736,correct,c
147,4F4K,148,1,65.49786353808663,51.05999570149908,1.951976800174564,53.54385476877889,2,n,1.8149493999999322,correct,n
148,4F4K,149,2,50.88898557989719,41.59523890392389,1.4405997583462458,45.148850024995,1,v,2.1013851999996405,correct,v
149,4F4K,150,2,44.66871131442098,55.60789747058155,1.2658104116099618,57.44396764619091,2,b,0.6727380000002086,correct,b
150,4F4K,151,1,32.764449769748595,46.3894657443679,0.9882400934960164,49.42636594404191,1,c,1.4498317000006864,correct,c
151,4F4K,152,2,58.01929632926515,64.30375145057296,1.6708461412163929,64.39238912839504,2,b,0.6547304999994594,correct,b
152,4F4K,153,1,47.4210779123098,28.175992269878854,1.3403709621301652,33.49923067700381,2,n,1.516306199999235,correct,n
153,4F4K,154,1,23.90169027337728,46.56683325734208,0.8219090754501743,49.58405026184102,1,c,0.9579438000000664,correct,c
154,4F4K,155,2,62.21110616742404,52.74070883238234,1.8230235331267088,55.000918859359,1,b,1.5769832999994833,incorrect,v
155,4F4K,156,2,57.02081264885229,43.063930995563055,1.6365122248718738,46.460551210327104,1,v,0.5284007000000202,correct,v
156,4F4K,157,2,53.307562016281885,45.85342117066638,1.5149045124109013,48.94938773507185,1,v,0.9519877000002452,correct,v
157,4F4K,158,2,30.996277763670967,52.74611870374425,0.9525642650698156,55.00558172814895,2,b,1.036851900000329,correct,b
158,4F4K,159,1,54.84933566247281,69.67084820829427,1.5642597212880094,68.21653157159284,1,n,0.812360400000216,incorrect,c
159,4F4K,160,2,46.234240961610666,31.81791300553153,1.3076960292349002,36.55900947409426,1,v,0.8729954000000362,correct,v
160,4F4K,161,1,39.52283750730358,54.3599192487983,1.137356967429501,56.38788752271442,1,n,1.916613899999902,incorrect,c
161,4F4K,162,2,43.08707559881511,60.96200763843018,1.224856101014114,61.81837121552169,2,v,1.3584778999993432,incorrect,b
162,4F4K,163,1,55.65767752166212,40.495646692499534,1.5907755855566306,44.16783316019289,2,c,1.0143537999992986,incorrect,n
163,4F4K,164,1,45.08938996058718,61.360145192802335,1.2769319991599952,62.13196985091335,1,n,0.449462599999606,incorrect,c
164,4F4K,165,2,51.044576581071546,31.955856277618807,1.4452682574686082,36.676913987452416,1,b,1.1703571999996711,incorrect,v
165,4F4K,166,2,53.63279655102564,42.42958608353982,1.5251846289371296,45.8939280166374,1,v,0.4677023000003828,correct,v
166,4F4K,167,2,62.01266248253424,80.06520792674056,1.815516289340596,74.30135124230819,2,v,1.1096664000006058,incorrect,b
167,4F4K,168,2,49.686937166177,62.10503968242692,1.4050369925580284,62.713831881848286,2,b,0.28455310000026657,correct,b
168,4F4K,169,1,34.13269117767629,46.38809493598731,1.01676109613468,49.42514697628964,1,c,1.0667271000002074,correct,c
169,4F4K,170,1,41.81222982797993,63.58862187259556,1.192812180360055,63.85303162896979,1,n,0.5031976000000213,incorrect,c
170,4F4K,171,2,55.52869048302489,32.65814518304994,1.586514508376858,37.27919041913943,1,b,0.9520790000005945,incorrect,v
171,4F4K,172,2,54.79384680777871,49.37651604152406,1.562455828150937,52.06954078911197,1,v,0.4858950999996523,correct,v
172,4F4K,173,2,60.46725802640349,44.889899770887055,1.7581007410203484,48.0907063410364,1,v,0.7759135999995124,correct,v
173,4F4K,174,2,52.35973438570312,71.72034365188179,1.4853387895857053,69.56283273012961,2,b,0.6062654999996084,correct,b
174,4F4K,175,1,55.29428261600792,34.634394707959835,1.5788000592438711,38.99047958065596,2,n,1.370637999999417,correct,n
175,4F4K,176,1,45.9916828377889,65.41064849765436,1.301116807145062,65.21410956067976,1,c,1.0550127000005887,correct,c
176,4F4K,177,2,36.88931240808596,48.493186741466594,1.0767470509384345,51.29102696781993,2,v,1.9948518000001059,incorrect,b
177,4F4K,178,2,46.67839844567613,24.686246117017216,1.319829851234919,30.681169974098243,1,b,0.37669479999931355,incorrect,v
178,4F4K,179,2,69.75770155013248,57.08998432041071,2.1327739235916314,58.68179388847475,1,b,1.093519699999888,incorrect,v
179,4F4K,180,1,29.846452690498403,42.104986478459296,0.9300586367106588,45.60401477476972,1,n,0.6908634999999776,incorrect,c
180,4F4K,181,1,35.44034499124178,53.09152287233179,1.0447880853385747,55.30290625929198,1,c,0.3876892999996926,correct,c
181,4F4K,182,1,39.58660427379619,54.84342514456305,1.1388660947132418,56.79845771967562,1,c,0.7263799000002109,correct,c
182,4F4K,183,1,40.19191177501573,58.66210091130647,1.1532916167334637,59.97334566991015,1,c,1.0147647999992842,correct,c
183,4F4K,184,1,42.28744305742118,55.832657562294,1.2046577205902491,57.63286988947176,1,c,0.6303748000000269,correct,c
184,4F4K,185,1,75.75019990318509,53.97559301482508,2.4158083319717454,56.06031726903772,2,n,0.9646566000001258,correct,n
185,4F4K,186,2,49.69525292978846,69.26152438239761,1.4052799745901088,67.93972287319828,2,b,1.1278333999998722,correct,b
186,4F4K,187,1,51.32490424249309,60.87194718823083,1.4537176902348483,61.74718760992668,1,n,1.3646752000004199,incorrect,c
187,4F4K,188,1,46.38861603955412,65.97997304663538,1.3119006610299102,65.63035721172882,1,n,1.7833049999999275,incorrect,c
188,4F4K,189,1,44.980586736276805,32.53993872177127,1.2740462070031808,37.17758785398891,2,c,1.0271351000001232,incorrect,n
189,4F4K,190,1,36.900169068767,50.02046034524581,1.0769901625458176,52.63504226630653,1,n,0.44208530000014434,incorrect,c
190,4F4K,191,2,43.863119399798165,25.43508169435212,1.2447824126862366,31.275216686543025,1,b,0.8509581999996954,incorrect,v
191,4F4K,192,2,48.334099984186345,55.81248864765813,1.3660620344186902,57.615935460993136,2,v,0.5093133999998827,incorrect,b
192,4F4K,193,2,65.59228303100072,51.3864867282209,1.955813072663421,53.828152559528014,1,b,0.47376750000057655,incorrect,v
193,4F4K,194,1,52.77931918192175,34.924048514655254,1.4983551022809047,39.24313979813695,2,n,1.2067701999994824,correct,n
194,4F4K,195,1,47.93716454142309,59.51099396176436,1.3548329096518736,60.66077309701088,1,c,1.2431146999997509,correct,c
195,4F4K,196,1,55.54541717620515,41.23905802173015,1.5870664286986609,44.830928871194246,2,n,1.685290100000202,correct,n
196,4F4K,197,2,71.47949900741511,51.73509409167316,2.2105187479947226,54.13106659799,1,b,1.9788856999994096,incorrect,v
197,4F4K,198,2,33.12211570651736,54.62484145369919,0.9956174842966438,56.613062257037456,2,b,0.7819573999995555,correct,b
198,4F4K,199,1,57.86532877442502,50.802739895706495,1.6655052056174344,53.31944975740975,2,n,1.3402559000005567,correct,n
199,4F4K,200,2,49.49323843234978,30.577719317647396,1.39938909367212,35.505154131533395,1,v,0.5829791999994995,correct,v
200,4F4K,201,1,58.51370844018504,50.37887734989685,1.6881127354077998,52.94898424897322,2,c,1.3946407000003092,incorrect,n
201,4F4K,202,2,46.83014829204376,62.015010290252334,1.3240012174718725,62.64384942119068,2,b,1.0793217000000368,correct,b
202,4F4K,203,1,50.80874694691933,30.163267032296005,1.438198099527855,35.15557626689412,2,n,0.9457900000006703,correct,n
203,4F4K,204,2,57.00679405346132,41.55491485757175,1.6360352371806794,45.11285171806968,1,b,2.3841586000007737,incorrect,v
204,4F4K,205,1,46.97862500013881,33.99290411757867,1.3280953702233964,38.43251046040621,2,n,1.2809802000001582,correct,n
205,4F4K,206,2,45.12788021230793,66.7259408810346,1.277954442027709,66.16897653885678,2,v,0.38138880000042263,incorrect,b
206,4F4K,207,2,38.69209007173748,54.24986509140303,1.1178779646662649,56.29419426034089,2,b,0.4607680999997683,correct,b
207,4F4K,208,2,25.35016402372987,34.49962542983425,0.8470417118499785,38.87307204171041,2,b,0.6716726999993625,correct,b
208,4F4K,209,1,63.1219772807992,43.131358244456656,1.8578825717102667,46.52077975433359,2,c,1.7239739999995436,incorrect,n
209,4F4K,210,2,49.93226550462446,39.01816118028714,1.4122230458021376,42.85272836460482,1,b,1.8197377999995297,incorrect,v
210,4F4K,211,1,55.85386232497587,42.57831579748012,1.5972784868211631,46.02677568432184,2,n,0.8805074000001696,correct,n
211,4F4K,212,2,42.95581060142349,25.682250273142337,1.221517318471237,31.47263032354529,1,v,0.7386003000001438,correct,v
212,4F4K,213,2,61.62700274682636,52.70948705402999,1.8010148569711852,54.97400463173343,1,b,0.9093904999999722,incorrect,v
213,4F4K,214,1,34.96533332808741,53.748516860648,1.034518898054124,55.86628309993385,1,n,1.0368281999999454,incorrect,c
214,4F4K,215,2,63.2530600603536,51.950945607663485,1.86295367726589,54.31828197159353,1,v,1.0734172000002218,correct,v
215,4F4K,216,1,52.15363314664866,67.02299664683399,1.4789866134217249,66.38128218465025,1,c,1.4618275999991965,correct,c
216,4F4K,217,2,52.33467030148061,40.1151243763084,1.484564843141842,43.82873033562293,1,b,2.0624926999998934,incorrect,v
217,4F4K,218,1,63.05048112668708,47.58219263111548,1.8551224714358228,50.48517487918145,2,n,1.2796120000002702,correct,n
218,4F4K,219,1,43.89899008064425,25.899611890291624,1.2457112545080815,31.64677373560048,2,c,1.0685174000000188,incorrect,n
219,4F4K,220,2,52.03888840804216,35.4657083160806,1.4754618845270722,39.71675180285437,1,b,2.288371599999664,incorrect,v
220,4F4K,221,1,48.26634679256763,29.200445460988,1.3641387611507556,34.34884834725807,2,n,0.5283773999999539,correct,n
221,4F4K,222,1,52.89697565453072,41.20262617736123,1.5020254623461606,44.79841738878405,2,n,0.6059514999997191,correct,n
222,4F4K,223,2,61.84632294165051,52.2197030407801,1.8092473873111867,54.551005827786085,1,v,1.1097851999993509,correct,v
223,4F4K,224,2,37.68828621207213,50.915252806328304,1.0947857688931504,53.417637140885134,2,b,1.0428977999999915,correct,b
224,4F4K,225,2,49.73163724957853,32.397520081725375,1.4063435986073531,37.05529594219492,1,b,1.4738210000004983,incorrect,v
225,4F4K,226,1,62.79221054343717,48.34778517842145,1.8451860830334128,51.162596023798,2,c,1.3780398999997487,incorrect,n
226,4F4K,227,1,58.0951836437233,66.59234757200699,1.6734848719188675,66.07308964070108,1,n,0.527168000000529,incorrect,c
227,4F4K,228,2,40.71331443698645,57.157493805310736,1.1658639414629448,58.73772499718813,2,b,1.51625999999942,correct,b
228,4F4K,229,1,44.10897732906419,36.59063162788869,1.2511626232377788,40.70467704532719,2,n,2.2809813000003487,correct,n
229,4F4K,230,1,43.07515439213857,61.329579462503645,1.224552503525738,62.107957715572,1,n,0.96471769999971,incorrect,c
230,4F4K,231,2,31.276976376779217,45.18493659876196,0.9581406066000604,48.35379646769336,2,v,1.527219800000239,incorrect,b
231,4F4K,232,1,55.55558130805079,39.011317436240965,1.5874019020345231,42.84664773691354,2,n,0.5526688999998441,correct,n
232,4F4K,233,2,36.17712781939201,25.66719520076186,1.0609185016420233,31.460587183797635,1,v,1.886977900000602,correct,v
233,4F4K,234,2,52.52706287696836,28.865284525287507,1.490516025035971,34.06986414428304,1,b,0.5041565000001356,incorrect,v
234,4F4K,235,2,47.923565535081096,57.42809746221535,1.354449839578165,58.96150616954076,2,b,1.5405478000002404,correct,b
235,4F4K,236,1,70.30695999941375,54.05276182113808,2.1572730610261166,56.12617475658016,2,n,0.7273372999998173,correct,n
236,4F4K,237,2,45.48299341838476,60.6472496769914,1.2874262610972895,61.56919571766797,2,v,0.9639929000004486,incorrect,b
237,4F4K,238,2,60.59432948580152,48.09936685581661,1.762752448555145,50.9430003549235,1,b,0.4737696000001961,incorrect,v
238,4F4K,239,2,39.32431791955291,62.460410579990985,1.132671523166474,62.98913666654884,2,b,0.8490779000003386,correct,b
239,4F4K,240,1,57.60729807022595,64.19009004103101,1.656592706618589,64.30710188803499,1,n,0.5951371000001018,incorrect,c
240,4F4K,241,1,73.40251785068918,58.29637749836952,2.3007042420563266,59.67497895112425,2,c,2.9860146999999415,incorrect,n
241,4F4K,242,1,74.31323959127923,61.77822392654885,2.3446899940718464,62.45933599033894,2,n,0.42994699999962904,correct,n
242,4F4K,243,2,47.4931373625983,34.22734184328321,1.3423809252680694,38.636163256609294,1,v,0.8430456000005506,correct,v
243,4F4K,244,2,44.56796912481224,30.64215406680069,1.2631614726656208,35.55962367397421,1,b,1.4191842000000179,incorrect,v
244,4F4K,245,1,35.59372573788098,27.20938908893775,1.0481257180390335,32.70642092707796,2,c,0.9896160999996937,incorrect,n
245,4F4K,246,1,47.07259442436177,62.30407392238151,1.3306930578615197,62.86820780607112,1,n,0.441930300000422,incorrect,c
246,4F4K,247,2,64.91721157349518,48.43797396521013,1.9285497288136304,51.24226729389849,1,v,0.965351499999997,correct,v
247,4F4K,248,1,52.57746212144632,58.5871071883899,1.4920789386948183,59.91227020018921,1,n,0.48455980000017007,incorrect,c
248,4F4K,249,1,47.96537276893014,58.50774375742744,1.355627851993681,59.847575991578594,1,c,1.261816700000054,correct,c
249,4F4K,250,2,33.78522139868792,40.005307416009856,1.009441036203324,43.730912904387694,2,b,1.1629832999997234,correct,b
250,4F4K,251,2,72.16990577003621,59.64619332764176,2.2424831940112804,60.769578511167765,1,v,1.6268771999993987,correct,v
251,4F4K,252,1,30.956680516665003,43.92194189667258,0.951780244952429,47.22684583624413,1,n,1.813578599999346,incorrect,c
252,4F4K,253,1,31.692108279041463,46.038707153923895,0.966447486419492,49.11432500681408,1,c,0.46770139999989624,correct,c
253,4F4K,254,2,51.49492708514459,34.33703935838685,1.4588664427835782,38.7315605262493,1,v,1.3827112999997553,correct,v
254,4F4K,255,1,41.24549052842504,50.13698552125916,1.1788373823167997,52.73717426346732,1,n,1.3645427000001291,incorrect,c
255,4F4K,256,2,56.64382519356999,48.50066371821704,1.6237333766343078,51.29762921140561,1,v,0.7940760000001319,correct,v
256,4F4K,257,2,54.86491758674087,36.75679134545791,1.5647666501622095,40.85105446175624,1,v,1.1353210000006584,correct,v
257,4F4K,258,1,44.4633660622931,59.30237481367218,1.2604168809874892,60.49251118010998,1,n,2.044264899999689,incorrect,c
258,4F4K,259,1,79.52619397906511,63.60066874301055,2.613142535248434,63.86217123493124,2,c,1.2795900000000984,incorrect,n
259,4F4K,260,2,62.37038177324165,47.7548187757191,1.829071475659249,50.6380859923108,1,v,0.8731746000003113,correct,v
260,4F4K,261,2,46.43109783342479,63.71646551877264,1.313060085207522,63.94992966675791,2,b,1.5223194000000149,correct,b
261,4F4K,262,2,47.25638216095983,61.94827268943224,1.3357883757595292,62.591911006425086,2,b,0.7224992000001293,correct,b
262,4F4K,263,1,81.6004659013229,63.67165093365753,2.728322102012578,63.91598626322016,2,n,1.3332812999997259,correct,n
263,4F4K,264,2,48.141119266801454,29.657768549440625,1.3605911196305265,34.73107010918983,1,v,1.1722835000000487,correct,v
264,4F4K,265,1,52.268124541340185,31.64666999344368,1.4825119524374224,36.41282822939503,2,n,0.909395300000142,correct,n
265,4F4K,266,1,62.83676893777236,54.80960480519667,1.8468965615957385,56.7697959540887,2,n,1.1096771000002263,correct,n
266,4F4K,267,1,48.408786975920094,69.15780895379777,1.368185275915644,67.86917528490669,1,c,0.8112744000000021,correct,c
267,4F4K,268,1,21.367197985393016,34.9937838777206,0.7797134571984822,39.30403299623636,1,n,1.013950599999589,incorrect,c
268,4F4K,269,2,38.46735102796688,54.5382832712478,1.1126659547025042,56.53954774048923,2,v,1.449496399999589,incorrect,b
269,4F4K,270,1,26.302550340267643,43.080531395288446,0.8639840057065288,46.475379373046245,1,n,0.5273608999996213,incorrect,c
270,4F4K,271,1,51.24701915905594,45.44529643991393,1.4513651912650691,48.58585638637556,2,n,0.8352941000002829,correct,n
271,4F4K,272,2,76.93422079245491,60.78221788382256,2.4760262743216024,61.676176258122176,1,v,1.0692648999993253,correct,v
272,4F4K,273,1,57.54867929376177,43.24129541627519,1.6545746444233325,46.618977938015824,2,n,0.5822038999995129,correct,n
273,4F4K,274,2,73.48712201388254,53.81112236780611,2.304755420052629,55.91981474455517,1,v,0.8546760000008362,correct,v
274,4F4K,275,1,51.33641647353466,64.4454171298806,1.454065737537266,64.49845567604739,1,n,0.9274383000001762,incorrect,c
275,4F4K,276,1,63.55032054620637,49.247827034279766,1.874504925357824,51.956314748329504,2,c,0.4652470999999423,incorrect,n
276,4F4K,277,2,62.33258798020447,42.6475035231167,1.8276345733973105,46.08857671123568,1,v,1.8150262999997722,correct,v
277,4F4K,278,1,63.98166597901289,56.23442737025158,1.891394070975692,57.969508304480144,2,n,0.8547803999999815,correct,n
278,4F4K,279,2,34.5347395022854,52.07418648621215,1.02529721761393,54.4250521293059,2,v,1.0298121000005267,incorrect,b
279,4F4K,280,2,31.78025157690846,53.40599715981305,0.968220501132862,55.572931472020514,2,b,1.285635799999909,correct,b
280,4F4K,281,2,40.21123764002502,61.31303110496295,1.1537551832512956,62.094953065313554,2,v,2.0150770000000193,incorrect,b
281,4F4K,282,1,46.8549030364802,31.85962110056905,1.3246829363661807,36.59464472861104,2,n,0.6484418000000005,correct,n
282,4F4K,283,1,66.61076199131669,58.75089076400578,1.9976763408085128,60.04558523127108,2,n,0.9812929999998232,correct,n
283,4F4K,284,1,39.42372834616367,47.68250694376133,1.1350153827772027,50.57404388553084,1,c,1.0184752000004664,correct,c
284,4F4K,285,2,38.93226940012809,59.78075742303386,1.123475047141873,60.87768382105812,2,v,1.012832100000196,incorrect,b
285,4F4K,286,2,53.34877214932556,64.42614107069922,1.5162032520238242,64.48403880543626,2,v,0.9397189999999682,incorrect,b
286,4F4K,287,2,39.429538585051546,52.84600357425438,1.1351525242117952,55.09164114102634,2,b,0.49792900000011286,correct,b
287,4F4K,288,2,40.548492588896586,50.75339272298319,1.1618749295496749,53.27636527524399,2,b,0.6012095000005502,correct,b
288,4F4K,289,1,58.31616688686845,48.65241851869261,1.6811925944179236,51.43158598297471,2,n,1.1231785999998465,correct,n
289,4F4K,290,2,59.755290101791374,79.45465581134168,1.732263864365463,73.9976341982582,2,v,1.1824821000000156,incorrect,b
290,4F4K,291,2,46.45855328029327,61.692216664036735,1.313809951465316,62.39215437941405,2,b,0.6428477999997995,correct,b
291,4F4K,292,1,34.704462594409456,40.63398435533095,1.028922184398685,44.29116945103664,1,n,0.5343177000004289,incorrect,c
292,4F4K,293,1,43.38886408248501,53.53356387617416,1.2325668731963275,55.682279454979415,1,c,0.5089869000003091,correct,c
293,4F4K,294,1,55.05500620850722,67.713162842877,1.570964071704753,66.86965283109085,1,n,0.716517500000009,incorrect,c
294,4F4K,295,2,43.54465377475218,33.02574954489473,1.236566316798625,37.5957339364482,1,b,1.0004220000000714,incorrect,v
295,4F4K,296,1,71.26458046301292,56.77871471255635,2.2006617489059743,58.42338599179037,2,c,1.5696675999997751,incorrect,n
296,4F4K,297,2,51.71736371912422,60.35231922068079,1.465629971737718,61.33473002571856,2,v,0.5101919999997335,incorrect,b
297,4F4K,298,1,34.46601544374388,54.53852088955143,1.0238330357923775,56.539749627540665,1,c,1.8574502999999822,correct,c
298,4F4K,299,1,37.01973444754017,42.12572991908565,1.079671206286601,45.62254029737831,1,n,1.3645414000002347,incorrect,c
299,4F4K,300,1,30.04038822748055,46.54858899584345,0.9338169280513398,49.56783404996437,1,n,1.1353278000005957,incorrect,c
300,4F4K,301,1,56.747677765095176,38.06086526682381,1.6272437047607329,42.00339555559678,2,n,0.8790555000005043,correct,n
301,4F4K,302,2,46.81064212753147,59.348902606615454,1.3234642859429089,60.53007688519894,2,b,1.5830305999998018,correct,b
302,4F4K,303,1,61.53804870686864,42.79042432684515,1.7976865139202247,46.21624065277087,2,n,1.5647524999994857,correct,n
303,4F4K,304,1,59.70868242634175,50.2877628746854,1.730585803275981,52.8692334502923,2,n,0.7043483000006745,correct,n
304,4F4K,305,2,51.45700055471073,60.68619703344567,1.4577163467092862,61.600087330210776,2,b,2.4812448000002405,correct,b
305,4F4K,306,2,54.89518698450021,43.88500047701256,1.5657518782046642,47.19386074079304,1,b,0.6740982000001168,incorrect,v
306,4F4K,307,2,58.31069710622577,67.19453940299056,1.6810013849487957,66.50331003721162,2,v,0.4238588999996864,incorrect,b
307,4F4K,308,1,27.06061830266265,47.47613711444636,0.8777113989790483,50.39118643762238,1,c,2.3720015999997486,correct,c
308,4F4K,309,2,31.95549042631832,49.36301326053404,0.9717551225569384,52.057663701016686,2,b,0.9050005999997666,correct,b
309,4F4K,310,1,49.33706385289174,62.21347583204405,1.3948518663552016,62.79799575658997,1,n,1.3523960000002262,incorrect,c
310,4F4K,311,2,52.158891801406654,36.94533226667755,1.4791483504144292,41.01727933130926,1,v,1.2677983000003223,correct,v
311,4F4K,312,1,52.08165091515443,34.95503816983832,1.4767744802245144,39.2701970537785,2,c,0.8790369999996983,incorrect,n
312,4F4K,313,2,61.14040294423269,49.91507066509863,1.7828830713633603,52.542616585506174,1,v,1.6086304999998902,correct,v
313,4F4K,314,2,37.12635751807244,50.190931810300135,1.0820676705682295,52.78443571987759,2,b,1.2540620999998282,correct,b
314,4F4K,315,1,25.832829324149422,43.23317202771114,0.8555860586006061,46.61172204934044,1,c,2.694871599999715,correct,c
315,4F4K,316,1,49.13727883227333,41.19993883516405,1.389069096352895,44.79601928216029,2,n,1.2370903000000908,correct,n
316,4F4K,317,1,38.34602541403816,52.3109552310495,1.1098623531710885,54.629925942353566,1,c,1.4252378999999564,correct,c
317,4F4K,318,2,50.78132541828517,62.10469573655245,1.4373782516575595,62.71356470402429,2,v,1.516290200000185,incorrect,b
318,4F4K,319,1,60.39777537434256,46.93453070731201,1.7555623813933718,49.91069916438365,2,n,2.085713599999508,correct,n
319,4F4K,320,1,45.92830706348573,32.16690589378187,1.299403243883588,36.85755913076721,2,c,0.8244169999998121,incorrect,n
320,4F4K,321,2,45.67865400172516,67.46572895902665,1.2926750150966153,66.69535818493848,2,v,1.2613866000001508,incorrect,b
321,4F4K,322,2,46.55258376566769,30.346781109284663,1.3163813689931154,35.31019762928589,1,b,0.5587611999999353,incorrect,v
322,4F4K,323,2,58.68764185559315,38.95914417994661,1.6942294302075904,42.80029592547002,1,b,1.3706411000002845,incorrect,v
323,4F4K,324,1,40.05476669361362,47.90081994027448,1.1500072854051389,50.76733969131245,1,n,0.7105034999995041,incorrect,c
324,4F4K,325,2,51.4756276719317,38.91834266961537,1.4582810879450927,42.76405177027688,1,v,0.818402399999286,correct,v
325,4F4K,326,1,46.86610091578719,60.60900516039042,1.3249914291464238,61.53884538134631,1,c,1.5725054999993517,correct,c
326,4F4K,327,1,37.23061730827792,55.29776949621688,1.0844161612913237,57.182651289407225,1,n,0.9822223999999551,incorrect,c
327,4F4K,328,2,46.66906312505691,65.62670645327059,1.3195736673847558,65.37259524974546,2,b,1.7832981999999902,correct,b
328,4F4K,329,1,38.54126387583292,56.38599683748559,1.114377408754589,58.0961557461124,1,n,0.8790024999998423,incorrect,c
329,4F4K,330,1,35.7284567834793,46.02174428501503,1.051066320299627,49.099227922462745,1,c,0.48592740000003687,correct,c
330,4F4K,331,2,45.09785081713201,35.03604055784851,1.277156680508997,39.34094362129479,1,v,1.3719866999999795,correct,v
331,4F4K,332,2,56.41038155343094,45.547252384822016,1.6158703489694048,48.67669997541893,1,b,1.5405085000002146,incorrect,v
332,4F4K,333,1,56.94208790590381,45.91626992291597,1.6338353887030603,49.0053418717017,2,c,1.1096349999997983,incorrect,n
333,4F4K,334,2,54.96856154534826,46.61627812736612,1.5681426962953289,49.627994780552186,1,b,0.5344254999999976,incorrect,v
334,4F4K,335,2,40.341772360658354,53.84599878207902,1.1568911827257948,55.94962446226739,2,v,0.41775330000018585,incorrect,b
335,4F4K,336,2,68.51622355299098,44.94490802145994,2.0784192624031976,48.13976743428724,1,b,0.32193550000010873,incorrect,v
336,4F4K,337,1,54.71148878389311,42.09554107471856,1.5597822766697498,45.59557935585551,2,n,0.6666076999999859,correct,n
337,4F4K,338,1,48.3527984609683,63.5169703310455,1.366593295254935,63.79863407375265,1,c,0.6666379999996934,correct,c
338,4F4K,339,1,54.29188406744272,33.31961691479361,1.5462317014371794,37.84939266848388,2,n,1.7555159999992611,correct,n
339,4F4K,340,2,65.76281318552596,74.43121042078869,1.96276084363676,71.23735793046293,2,b,0.8839704000001802,correct,b
340,4F4K,341,1,41.84646412629404,52.08187767047291,1.1936616244600269,54.43171246465241,1,n,0.7564793999999893,incorrect,c
341,4F4K,342,2,70.05769681774949,59.72559707862172,2.146120235172579,60.83339230414969,1,v,1.44479980000051,correct,v
342,4F4K,343,2,42.7903640263716,60.73805405996912,1.2173220739965234,61.64119253772092,2,b,0.6484063999996579,correct,b
343,4F4K,344,2,42.0097111765875,56.219604856291,1.1977205457788194,57.9571125891031,2,v,1.170338900000388,incorrect,b
344,4F4K,345,1,31.62432132725234,53.06209101088743,0.9650861513605292,55.27760117271092,1,n,0.5828991999997015,incorrect,c
345,4F4K,346,2,53.50907990951568,66.6394747868751,1.521265958497583,66.106944063574,2,v,0.9592940000002272,incorrect,b
346,4F4K,347,2,39.0925921683012,52.58798012675584,1.1272267590366087,54.86920351201984,2,b,0.5573448999994071,correct,b
347,4F4K,348,2,64.87109701566202,40.8570451446876,1.926701280143413,44.4900985609562,1,b,0.679012600000533,incorrect,v
348,4F4K,349,2,35.53433117101009,49.82255200715533,1.046832002938753,52.46143720598893,2,v,0.3642203999997946,incorrect,b
349,4F4K,350,2,42.64700834290619,54.76143866127719,1.2136986431763177,56.72896160777308,2,b,0.5091763000000356,correct,b
350,4F4K,351,1,45.209015565865,60.80601063989539,1.280112378398002,61.6950144132152,1,n,1.3281581000001097,incorrect,c
351,4F4K,352,1,34.34348619031408,53.34713338440615,1.0212277073264595,55.522437600041904,1,n,0.9397091999999247,incorrect,c
352,4F4K,353,2,62.44527306464431,52.900271132920935,1.8319221455193797,55.13837075640435,1,v,0.9463388000003761,correct,v
353,4F4K,354,1,31.33365375681379,46.712203308737216,0.9592705109415748,49.71323208271869,1,c,0.6597473000001628,correct,c
354,4F4K,355,1,35.00678744941012,58.86675569294613,1.0354110525242868,60.13973575784964,1,c,3.0223321000003125,correct,c
355,4F4K,356,1,44.23911037259617,65.9125728060234,1.2545529051030524,65.58131056254831,1,n,0.9700608999992255,incorrect,c
356,4F4K,357,2,64.76020486848488,48.2822238505339,1.9222635461860456,51.1046621888494,1,v,1.69361200000003,correct,v
357,4F4K,358,1,65.25555388166191,50.4235579262177,1.942166135961016,52.9880777362038,2,n,1.4494697000000087,correct,n
358,4F4K,359,1,61.40783842335978,44.25541106315358,1.7928255977066496,47.52455497542907,2,c,0.38879799999995157,incorrect,n
359,4F4K,360,2,47.483692079379296,68.54379253577886,1.342117295271496,67.44816778646768,2,v,0.5053251999997883,incorrect,b
360,4F4K,361,2,59.27345542350237,47.107586034712014,1.7149941588700774,50.06431419989473,1,b,1.3825415000001158,incorrect,v
361,4F4K,362,1,37.27332967981353,51.01341498246036,1.085379744586849,53.50324769764512,1,n,0.41914809999980207,incorrect,c
362,4F4K,363,2,52.99969002813753,65.67775135765505,1.5052370450979482,65.40994579878088,2,v,0.9822019000002911,incorrect,b
363,4F4K,364,1,57.6089093474467,47.671349286195024,1.656648212627845,50.56416078766395,2,c,0.4667482000004384,incorrect,n
364,4F4K,365,1,39.56668001025314,27.62774984373506,1.138394344947481,33.04847362618043,2,n,0.3159477999997762,correct,n
365,4F4K,366,1,24.45785827317516,46.90584069432639,0.8314697879355099,49.88522437301676,1,c,0.9046905999994124,correct,c
366,4F4K,367,1,49.02742807534494,62.62847568690747,1.3858996917250956,63.11881150220364,1,n,1.1208517999994,incorrect,c
367,4F4K,368,1,24.38224116757182,45.013543648626914,0.83016340097011,48.20097686567753,1,c,0.9166481999991447,correct,c
368,4F4K,369,2,46.4449481115062,35.91951268663647,1.3134383120527662,40.11461936228834,1,v,0.7759481000002779,correct,v
369,4F4K,370,1,44.9181899804339,60.466209124915416,1.2723941988502638,61.42538311060625,1,c,1.6801306999996086,correct,c
370,4F4K,371,2,38.537403082858,47.71472627783265,1.114287946858971,50.602580572616006,2,b,1.4881619999996474,correct,b
371,4F4K,372,1,61.351157763028034,42.37198543053619,1.7907137444012258,45.84247975164076,2,n,2.5613217000000077,correct,n
372,4F4K,373,1,59.20897449999318,42.87816129795056,1.7126961617397218,46.29461221758668,2,c,1.0792949000006047,incorrect,n
373,4F4K,374,2,51.42718724273554,55.53829135056795,1.4568129149559372,57.38538365236605,2,v,2.3371473000006517,incorrect,b
374,4F4K,375,2,58.42431526119639,45.81037166178523,1.684977653036269,48.91105641655807,1,v,1.2188247000003685,correct,v
375,4F4K,376,1,49.2214937666764,37.935138205850215,1.391503765787964,41.89204599172583,2,n,0.7772079999995185,correct,n
376,4F4K,377,2,55.715938720778105,64.57974731005258,1.5927039901345068,64.59878893015728,2,v,1.2627564000003986,incorrect,b
377,4F4K,378,1,61.76030043498819,49.38599367091436,1.80601392062341,52.07787688577002,2,n,2.044525100000101,correct,n
378,4F4K,379,2,55.214630772118745,65.23388489370222,1.576187235768487,65.08397863873105,2,v,0.619440399999803,incorrect,b
379,4F4K,380,2,61.6667503822196,50.29236177904533,1.802504063046814,52.87325973646621,1,b,0.49756319999960397,incorrect,v
380,4F4K,381,2,71.20737126386673,58.3042953315759,2.19804532818972,59.6814522707384,1,v,0.5333849999997256,correct,v
381,4F4K,382,2,52.082274682457054,37.25290512819955,1.4767936354080184,41.28873518653779,1,b,0.5465890999994372,incorrect,v
382,4F4K,383,1,76.19045218901843,58.75507596161614,2.4380260915988865,60.04898839283963,2,c,1.0550208000004204,incorrect,n
383,4F4K,384,2,47.77905936601251,32.65986505175559,1.3503859333092345,37.280669377730334,1,b,1.3706394999999247,incorrect,v
384,4F4K,385,2,56.105357319355214,47.21471833761188,1.6056536410162705,50.159370843202574,1,v,0.8015207999997074,correct,v
385,4F4K,386,2,27.96221685519845,43.15437301279837,0.8943221452273807,46.541337233029495,2,v,0.9700713000001997,incorrect,b
386,4F4K,387,2,39.97602819768212,45.05740290352371,1.1481258949741753,48.24008724379541,2,b,0.23088759999973263,correct,b
387,4F4K,388,1,63.72802357023033,43.358501329257976,1.881444466841079,46.72366539067078,2,n,0.23590599999988626,correct,n
388,4F4K,389,2,50.11775592593178,58.25444259694211,1.4176807417823076,59.640684508912095,2,v,0.29782539999996516,incorrect,b
389,4F4K,390,1,47.1127652009606,27.601456583864973,1.3318050871774387,33.02692674083892,2,n,0.5587109999996756,correct,n
390,4F4K,391,1,55.4694963289428,61.378353947002125,1.584562856643843,62.14626942299715,1,c,0.33419169999979204,correct,c
391,4F4K,392,2,64.98844744636924,51.4731480679149,1.9314086225265348,53.90351775749591,1,b,0.3086984999999913,incorrect,v
392,4F4K,393,1,69.20965026587655,62.07497483849532,2.1086059415356484,62.69047219625677,2,c,1.9521193999999014,incorrect,n
393,4F4K,394,2,62.4735836490259,48.54966721828018,1.833000919353172,51.34089474857664,1,b,0.0854005999999572,incorrect,v
394,4F4K,395,1,46.46870466556495,63.191456455454535,1.314087315670064,63.550698504997584,1,n,0.5102921999996397,incorrect,c
395,4F4K,396,2,37.91697438788989,49.09329062830202,1.1000043520547869,51.82025740421156,2,v,0.813651899999968,incorrect,b
396,4F4K,397,2,48.49747233416388,54.26544063707792,1.3707107567011227,56.30745964256126,2,v,0.6483908000000156,incorrect,b
397,4F4K,398,1,45.918924137157845,58.1218648645148,1.2991497388416942,59.532151260611485,1,n,2.4037609999995766,incorrect,c
398,4F4K,399,1,64.0346734407106,50.037373176218026,1.893480026871842,52.64986991769901,2,c,0.6972693999996409,incorrect,n
399,4F4K,400,1,43.68064178383442,56.98399079694988,1.2400680167935365,58.59389703910273,1,n,0.8304695999995602,incorrect,c
