,condition,trial,sub_task,x,y,xt,yt,cat,resp,rt,acc,correct_resp
0,4F4K,1,1,67.79907567265958,51.16356093360816,2.0476544428265027,53.72157877317598,2,c,5.0,NA,n
1,4F4K,2,1,47.8080594342897,60.45467050216856,1.3512005149102695,61.58861082691547,1,c,1.041818300000159,correct,c
2,4F4K,3,2,45.20459359337003,51.394423492108295,1.2799946744899355,53.92473067632905,2,b,1.2180290000005698,correct,b
3,4F4K,4,1,42.30356442710182,58.71042572224385,1.2050616310671327,60.1697617166927,1,c,1.8438134999996691,correct,c
4,4F4K,5,2,58.541584148164674,73.17667976996039,1.6890915488969225,70.74917818667156,2,v,1.5222642999997333,incorrect,b
5,4F4K,6,1,63.892368569486415,40.7920921872327,1.8878852238766255,44.41922793028915,2,c,1.0246188000000984,incorrect,n
6,4F4K,7,2,36.80709058812615,47.310728955861634,1.0749076505381123,50.2950235978956,2,b,1.024558099999922,correct,b
7,4F4K,8,1,53.17492294032975,33.73814619294397,1.5107319323810102,38.1307369232596,2,n,1.3343514999996842,correct,n
8,4F4K,9,1,26.275330941867296,44.19262438501727,0.8634951192134571,47.48870562074185,1,c,4.374553099999503,correct,c
9,4F4K,10,1,42.218477157740594,64.18931795573266,1.2029313524391247,64.51046912760512,1,c,2.421897700000045,correct,c
10,4F4K,11,1,62.31482561377975,44.79297188242085,1.826959646551124,48.0302918914801,2,n,1.8196625999999014,correct,n
11,4F4K,12,2,50.14213491659736,58.567772871505525,1.418399612781206,60.052336895010114,2,v,1.3098460000001069,incorrect,b
12,4F4K,13,2,41.81070242471947,50.74574562130981,1.1927742955078402,53.35319200254638,2,v,1.2300304999998843,incorrect,b
13,4F4K,14,2,56.94897461116466,44.80863270998505,1.6340693788701974,48.044414378271576,1,b,0.770194700000502,incorrect,v
14,4F4K,15,2,64.9125373386858,51.889924274592886,1.9283622867845644,54.35975348578384,1,v,1.1098259000000326,correct,v
15,4F4K,16,1,46.74185316070037,41.97454231986111,1.321572521089579,45.486102189711154,2,c,1.8682175000003554,incorrect,n
16,4F4K,17,2,45.37974674578353,36.110021719949486,1.284665180895177,40.2236939738575,1,b,1.229882199999338,incorrect,v
17,4F4K,18,2,58.65611523529349,37.31134633549559,1.6931190952726178,41.29367504001839,1,v,0.48586489999979676,correct,v
18,4F4K,19,1,42.09015730091388,62.018127850739454,1.1997258055544835,62.83210360149988,1,c,1.0124982999996064,correct,c
19,4F4K,20,1,46.304678278748085,33.769925663481025,1.3096128187349698,38.1585794328058,2,c,1.34023470000011,incorrect,n
20,4F4K,21,2,69.55040792755918,46.28774135110916,2.123600281517445,49.37647356546037,1,b,3.3261529000001246,incorrect,v
21,4F4K,22,1,56.292969648431786,48.58353255357938,1.6119299944079104,51.43357171137204,2,c,2.961989299999914,incorrect,n
22,4F4K,23,1,62.15489361353973,79.1550156310623,1.8208938327518769,74.15411883856022,1,n,4.514176099999531,incorrect,c
23,4F4K,24,1,41.530856023969086,54.41407562455389,1.185853409547711,56.55199601717528,1,n,1.8851148000003377,incorrect,c
24,4F4K,25,2,55.708360651688565,36.71259037206602,1.5924530291980008,40.75966259427364,1,v,2.293286299999636,correct,v
25,4F4K,26,2,54.8668703832063,64.23777228168447,1.56483019233999,64.5472452965895,2,v,4.157607399999506,incorrect,b
26,4F4K,27,2,44.16054088850104,50.23792606896363,1.2525048819153024,52.90425361911885,2,v,5.0,incorrect,b
27,4F4K,28,2,33.378295786060974,50.01387896950568,1.000935405138934,52.705787659285306,2,v,1.8196625000000495,incorrect,b
28,4F4K,29,2,43.467955781018496,25.701935189096982,1.2345957014906834,31.33419023677588,1,b,2.858840500000042,incorrect,v
29,4F4K,30,2,46.14743393057295,58.87074101378169,1.3053376344287515,60.30148299799711,2,v,2.307613900000433,incorrect,b
30,4F4K,31,1,30.318954030008317,49.613860623374016,0.939241865257588,52.3508682035449,1,n,1.7896060999992187,incorrect,c
31,4F4K,32,1,57.70876210472115,41.59317782527547,1.660091617042291,45.14187334586788,2,c,0.8789457000002585,incorrect,n
32,4F4K,33,1,24.47730084553737,39.5999254357631,0.8318060165787494,43.34549655156912,1,c,5.0,incorrect,c
33,4F4K,34,2,49.28522058075102,35.267324278242995,1.39334895580332,39.4768331272,1,b,2.6707635999991908,incorrect,v
34,4F4K,35,1,32.38917526861,49.04687857796695,0.9805582614022282,51.84661737739125,1,c,2.4462475999998787,correct,c
35,4F4K,36,2,62.86440322266025,69.98733557383213,1.847958165009116,68.67770896769274,2,b,2.361209400000007,correct,b
36,4F4K,37,2,52.81337017672675,37.9407154221152,1.499416419073529,41.8563808415395,1,b,1.6609329000002617,incorrect,v
37,4F4K,38,1,47.32324054388991,61.060368255213255,1.3376467885019434,62.07365372844199,1,c,3.7995717000003424,correct,c
38,4F4K,39,2,60.57686571288963,44.14785511281521,1.762112423076002,47.4483039759706,1,v,4.262051699999574,correct,v
39,4F4K,40,1,53.8684304065109,62.056180711265725,1.5326761715147614,62.86201632544398,1,c,2.135257900000397,correct,c
40,4F4K,41,1,56.82533755782521,50.44222146446758,1.6298736472952042,53.08501408068878,2,c,1.3396310999996786,incorrect,n
41,4F4K,42,2,31.457378137970224,55.96955397863405,0.9617416767765044,57.88009639660417,2,b,3.0772893000003023,correct,b
42,4F4K,43,1,49.9108436085096,31.303574073406388,1.4115941029393742,36.016935278675,2,n,2.3368829999999434,correct,n
43,4F4K,44,2,54.153607257862646,37.64466546908851,1.5417920752225955,41.59152110810236,1,v,2.009066800000255,correct,v
44,4F4K,45,1,53.0699765356929,36.27398031684878,1.5074386581542325,40.36937927940463,2,n,1.842953800000032,correct,n
45,4F4K,46,2,55.989620214150186,45.9110324594747,1.6017939841220978,49.0375968881035,1,v,1.8489224999993894,correct,v
46,4F4K,47,1,63.21150853740214,52.19363211541342,1.861344706668176,54.62569008331396,2,c,2.062445999999909,incorrect,n
47,4F4K,48,2,48.68736135523902,55.89300596309473,1.376133887869956,57.81519201531624,2,b,4.7089201999997385,correct,b
48,4F4K,49,2,65.39207192936755,47.96024881664298,1.94768741566029,50.87670267089231,1,v,4.248616399999264,correct,v
49,4F4K,50,2,47.47819615915586,29.915587165831223,1.341963920901274,34.83087619716242,1,v,1.7104036999999153,correct,v
50,4F4K,51,1,62.494899873134194,54.53858874727971,1.8338135925419332,56.65899784613373,2,c,2.5665874000005715,incorrect,n
51,4F4K,52,2,55.54846220515989,44.84430458059364,1.58716692428704,48.07658108215681,1,v,1.6244811000005939,correct,v
52,4F4K,53,2,45.25196693165075,58.69061270314288,1.2812562196375057,60.15346471589047,2,v,0.8540899999998146,incorrect,b
53,4F4K,54,1,43.97997987760093,58.90157200746922,1.2478109686379202,60.32678534066875,1,c,2.0199379999994562,correct,c
54,4F4K,55,2,61.58560088778157,53.98704490277391,1.7994649810932235,56.184157885766446,1,b,2.7435456000002887,incorrect,v
55,4F4K,56,2,47.00569010440495,30.36001169257578,1.3288430366852142,35.20899365186962,1,v,1.0852928000003885,correct,v
56,4F4K,57,1,49.26089326148448,59.70312256837903,1.3926442773006926,60.98118563428065,1,n,2.2626741000003676,incorrect,c
57,4F4K,58,1,61.09540919580986,49.48243280855257,1.7812157527381227,52.23410279320667,2,c,1.175674500000241,incorrect,n
58,4F4K,59,2,59.10864019723817,46.166252633756976,1.709126529285369,49.267218735451294,1,b,2.5978833999997732,incorrect,v
59,4F4K,60,1,50.03449273661619,59.98610102217554,1.4152282798145843,61.21061050297889,1,c,2.731351899999936,correct,c
60,4F4K,61,2,62.94360643469992,72.8213701230113,1.8510042311748365,70.52679648359046,2,v,1.9228417000003901,incorrect,b
61,4F4K,62,2,50.17738478475935,42.54290122063145,1.419439681406289,45.99926122299442,1,b,0.6729659000002357,incorrect,v
62,4F4K,63,1,63.541307839959416,50.589800874558,1.874153649888972,53.21546506865634,2,c,2.5918132000006153,incorrect,n
63,4F4K,64,2,44.73255796155016,61.87856703362461,1.2674920855840257,62.72225049874976,2,v,3.301016299999901,incorrect,b
64,4F4K,65,2,59.9621800829915,38.82668517034952,1.739732387973291,42.65061774735175,1,v,1.206671500000084,correct,v
65,4F4K,66,1,37.18041105215941,53.52066202241135,1.083284611027474,55.78093711601276,1,c,2.798063999999613,correct,c
66,4F4K,67,1,37.46027344933309,54.16083368565781,1.0896072466913638,56.33401682878871,1,c,1.9592433000007077,correct,c
67,4F4K,68,2,35.99559766821267,41.30449543041457,1.0569212814196,44.881379446446914,2,v,1.2067008000003625,incorrect,b
68,4F4K,69,2,45.56088160445266,58.05352851221435,1.2895131167825,59.62737720293943,2,v,1.5465517000002365,incorrect,b
69,4F4K,70,2,68.06263971658773,54.01034473831229,2.058907750682072,56.20426203556557,1,v,1.4133984999998574,correct,v
70,4F4K,71,2,45.732340756344335,54.12155825715936,1.2941189435168297,56.30016845015084,2,b,1.2309915000005276,correct,b
71,4F4K,72,1,32.22069412742864,47.82865327988437,0.9771289188507692,50.75895934309649,1,c,2.7243343000000095,correct,c
72,4F4K,73,2,42.45998794031552,58.27448109710635,1.20898775969932,59.81028282924855,2,v,4.089680500000213,incorrect,b
73,4F4K,74,2,39.92923858600932,57.864170274330775,1.1470093546567328,59.47025261412547,2,b,1.0913768999998865,correct,b
74,4F4K,75,1,51.79308090364808,36.41018963527223,1.4679394158244683,40.49049541281747,2,c,5.0,correct,n
75,4F4K,76,1,42.072403200112205,56.90845003370635,1.1992829651566683,58.67211498803462,1,c,1.9471966999999495,correct,c
76,4F4K,77,1,46.998644280310046,32.67150598578558,1.328648357113334,37.19980902770456,2,c,2.3019154000003255,incorrect,n
77,4F4K,78,2,37.47401133173032,50.16326091887183,1.0899185606021704,52.838139857103975,2,v,5.0,incorrect,b
78,4F4K,79,1,71.46531144114716,52.91600096835053,2.209866692198484,55.255956909294014,2,n,2.1660744999999224,correct,n
79,4F4K,80,2,42.75638544205757,61.284076344661415,1.216462260864433,62.251755651878256,2,b,3.349284500000067,correct,b
80,4F4K,81,2,62.34864429352606,50.35129593521516,1.8282448889238492,53.00458820731292,1,b,5.0,correct,v
81,4F4K,82,1,50.73259847476468,64.50285780139647,1.4359225681885717,64.74789798073313,1,n,2.6113642000000254,incorrect,c
82,4F4K,83,1,71.77324529448373,60.34427336464795,2.224062543133167,61.499767104177074,2,n,2.719288499999493,correct,n
83,4F4K,84,2,62.86328266052791,51.46337572053304,1.847915105434689,53.98534984710952,1,b,1.7517741999999998,incorrect,v
84,4F4K,85,1,49.73037011029876,34.82753652026739,1.4063065427566035,39.08842228701176,2,c,4.18659419999949,incorrect,n
85,4F4K,86,2,52.54070888047067,43.56771579793617,1.4909390348692693,46.92463065007311,1,v,5.0,incorrect,v
86,4F4K,87,2,65.33583785161122,51.32114309766449,1.945411209189431,53.860277672098135,1,v,2.3172163999997792,correct,v
87,4F4K,88,1,29.69219458187361,40.33871334408264,0.9270800606864014,44.01060439473363,1,c,1.886280099999567,correct,c
88,4F4K,89,1,73.66990940640301,61.18493604487012,2.3135323660677622,62.172896853168986,2,c,5.0,correct,n
89,4F4K,90,2,48.50170942868573,56.83498622513866,1.3708315324729747,58.61042053781407,2,b,3.24838279999949,correct,b
90,4F4K,91,2,45.603080873806746,56.77089132881008,1.290645172947232,58.5565549291439,2,v,5.0,correct,b
91,4F4K,92,1,65.48043362819894,49.60705957068068,1.9512694445556484,52.34482773732844,2,c,5.0,correct,n
92,4F4K,93,1,34.73395687355016,46.62374881703714,1.0295534326961189,49.67846974359804,1,n,1.8742520999994667,incorrect,c
93,4F4K,94,2,47.07554000497259,62.00910518478644,1.3307745674724445,62.82500851505797,2,b,1.970388599999751,correct,b
94,4F4K,95,2,57.785518984084376,42.83061396700676,1.6627434289713052,46.25906365876952,1,v,1.3826939000000493,correct,v
95,4F4K,96,1,47.01984830391579,31.6256076421966,1.3292343209296935,36.294215761624784,2,n,1.370566300000064,correct,n
96,4F4K,97,2,52.13919453032669,65.62688820712336,1.4785426253118883,65.58831082450534,2,b,1.1156683999997767,correct,b
97,4F4K,98,1,44.560590984578425,29.963041400070168,1.262967688103062,34.8711736374585,2,c,1.5821622999992542,incorrect,n
98,4F4K,99,2,31.81419903407997,50.19355637620114,0.968904226252768,52.864968776553,2,v,1.5651530999994065,incorrect,b
99,4F4K,100,1,48.31711688895484,63.09623243154272,1.3655796899548942,63.67282536555082,1,n,5.0,incorrect,c
100,4F4K,101,2,66.9993180559299,56.53689689661472,2.0138825417912165,58.35959822557981,1,b,1.8196961000003284,incorrect,v
101,4F4K,102,2,39.8062412258655,49.263777185969445,1.1440794452236651,52.03967713458429,2,b,2.6585783000000447,correct,b
102,4F4K,103,2,53.69177217013569,41.60268148164848,1.5270562071152989,45.15045026919295,1,v,1.3886280999995506,correct,v
103,4F4K,104,2,72.61243799584041,61.32324550675875,2.263214209651846,62.28288086068716,1,v,0.8899290999997902,correct,v
104,4F4K,105,1,43.76799441882776,65.26362592996828,1.242322581626225,65.31857368872511,1,c,1.4615815000006478,correct,c
105,4F4K,106,1,56.52898713778625,42.0218614549778,1.6198605431670576,45.52882016886876,2,n,1.0602937999992719,correct,n
106,4F4K,107,2,46.302507744040085,36.4233727985038,1.3095537106938102,40.50222191181249,1,v,1.6921109000004435,correct,v
107,4F4K,108,2,37.14889534994048,48.84922128771599,1.0825749123793524,51.670519356685695,2,b,0.9156911999998556,correct,b
108,4F4K,109,2,43.05935465027629,58.1612551918377,1.224150247297818,59.716612772615655,2,b,1.1520538000004308,correct,b
109,4F4K,110,2,63.93327057051819,45.72151621050474,1.889491615986967,48.86700442642182,1,v,1.0357502999995631,correct,v
110,4F4K,111,1,52.301600946185374,64.94406022021289,1.4835443213073811,65.07980137420641,1,n,1.1338621000004423,incorrect,c
111,4F4K,112,2,44.411794676561,50.66649714195024,1.2590659384370084,53.2832168670053,2,b,1.0541167999999743,correct,b
112,4F4K,113,2,46.43704436455833,33.508162185309885,1.3132224612169898,37.9294225188376,1,b,1.0069407999999385,incorrect,v
113,4F4K,114,1,69.31517269533208,50.96015648080541,2.1132378875767635,53.5423517656167,2,c,1.5344562000000224,incorrect,n
114,4F4K,115,1,38.301625752066414,46.1383961782777,1.1088381289764284,49.242162890380925,1,n,2.2149171999999453,incorrect,c
115,4F4K,116,1,49.42403712475963,54.05810998833389,1.397376819913345,56.24546390265476,1,c,0.7460411000001841,correct,c
116,4F4K,117,1,59.45622725007488,47.79071173968994,1.7215246248516625,50.72500119676584,2,n,0.793984900000396,correct,n
117,4F4K,118,2,44.46235435924747,60.81982720757953,1.2603903649016666,61.88151860440898,2,v,0.8486283000002004,incorrect,b
118,4F4K,119,2,44.581255724021446,56.98730347045112,1.2635105160554114,58.73828207389655,2,b,2.0442298999996638,correct,b
119,4F4K,120,2,41.4740264433038,27.35617806247665,1.1844528693186709,32.68665332371991,1,b,0.5017066000000341,incorrect,v
120,4F4K,120,2,41.4740264433038,27.35617806247665,1.1844528693186709,32.68665332371991,1,many,0.5017066000000341,incorrect,v
121,4F4K,121,2,65.0718103067791,49.41705680891345,1.9347595880912043,52.17599255810921,1,b,5.0,incorrect,v
122,4F4K,122,2,41.87073155674413,56.32058147384741,1.1942641303878596,58.17709871476802,2,v,3.417191799999273,incorrect,b
123,4F4K,123,1,34.36237384322989,56.32631506148131,1.021628881149863,58.18194118420687,1,c,2.9148864999997386,correct,c
124,4F4K,124,2,38.55420660904319,47.98953879528714,1.1146773688324874,50.90290171529084,2,v,1.3718247000006158,incorrect,b
125,4F4K,125,1,28.96020272676732,47.06984072689235,0.9130755117670728,50.07897520763513,1,c,0.12178380000023026,correct,c
126,4F4K,126,1,57.43512100737122,42.09984831874698,1.650672177372438,45.59922647970743,2,n,1.0367660000001706,correct,n
127,4F4K,127,1,65.06763976048492,46.50125145645914,1.9345918051365976,49.56840258147129,2,n,2.092732000000069,correct,n
128,4F4K,128,2,72.21663250506143,53.81132830172413,2.2446631732537816,56.03241742304704,1,v,2.4401120000002265,correct,v
129,4F4K,129,1,34.28788485229899,46.42458373827889,1.0200476489093622,49.49949637813773,1,c,2.3904586999997264,correct,c
130,4F4K,130,1,47.067652623369966,64.32245883447537,1.33055632038999,64.61144766370458,1,c,5.0,correct,c
131,4F4K,131,1,45.96273491863782,29.578555284891703,1.3003338289866644,34.545211757876764,2,c,1.0720903999999791,incorrect,n
132,4F4K,132,2,46.76305479045799,29.62656143210237,1.322155298487928,34.585843143363434,1,v,4.266893300000447,correct,v
133,4F4K,133,1,50.44336467877619,65.08893771062112,1.4273122062332928,65.18822126629294,1,n,3.0348441999994975,incorrect,c
134,4F4K,134,1,35.10934826066708,42.08534695516109,1.0376216219056114,45.58613445458452,1,c,1.1813908999993146,correct,c
135,4F4K,135,2,70.41916112256277,61.33970814113421,2.162312193519491,62.29595740622,1,b,1.7227327999999034,incorrect,v
136,4F4K,136,1,71.84605839997494,63.56957433470612,2.2274325601302327,64.03741770337119,2,n,2.707063900000321,correct,n
137,4F4K,137,2,52.974160003543645,45.81342473773183,1.504438154016979,48.949744252247456,1,b,4.013229899999715,incorrect,v
138,4F4K,138,1,42.95305341144828,21.97839094933825,1.2214472858171692,28.40118791034036,2,c,5.0,incorrect,n
139,4F4K,139,1,28.660775606765878,42.869261522001736,0.9074079899889504,46.29396255987957,1,c,2.822470799999792,correct,c
140,4F4K,140,1,75.07592531071847,65.49605864324744,2.382172289665134,65.49137241339274,2,n,0.778406499999619,correct,n
141,4F4K,141,1,60.61453886519136,49.85310983825782,1.7634933872516378,52.56323086756144,2,n,0.9582493999996586,correct,n
142,4F4K,142,2,42.2578177415862,54.74487151724141,1.203915830434514,56.83601370345287,2,v,4.102958499999659,incorrect,b
143,4F4K,143,1,41.40377024693411,60.81568320396904,1.1827237222449802,61.87820283715758,1,n,2.1234605999998166,incorrect,c
144,4F4K,144,2,41.12253744183549,52.15568394503692,1.1758272541986516,54.592491404894766,2,b,5.0,incorrect,b
145,4F4K,145,2,65.09615185300117,48.05934558508549,1.9357391498064245,50.96533030808872,1,v,2.5493139000000156,correct,v
146,4F4K,146,1,52.45020935054128,33.72485015482084,1.488135897749313,38.119089810179496,2,c,3.799524900000506,incorrect,n
147,4F4K,147,1,32.56547674120131,19.767481121222545,0.984159669878108,26.7416898554712,2,n,5.0,incorrect,n
148,4F4K,148,1,55.174215923985926,51.68080120242372,1.5748631595214648,54.17632485157885,2,n,2.798112299999957,correct,n
149,4F4K,149,1,53.30833610068781,72.79407776082314,1.5149288974686783,70.50962572320039,1,n,2.9196708000008584,incorrect,c
150,4F4K,150,1,55.89297074178107,65.16905805359619,1.598577980577772,65.24805834583337,1,c,1.2082463999995525,correct,c
151,4F4K,151,1,48.97591107746908,39.41822277491398,1.384415819659741,43.182082733047615,2,c,2.246983099999852,incorrect,n
152,4F4K,152,1,54.77030767636131,40.59859377756536,1.5616912205478677,44.24479331674642,2,n,1.8368294000001697,correct,n
153,4F4K,153,1,57.194573245371465,42.58112214457931,1.6424360483955702,46.03377378858017,2,n,0.6544215999992957,correct,n
154,4F4K,154,2,37.00028043169085,47.114384722234064,1.079234529948427,50.11893819384828,2,b,1.1573726999995415,correct,b
155,4F4K,155,1,49.560811282951015,59.41966022255895,1.4013568104942988,60.75052137569713,1,n,0.46162679999997636,incorrect,c
156,4F4K,156,1,46.48353201980615,67.49150537579914,1.3144925456390617,66.94377089887915,1,n,5.0,incorrect,c
157,4F4K,157,1,50.40285419530397,41.5765149905122,1.4261103563885522,45.12683553955387,2,n,0.7818387999996048,correct,n
158,4F4K,158,2,61.968859125891896,45.951112755896645,1.8138633516582627,49.07366603070511,1,b,0.8000721000007616,incorrect,v
159,4F4K,159,1,57.4909387962575,68.37310180906519,1.652589222085686,67.56706431901974,1,c,3.2704368999993676,correct,c
160,4F4K,160,1,47.839634348362026,59.937444481031385,1.3520879799994314,61.1712229086063,1,c,2.5068664999998873,correct,c
161,4F4K,161,1,49.19029743583382,56.54156837588901,1.3906013768530348,58.36353496260325,1,c,1.8670042000003377,correct,c
162,4F4K,162,2,44.54881414593289,30.14285802315031,1.262658434688424,35.024038648318744,1,v,1.0610793000005287,correct,v
163,4F4K,163,1,68.64794939057771,47.46032954786799,2.084120193347606,50.42911361925224,2,n,2.0627862999999707,correct,n
164,4F4K,164,1,37.14409759429824,58.78064290668262,1.0824669130309397,60.22748659082218,1,c,2.597890799999732,correct,c
165,4F4K,165,2,54.5539090497556,38.19482528553572,1.554679580482519,42.08394326466043,1,v,1.5829469000000245,correct,v
166,4F4K,166,1,34.696111746009294,53.797641023466646,1.028743526533925,56.020588589432165,1,c,1.9835211999998137,correct,c
167,4F4K,167,2,43.96390683187104,32.71511186453391,1.2473939829779286,37.2377258238491,1,v,1.1095801999999821,correct,v
168,4F4K,168,2,46.663114070435576,36.61202154470831,1.3194104368323951,40.67010482053853,1,b,2.8285814000000755,incorrect,v
169,4F4K,169,2,59.67976821310384,43.12315692642307,1.7295455941062794,46.52322912106212,1,v,0.5815082999997685,correct,v
170,4F4K,170,1,50.298671474181575,69.07453925647488,1.4230241483434771,68.05462105124501,1,c,0.8668510999996215,correct,c
171,4F4K,171,1,64.51387724311667,45.16290656741208,1.9124424274699536,48.36380016585801,2,c,0.5998117999997703,incorrect,n
172,4F4K,172,2,63.51894944125512,76.320932937967,1.8732825024767032,72.62095795990243,2,b,3.3565857000003234,correct,b
173,4F4K,173,2,40.67635244607422,62.44072097104496,1.1649681992265144,63.1633272470848,2,v,1.9350051000001258,incorrect,b
174,4F4K,174,1,33.57947327399867,51.30424432597843,1.0051314572359162,53.84541035812232,1,c,0.6780958999997893,correct,c
175,4F4K,175,2,26.68958406486277,44.327149340594325,0.8709655264290802,47.61009576389898,2,b,1.558672000000115,correct,b
176,4F4K,176,1,44.94135792863501,59.24289503522037,1.2730073401746105,60.60625732041947,1,c,1.5344350000004852,correct,c
177,4F4K,177,1,54.28854256973221,42.66981744234479,1.5461242660462435,46.11386443956796,2,n,0.7758171999994374,correct,n
178,4F4K,178,1,59.66959334547399,46.401348030486965,1.729179694825549,49.47861024343161,2,c,2.1525975999993534,incorrect,n
179,4F4K,179,1,45.46763042234866,59.21630800997058,1.287015039771475,60.584530863340575,1,c,1.1095955000000686,correct,c
180,4F4K,180,2,65.68132923551366,53.038383916978944,1.9594379358451255,55.36240796444768,1,b,1.582041300000128,incorrect,v
181,4F4K,181,2,28.802141042437768,42.780716592685,0.910079341481907,46.214006168203575,2,v,2.3238781000000017,incorrect,b
182,4F4K,182,1,39.6110669553636,51.848865950972495,1.139445568648662,54.32375982417487,1,n,2.007797799999935,incorrect,c
183,4F4K,183,1,55.2167087001882,49.70970496014356,1.576255343186224,52.4359722703435,2,c,0.9080990000002203,incorrect,n
184,4F4K,184,1,70.00865888621728,54.77964964081594,2.143932919329644,56.86582586141771,2,n,2.0624471999999514,correct,n
185,4F4K,185,2,55.81167919932514,45.80302234523159,1.5958780108788058,48.940380399564425,1,b,3.9019963999999163,incorrect,v
186,4F4K,186,2,44.27648210872075,34.17600256430876,1.255528226452889,38.51486416751087,1,b,2.581084400000691,incorrect,v
187,4F4K,187,1,58.49261103540999,74.35150603487747,1.687372308937214,71.46898365527544,1,c,1.576901700000235,correct,c
188,4F4K,188,2,30.514385685746184,39.85727977649895,0.9430666044867734,43.57706653396278,2,v,1.7953674999998839,incorrect,b
189,4F4K,189,2,53.16929493983764,46.26975872368574,1.5105551402874238,49.36030383728567,1,v,2.608888100000513,correct,v
190,4F4K,190,2,42.350017716459234,62.45318773885009,1.206226245641692,63.17306599341081,2,b,1.7225846999999703,correct,b
191,4F4K,191,2,65.83783404113538,56.21037565615719,1.96582516924852,58.083966598919815,1,v,1.13294870000027,correct,v
192,4F4K,192,2,64.23581545787319,51.28557646556898,1.9014163402551243,53.82898481160653,1,v,1.255267699999422,correct,v
193,4F4K,193,1,42.7167417239164,35.57438371694325,1.2154598616015406,39.74858792124537,2,c,1.8730872000005547,incorrect,n
194,4F4K,194,2,50.52607862109342,61.3741563862438,1.4297692786725151,62.32331015654651,2,v,3.1319695000001957,incorrect,b
195,4F4K,195,2,46.24229176189105,61.8494805736519,1.307914971157441,62.69932662003981,2,b,1.959244900000158,correct,b
196,4F4K,196,2,57.06120525821552,41.70456125516749,1.6378873755353949,45.24239993949936,1,b,2.7253497000001516,incorrect,v
197,4F4K,197,2,61.10357133425476,45.20018564917852,1.7815180986190238,48.39739761514183,1,v,5.0,incorrect,v
198,4F4K,198,2,60.72837686724954,54.8863516275416,1.7676728643265918,56.95723421186496,1,v,3.6841946999993525,correct,v
199,4F4K,199,2,43.81962892581781,58.34830883229104,1.24365719140859,59.87129230033432,2,v,5.0,correct,b
200,4F4K,200,2,54.6372757222822,33.642621728053264,1.5573770501523063,38.04708223826134,1,b,2.2640646999998353,incorrect,v
201,4F4K,201,1,65.45832497280009,74.41143516721047,1.950372580820784,71.50505685438196,1,c,5.0,incorrect,c
202,4F4K,202,2,49.71158434175384,27.262771468558327,1.4057572917559444,32.60954962799492,1,b,2.038146500000039,incorrect,v
203,4F4K,203,2,57.42896137997829,36.630790526322535,1.6504607631620458,40.68681573620928,1,v,1.2916202000005796,correct,v
204,4F4K,204,2,52.60275566241525,64.10864581622374,1.4928639255154432,64.44917230964472,2,v,1.4737116000005699,incorrect,b
205,4F4K,205,2,45.10022208529071,28.82937639597044,1.277219657553032,33.91368806865548,1,b,0.5142984000003707,incorrect,v
206,4F4K,206,1,31.469733649352605,45.408574127898135,0.9619888046142148,48.58516585343901,1,c,2.361178699999982,correct,c
207,4F4K,207,1,64.46992526097239,44.8382221061136,1.9106953381716127,48.07109639577812,2,n,1.4494654999998602,correct,n
208,4F4K,208,1,55.4155620459381,41.50417444729143,1.5827867150606192,45.061552674437365,2,n,1.7953701999995246,correct,n
209,4F4K,209,1,47.80534309153283,64.55898424702738,1.3511241948293582,64.79026360066248,1,c,0.9759819999999308,correct,c
210,4F4K,210,2,50.865519680367385,63.33928447052645,1.4398969752525606,63.86038822403283,2,b,1.7288710000002538,correct,b
211,4F4K,211,1,74.0820087176217,58.18097329948454,2.333443056801649,59.73293418734544,2,n,1.1033730999997715,correct,n
212,4F4K,212,2,44.83428077099363,60.328398261280114,1.2701760065534702,61.48698042105563,2,b,2.063328100000035,correct,b
213,4F4K,213,2,37.16406697966317,59.50364529776673,1.0829165025911984,60.81895088548015,2,b,0.9153671000003669,correct,b
214,4F4K,214,2,24.592708318635538,42.84742323942921,0.8338046075726495,46.27424249993643,2,b,2.578821500000231,correct,b
215,4F4K,215,1,31.15049128940025,41.05276449853893,0.9556238322728454,44.65429724271217,1,c,1.6557897000002413,correct,c
216,4F4K,216,2,39.4716007860274,57.18241508258194,1.1361458297861926,58.90176298545474,2,b,2.591787199999999,correct,b
217,4F4K,217,1,35.73789480045738,58.42231178170904,1.051272620765007,59.93239314288344,1,c,1.5473840000004202,correct,c
218,4F4K,218,2,41.025931748031454,58.21434615256758,1.1734675540664663,59.760549577869575,2,b,1.7589836000006471,correct,b
219,4F4K,219,2,29.970721063549394,37.96756384271466,0.9324650981485858,41.88041477307769,2,b,2.1730536999994,correct,b
220,4F4K,220,2,50.27803041126881,35.66972621741836,1.4224134906359829,39.83305964087117,1,v,1.0853501999999935,correct,v
221,4F4K,221,1,62.28741281837874,44.49406053073316,1.8259185159295093,47.760685688620825,2,n,3.301917499999945,correct,n
222,4F4K,222,2,45.7005864000521,56.88416861487049,1.293264701662316,58.65172891450577,2,b,3.344466499999726,correct,b
223,4F4K,223,2,37.658295149605024,55.09410483988193,1.0941032223138605,57.13495819059101,2,v,3.4778925000000527,incorrect,b
224,4F4K,224,1,65.50202173887028,56.67741817627819,1.9521455897417732,58.47793471768394,2,n,1.4858366999997088,correct,n
225,4F4K,225,1,37.14658639840641,55.53848372786754,1.0825229356359494,57.51396556190857,1,c,1.5829836000002615,correct,c
226,4F4K,226,1,39.71198133495725,28.910518953064127,1.1418391550431912,33.981850819743734,2,c,1.7096900999995341,incorrect,n
227,4F4K,227,2,40.70864394059407,54.60872345280123,1.16575071797283,56.719217974782005,2,b,5.0,incorrect,b
228,4F4K,228,2,50.04384536340408,64.24573907157502,1.4155035435825365,64.55328905117233,2,v,2.1973728000002666,incorrect,b
229,4F4K,229,2,60.23186281366405,53.19192438648103,1.7495160312482347,55.49582158914544,1,b,1.2006225999994058,incorrect,v
230,4F4K,230,2,45.22074762871294,61.76388991572886,1.2804247144887682,62.631812496336906,2,b,1.3826970000000074,correct,b
231,4F4K,231,1,40.39740074450171,58.29602461437594,1.1582302021619724,59.82809136206839,1,c,2.427923799999917,correct,c
232,4F4K,232,2,72.88352151022015,53.7990299353245,2.276008026325073,56.02178897624175,1,v,2.4522274000000834,correct,v
233,4F4K,233,2,57.66780778707096,40.25456118229161,1.6586784498296117,43.93479465329023,1,b,2.7435835999995106,incorrect,v
234,4F4K,234,1,29.37006408760862,42.535483542321735,0.9208907534282046,45.9925632733122,1,c,0.9882199000003311,correct,c
235,4F4K,235,1,44.19828126165061,65.50358918951156,1.2534882197715362,65.4969585529376,1,c,1.401034399999844,correct,c
236,4F4K,236,1,49.68866882453511,39.92889514307444,1.4050875871976862,43.64153026215507,2,c,1.4312875999994503,incorrect,n
237,4F4K,237,1,42.285056783959,24.600912992436232,1.2045979455578038,30.450135811287783,2,n,0.7989630000001853,correct,n
238,4F4K,238,2,26.223489741195152,40.66321513847305,0.8625647665847631,44.30304216844966,2,b,1.7345626000005723,correct,b
239,4F4K,239,2,54.264568123062695,65.81834456195061,1.545353661700837,65.72974601152771,2,b,2.7374665000006644,correct,b
240,4F4K,240,2,64.22272067863564,48.926833229136975,1.9008986583426677,51.73968425755983,1,v,1.0428583000002618,correct,v
241,4F4K,241,1,58.35336823188681,78.43735884327472,1.68249363492369,73.78007534998449,1,c,4.157439599999634,correct,c
242,4F4K,242,2,49.55661511673249,33.147139125691986,1.401234537885054,37.614050181981504,1,b,2.5918121999993673,incorrect,v
243,4F4K,243,2,49.35285611309392,64.90655694993922,1.3953099981210135,65.0516896672527,2,v,3.7157760000000053,incorrect,b
244,4F4K,244,1,48.80687929751023,61.64623978058641,1.3795582548591931,62.53886983178308,1,c,1.7542982000004486,correct,c
245,4F4K,245,1,62.33692401393504,47.35983376883708,1.8277993700218769,50.33904448899672,2,n,0.8305137999996077,correct,n
246,4F4K,246,1,44.9902165777736,31.710728208164085,1.274301356383368,36.367632714039416,2,c,2.1295489000003727,incorrect,n
247,4F4K,247,1,28.23946230963253,43.516846121228426,0.8994929438505642,46.8787029172199,1,c,1.1463280999996641,correct,c
248,4F4K,248,1,50.33277712808234,66.28122450605979,1.424033725180382,66.06958587092473,1,n,0.7211784000000989,incorrect,c
249,4F4K,249,1,43.29259054874371,61.53394510858631,1.2301018019592953,62.450007564413305,1,c,0.9655244999994466,correct,c
250,4F4K,250,2,45.28035354482071,55.74838122186833,1.2820127466971707,57.69243339961999,2,v,1.7953713000006246,incorrect,b
251,4F4K,251,2,66.77377075555799,52.27707003959719,2.004459297791468,54.69865460918755,1,b,1.006422399999792,incorrect,v
252,4F4K,252,1,42.737335746226805,46.32915682707235,1.2159804823963687,49.41371102855593,1,c,3.496045299999423,correct,c
253,4F4K,253,2,71.39140366625026,48.27802449049693,2.206473025121944,51.16078832973183,1,v,5.0,correct,v
254,4F4K,254,1,64.62095212544313,48.02279165692068,1.9167053385369115,50.932641972878095,2,c,5.0,correct,n
255,4F4K,255,1,48.886598073882745,61.99902268705723,1.3818470525141624,62.81707887566325,1,c,2.458338499999627,correct,c
256,4F4K,256,1,44.24202242903293,65.2407906686717,1.254628876241249,65.30155748160284,1,c,3.391965799999525,correct,c
257,4F4K,257,1,64.10065144376587,52.1871086789326,1.8960796151215973,54.61998371877301,2,n,0.484366300000147,correct,n
258,4F4K,258,2,50.430999077625344,29.2885782760976,1.4269452408527614,34.30019784484621,1,b,5.0,correct,v
259,4F4K,259,2,38.64598399725986,55.75858109886829,1.1168067140476134,57.7010967892894,2,b,1.1158523000003697,correct,b
260,4F4K,260,1,41.08066533795849,48.93177727569806,1.17480390002963,51.74408940837981,1,c,1.443651999999929,correct,c
261,4F4K,261,1,34.64481616732612,49.73786651373848,1.0276467903736837,52.46097032043799,1,c,1.097476099999767,correct,c
262,4F4K,262,2,30.426860084872757,39.73586248109864,0.9413517430853974,43.467797232402944,2,b,1.291630100000475,correct,b
263,4F4K,263,2,56.91579423983411,41.45086401138603,1.6329423147253637,45.01344624740235,1,v,2.0687490000000253,correct,v
264,4F4K,264,1,35.33972669464887,58.43334993239123,1.0426043619272722,59.94150223950355,1,c,1.2188491999995676,correct,c
265,4F4K,265,1,64.16041857055217,47.29402714466937,1.8984375704146603,50.28004936241421,2,n,0.8971489000005022,correct,n
266,4F4K,266,2,37.70292093475158,26.34791164995992,1.0951189853486425,31.858972402169204,1,v,2.0077794999997423,correct,v
267,4F4K,267,2,76.33230962135544,65.83069699372598,2.445228502047589,65.73885376340299,1,v,3.908753799999431,correct,v
268,4F4K,268,2,66.48740109278988,52.8707011013129,1.992558433040492,55.21652956828514,1,v,5.0,correct,v
269,4F4K,269,1,35.63493045776205,42.09312590468291,1.0490241664200357,45.593157381276114,1,c,1.1326762000007875,correct,c
270,4F4K,270,1,30.03690355488434,45.32130698182021,0.9337492645131816,48.50654233058615,1,c,1.5345440000000963,correct,c
271,4F4K,271,1,56.79290801588505,65.05814535454333,1.6287749070247994,65.16520126253927,1,n,1.2855397000002995,incorrect,c
272,4F4K,272,1,74.85352749863,62.64189258202447,2.3711810530961763,63.32024770873568,2,n,0.8910655999998198,correct,n
273,4F4K,273,1,62.39855536149877,43.48361211038294,1.8301433571675425,46.8486969537911,2,n,3.3686063999994076,correct,n
274,4F4K,274,2,65.03315724442798,81.10697354566388,1.933205115365838,75.12174166721029,2,v,2.3186986000000616,incorrect,b
275,4F4K,275,1,30.103967694856017,41.784827782613306,0.935052341899406,45.31484851518756,1,c,1.133870300000126,correct,c
276,4F4K,276,1,56.47798548624856,43.718314074153966,1.618143511490434,47.060591072145904,2,c,2.280909599999177,incorrect,n
277,4F4K,277,2,53.296020612422886,43.08045381071751,1.5145409838814885,46.48466886594433,1,v,3.3192869000004066,correct,v
278,4F4K,278,1,72.44470192893742,59.924574225733565,2.255333929657316,61.16080017066183,2,n,1.6086693999995987,correct,n
279,4F4K,279,2,51.031919068142685,34.93024357022503,1.4448879048534369,39.17904297332597,1,v,1.5101588999996238,correct,v
280,4F4K,280,2,39.8716710290273,52.58725884454158,1.145637109970672,54.96953394885186,2,v,0.7636204000000362,incorrect,b
281,4F4K,281,1,38.277902122439286,47.91569092527662,1.108291252952028,50.83684146212222,1,c,4.922071599999981,correct,c
282,4F4K,282,2,48.1879546883677,40.76200887261902,1.361916865496856,44.3921050446564,1,v,1.400883899999826,correct,v
283,4F4K,283,2,60.73143798806173,42.66600734995492,1.7677853877413707,46.110423954783066,1,b,1.2066795000000639,incorrect,v
284,4F4K,284,2,50.92121110212551,37.54842482029183,1.4415654434633558,41.50548302580308,1,v,0.8000849000000017,correct,v
285,4F4K,285,1,48.49903871116376,28.2193619009878,1.3707554040737628,33.4031517881887,2,c,1.1450697999998738,incorrect,n
286,4F4K,286,2,36.71760504329824,56.10781456509011,1.072909322640015,57.99720213809208,2,v,1.7457754999995814,incorrect,b
287,4F4K,287,2,60.03552774226952,48.54544307869234,1.7423878901581704,51.39958078736978,1,b,2.202669000000242,incorrect,v
288,4F4K,288,1,63.51885636290069,49.93238643015272,1.8732788767232549,52.63354161840511,2,n,3.8227083000001585,correct,n
289,4F4K,289,2,44.11299462282396,62.70792413846707,1.2512671463199971,63.37164715157397,2,v,1.7834120000006806,incorrect,b
290,4F4K,290,1,46.17035755049599,26.40892177662641,1.305960015375521,31.908761976901932,2,c,4.018004399999882,incorrect,n
291,4F4K,291,1,49.20408222748502,58.89725519608508,1.3910000452622748,60.3232432020956,1,n,1.3828061999993224,incorrect,c
292,4F4K,292,1,56.11497862828657,41.38148121971469,1.605974915466544,44.9508403221777,2,c,1.8925111000007746,incorrect,n
293,4F4K,293,2,75.4346536789811,55.2575406673168,2.400008658037708,57.27453368358629,1,b,3.464750200000708,incorrect,v
294,4F4K,294,2,55.97323308756587,37.73969131316816,1.601248248642378,41.67650397343944,1,v,5.0,incorrect,v
295,4F4K,295,1,58.10583645224541,46.16763034643774,1.6738556215524918,49.26845789341972,2,n,3.3686054999998305,correct,n
296,4F4K,296,2,64.97967251223115,52.590414541699786,1.9310562312693935,54.97228666594552,1,v,5.0,correct,v
297,4F4K,297,2,67.43025199026624,52.268421221365166,2.03201008132323,54.69109337603991,1,v,2.532057899999927,correct,v
298,4F4K,298,1,35.444132243001256,42.77730143121159,1.044870369491823,46.210922269956825,1,c,3.1268133000003218,correct,c
299,4F4K,299,2,57.40553252945215,76.25966442686625,1.6496568722591345,72.58617239891043,2,b,4.320523100000173,correct,b
300,4F4K,300,1,55.676584276216005,41.291215897903705,1.591401129746045,44.869398510037016,2,n,1.4549514999998792,correct,n
301,4F4K,301,2,43.39971936463121,55.83050799651321,1.23284513099205,57.762164453596014,2,v,1.2552408999999898,incorrect,b
302,4F4K,302,2,38.509767828696205,55.77557330265896,1.113647795263689,57.71552742452316,2,b,1.4798523999997997,correct,b
303,4F4K,303,2,64.18354537033903,47.94707178256407,1.8993507643288463,50.86491526289224,1,v,0.9518036999998003,correct,v
304,4F4K,304,2,32.81895161920504,18.52722005130382,0.9893607346019988,25.84018579040176,1,b,2.5127317999995284,incorrect,v
305,4F4K,305,2,59.98298569562076,48.72962522392125,1.740485229597145,51.56389396747373,1,v,3.7862682000004497,correct,v
306,4F4K,306,2,39.11214867966123,58.42961674840567,1.1276852573048413,59.938421609638176,2,b,2.9924873999998454,correct,b
307,4F4K,307,1,46.01300933902741,57.4010768206232,1.3016939441445112,59.084565298583485,1,c,5.0,correct,c
308,4F4K,308,1,60.10793076116787,45.8396463123773,1.7450131676059908,48.973347026084,2,n,1.2309935000002952,correct,n
309,4F4K,309,1,45.39453368356392,58.242844901269976,1.2850602578393568,59.7841232010852,1,c,5.0,correct,c
310,4F4K,310,1,71.23806893161861,57.63823000860559,2.199448876489529,59.28232868820774,2,c,1.2239857000004122,incorrect,n
311,4F4K,311,2,45.18516345330619,60.0029064495804,1.2794776119480018,61.2242086498903,2,v,3.701509100000294,incorrect,b
312,4F4K,312,1,28.96788126331776,40.258115622942896,0.9132213147937775,43.937996484248,1,c,2.8163515000005646,correct,c
313,4F4K,313,1,37.5881886103111,59.300561593967686,1.0925093738871097,60.65335643083311,1,c,2.361241699999482,correct,c
314,4F4K,314,2,34.66347655180949,52.49190154837961,1.0280456273696472,54.88632436362779,2,b,3.301097999999911,correct,b
315,4F4K,315,1,36.99634365474306,52.22798821020631,1.0791461842149783,54.65573878562379,1,c,3.260465899999872,correct,c
316,4F4K,316,2,48.999913558492366,65.80305479930335,1.385106978378036,65.71846956578389,2,v,2.250534499999958,incorrect,b
317,4F4K,317,1,62.4255768196136,49.4785771376361,1.831171995313879,52.23067614222536,2,n,2.062405600000602,correct,n
318,4F4K,318,1,73.9340057846791,63.68306953648626,2.3262726116793675,64.12441708938356,2,n,1.6062953999999081,correct,n
319,4F4K,319,2,42.40523078583027,58.08408514100896,1.2076119376623315,59.65270017867165,2,v,1.8196689999995215,incorrect,b
320,4F4K,320,2,42.58865656399209,56.56162747032294,1.2122268451208549,58.3804369538298,2,b,1.8924378000001525,correct,b
321,4F4K,321,1,50.29414492864444,35.28003272986561,1.4228902098405802,39.48807134060229,2,n,5.0,correct,n
322,4F4K,322,2,42.19308657913005,52.75297059117621,1.2022963936881612,55.11399956310027,2,v,4.8676635000001625,incorrect,b
323,4F4K,323,1,57.27388916563383,43.16356900471102,1.645147199653353,46.55972031391582,2,c,2.7010811000000103,incorrect,n
324,4F4K,324,1,36.48377904949049,54.67204557236998,1.067705204802186,56.77355680638709,1,c,2.518991400000232,correct,c
325,4F4K,325,1,78.46604905265852,61.23934162236996,2.5561658975554065,62.21618637381149,2,n,1.102640699999938,correct,n
326,4F4K,326,1,47.26023064717472,29.406728157324583,1.3358952792015568,34.39994098845836,2,c,2.470443499999419,incorrect,n
327,4F4K,327,2,35.15367564943503,49.329234837995145,1.038578503169284,52.09790235588658,2,b,1.3757435999996233,correct,b
328,4F4K,328,1,40.31663288182393,56.746658004405326,1.1562865634540374,58.53617968481679,1,c,3.314003800000137,correct,c
329,4F4K,329,1,61.5908182916276,47.05588491915002,1.7996602207917054,50.06645352550707,2,n,1.1630886000002647,correct,n
330,4F4K,330,1,65.09960365170078,50.38710799650459,1.935878098541244,53.03626967470088,2,n,1.2665112000004228,correct,n
331,4F4K,331,2,31.993522225179905,46.29404914901295,0.972523938116186,49.38214527841609,2,v,1.704351599999427,incorrect,b
332,4F4K,332,1,53.60958979611438,39.60993970323837,1.5244487967747484,43.3545049309086,2,n,0.9398900999995021,correct,n
333,4F4K,333,2,63.343090193266285,50.45478036588586,1.8664446242490207,53.09611955832069,1,b,0.7515275000005204,incorrect,v
334,4F4K,334,2,35.99100593014403,59.418039715188414,1.056820368741731,60.74920029413509,2,v,1.2543327000003046,incorrect,b
335,4F4K,335,1,46.51370252703446,33.17274120445112,1.3153174881714365,37.63638841943965,2,c,2.068810300000223,incorrect,n
336,4F4K,336,2,40.69066693740996,55.074288489719855,1.1653150169986364,57.11802062252803,2,b,1.4860091000000466,correct,b
337,4F4K,337,2,44.85906001968935,61.5739527322259,1.2708306587798952,62.48168363309815,2,v,1.8014337000004161,incorrect,b
338,4F4K,338,1,45.1230365990363,26.821354641428176,1.2778257328021323,32.24634428435461,2,c,1.5829469000000245,incorrect,n
339,4F4K,339,2,43.7945559670595,22.992450073488715,1.2430089455113225,29.183572361606416,1,b,2.4884907000005114,incorrect,v
340,4F4K,340,1,40.226433525478924,52.69664261618925,1.154119815444895,55.06491295655718,1,n,2.949876800000311,incorrect,c
341,4F4K,341,2,47.874500908734056,65.78385665525688,1.3530686394574232,65.70430604229395,2,v,1.3040490000003047,incorrect,b
342,4F4K,342,1,35.26061260045771,46.60551980899265,1.0408905509249382,49.66209279433211,1,n,1.1581595999996352,incorrect,c
343,4F4K,343,1,52.74278759912773,72.16811144309114,1.4972173046899038,70.11234730448341,1,c,3.011652899999717,correct,c
344,4F4K,344,1,58.01807688982707,47.99829837714935,1.6708037732219982,50.91073635409182,2,n,2.069738000000143,correct,n
345,4F4K,345,1,44.27187247742212,33.32687173337119,1.2554078840796183,37.77095588119879,2,c,1.1277834999991683,incorrect,n
346,4F4K,346,1,39.84649886570691,52.7858126763685,1.1450375941185915,55.14261024080717,1,c,2.0674473999997645,correct,c
347,4F4K,347,2,58.59868230884034,71.5367319034002,1.6910982369844756,69.70498870115999,2,b,2.123097300000154,correct,b
348,4F4K,348,2,65.04827751893573,47.449943345270334,1.9338130440058896,50.41980639777845,1,v,2.7853726000003007,correct,v
349,4F4K,349,1,61.60567849169561,51.27135030926231,1.8002164182395477,53.816466173678734,2,c,3.0396882000004553,incorrect,n
350,4F4K,350,2,34.205506375529936,45.2896292547744,1.0183017905388354,48.47799916368013,2,v,4.914923799999997,incorrect,b
351,4F4K,351,1,31.911715729143367,41.86905195119981,0.9708709662334016,45.39087410035823,1,n,3.76921990000028,incorrect,c
352,4F4K,352,2,35.4562517407887,52.55096078060114,1.0451337286826945,54.93786663746132,2,b,2.488624399999935,correct,b
353,4F4K,353,1,65.88451124121805,46.88653143839597,1.9677341747928667,49.9144612169256,2,c,2.361201599999731,incorrect,n
354,4F4K,354,2,51.66717992798468,67.2493644234949,1.4641013221703545,66.77056528066784,2,v,2.3793636999998853,incorrect,b
355,4F4K,355,1,48.80268540320941,37.20444089962147,1.3794379494087503,41.19823055113259,2,c,5.0,incorrect,n
356,4F4K,356,2,57.45882478316027,74.52399232120801,1.651486004411671,71.57263768201572,2,v,1.3038563000000067,incorrect,b
357,4F4K,357,1,44.23968255091499,29.81406955186265,1.2545678320049032,34.744731366798995,2,c,1.267384900000252,incorrect,n
358,4F4K,358,1,72.3734445867942,64.92395627214137,2.251994552520031,65.06473419730686,2,c,1.3038234000005104,incorrect,n
359,4F4K,359,1,44.602714318346266,34.78483366263414,1.2640744441675116,39.050760702771605,2,c,1.601249700000153,incorrect,n
360,4F4K,360,1,43.41279611464434,36.91698067211104,1.2331804159811612,40.941798305720674,2,n,1.1399255999995148,correct,n
361,4F4K,361,1,48.25890445335307,63.54295201153844,1.36392766460792,64.01698674863094,1,c,1.8437119000000166,correct,c
362,4F4K,362,1,65.93260231799023,56.89675991711971,1.969702944036748,58.662300913314,2,n,0.9396745999993072,correct,n
363,4F4K,363,2,52.95079887068526,46.4862940303082,1.5037075038761196,49.5549604684001,1,v,1.9585648000002038,correct,v
364,4F4K,364,2,61.489311503127965,44.586661338163125,1.7958655504543524,47.84421896624734,1,b,2.846733399999721,incorrect,v
365,4F4K,365,2,31.58197293850379,47.08745426429652,0.9642366609462548,50.09477798123496,2,b,1.3280748999995922,correct,b
366,4F4K,366,1,54.157890909212526,31.272720499606592,1.5419294180499517,35.990409385857866,2,c,1.94119690000025,incorrect,n
367,4F4K,367,1,62.95947344465717,48.155103438034814,1.8516150618943543,51.05094021752589,2,n,3.1926236999997855,correct,n
368,4F4K,368,1,36.67775399582096,56.385060459182455,1.0720205932488471,58.23154008915932,1,n,1.8414889000005132,incorrect,c
369,4F4K,369,2,66.05449494577343,52.51791882291773,1.9747018550501407,54.90903287915346,1,v,2.664637099999709,correct,v
370,4F4K,370,1,47.35111200058925,57.35398452690031,1.33842227402174,59.045232888865925,1,c,5.0,correct,c
371,4F4K,371,2,38.039521296361805,49.18381664283618,1.102811058233835,51.96852729512474,2,b,4.175810199999432,correct,b
372,4F4K,372,2,33.54948577170795,53.20439035355115,1.0045048801983767,55.506646611387865,2,b,4.758429999999862,correct,b
373,4F4K,373,1,40.046033571953885,44.6852108707949,1.149798462860156,47.93310782435002,1,c,4.672008900000037,correct,c
374,4F4K,374,2,38.57905258433575,57.15640527711978,1.115253424089305,58.87998965065087,2,b,1.9776962999994794,correct,b
375,4F4K,375,2,30.44163901777709,50.47523032950157,0.9416410830737116,53.1142012159691,2,v,3.7388725000000704,incorrect,b
376,4F4K,376,1,43.952736485769016,60.69724143516465,1.2471042709327764,61.78335226368425,1,c,5.0,incorrect,c
377,4F4K,377,1,60.90954625844647,46.25023021677072,1.7743447985168668,49.342743261322255,2,c,2.749578300000394,incorrect,n
378,4F4K,378,1,59.08291917339748,47.32549215769012,1.7082126411348502,50.30825907359505,2,c,1.2672752999997101,incorrect,n
379,4F4K,379,1,40.40260182360608,48.82016977486208,1.1583554754699985,51.64462367381176,1,c,5.0,incorrect,c
380,4F4K,380,2,38.01049122617846,50.870487649660944,1.1021455325251133,53.46327215023463,2,v,1.7104127000002336,incorrect,b
381,4F4K,381,1,42.41166230441316,57.68511546591592,1.2077734540837,59.321364740757375,1,c,5.0,incorrect,c
382,4F4K,382,1,51.03638338974906,39.145793726374194,1.445022044297861,42.93721422190106,2,c,1.6075878000001467,incorrect,n
383,4F4K,383,1,37.72094026648567,50.655604703430825,1.0955294049294602,53.2735965304993,1,c,5.0,incorrect,c
384,4F4K,384,2,48.61573063161353,34.38294492477105,1.3740856360985394,38.69679001587938,1,v,1.0489377000003515,correct,v
385,4F4K,385,2,36.96917736285887,54.61563856590634,1.078536738966351,56.72515353445916,2,b,1.4251601000005394,correct,b
386,4F4K,386,2,48.2800792771635,57.82531248569262,1.3645283588606958,59.43796724843884,2,v,0.630333399999472,incorrect,b
387,4F4K,387,2,35.089585425413674,43.70461320799237,1.0371952920530196,47.048222396668656,2,b,1.9473197999996046,correct,b
388,4F4K,388,2,40.14817398001496,57.07434927644862,1.1522431726945843,58.81125878072048,2,b,1.9667454000000362,correct,b
389,4F4K,389,2,63.18655557192479,74.55144032008535,1.8603791383196568,71.58908397647677,2,v,1.0367729999998119,incorrect,b
390,4F4K,390,2,54.468722542143226,31.738319391960665,1.551928053186732,36.39144139288916,1,b,1.1763511999997718,incorrect,v
391,4F4K,391,1,65.17778744308909,49.48228539656442,1.9390279823353915,52.23397178490323,2,c,1.716489399999773,incorrect,n
392,4F4K,392,2,53.38302736824942,41.213394502043485,1.5172836545075137,44.79919088556056,1,v,2.1534623999996256,correct,v
393,4F4K,393,2,26.94472637915412,41.57300102295244,0.8755987447351182,45.12366429814798,2,b,1.4676551000002291,correct,b
394,4F4K,394,2,56.773727891517616,38.90895564018463,1.6281254168276482,42.7244814377656,1,v,2.863815099999556,correct,v
395,4F4K,395,2,58.68900106092033,47.32294618021062,1.6942773163819755,50.3059766042175,1,b,2.5482934999999998,incorrect,v
396,4F4K,396,2,61.10614991795405,48.46004991953563,1.781613626431091,51.32335677489463,1,v,1.966681800000515,correct,v
397,4F4K,397,1,37.93976670862146,29.592112727400743,1.1005258259689197,34.55668451945102,2,c,1.4193289999993794,incorrect,n
398,4F4K,398,1,50.60978262439562,31.53848466358776,1.4322600675770785,36.2191257443536,2,n,2.074533799999699,correct,n
399,4F4K,399,2,70.28015920992245,58.32428842158446,2.156071133139596,59.85144823929769,1,v,4.624891100000241,correct,v
400,4F4K,400,2,44.74889565815469,33.20124405127213,1.267922767437046,37.6612624341326,1,b,2.537251099999594,incorrect,v
