,condition,trial,sub_task,x,y,xt,yt,cat,resp,rt,acc,correct_resp
0,2F4K,1,1,52.50079650615082,40.94011788526082,1.48970213667577,44.5784236919482,2,c,3.3807595000000674,incorrect,n
1,2F4K,2,1,38.04773273780692,25.109129795852738,1.102999381642893,31.004415341064743,2,n,2.9922626999998556,correct,n
2,2F4K,3,2,46.39421659264842,60.93518928860068,1.3120534541764808,61.84408796659977,2,v,3.503467799999953,incorrect,b
3,2F4K,4,1,52.36975675218062,38.27021274839568,1.485648380191451,42.19862888881349,2,n,2.4218516999999338,correct,n
4,2F4K,5,2,28.514485555314145,47.17413384019362,0.9046518345330776,50.14813018207319,2,b,2.707141800000045,correct,b
5,2F4K,6,1,61.58790197900274,51.11871273525691,1.7995510872768958,53.62637492265978,2,n,1.9531588999998348,correct,n
6,2F4K,7,2,57.83897560000864,42.34689249695212,1.664592760701704,45.83667180656877,1,b,2.02138089999994,incorrect,v
7,2F4K,8,1,41.3615024107884,32.76300081327048,1.1816846417458675,37.36997143066801,2,n,1.5587214999998196,correct,n
8,2F4K,9,2,45.51142563580815,57.69550999881356,1.2881876529083764,59.22393695653562,2,b,1.3654219999998531,correct,b
9,2F4K,10,2,69.2219093570352,57.445331890389646,2.109143537218717,59.017289752191225,1,b,2.5189730000001873,incorrect,v
10,2F4K,11,2,59.15138227991164,43.46043496313612,1.7106462704430516,46.833198945705696,1,v,2.452271600000131,correct,v
11,2F4K,12,1,46.5853171376625,39.00471730288446,1.317277697075059,42.85173802871778,2,n,2.331722799999852,correct,n
12,2F4K,13,1,54.30096623538006,36.46579148373336,1.5465237478173877,40.60146766494317,2,n,1.0913884999999937,correct,n
13,2F4K,14,1,27.535619329726345,48.710459596988045,0.8864238352001371,51.51014099137701,1,c,2.3065884000000096,correct,c
14,2F4K,15,2,44.97028505617701,37.8443297632134,1.273773313347837,41.82065564595515,1,v,1.7459481000000778,correct,v
15,2F4K,16,2,41.84965704813053,56.0612388942678,1.1937408801866778,57.86393055029462,2,v,1.3031549999998333,incorrect,b
16,2F4K,17,2,55.51825777641098,49.09006199609058,1.5861703640214933,51.84539203183195,1,b,1.297763100000111,incorrect,v
17,2F4K,18,2,64.07884447592892,58.95839562311156,1.8952200078049704,60.258008904625335,1,v,0.7033641000000443,correct,v
18,2F4K,19,1,56.9716102079646,62.913168558104445,1.634838706572188,63.38752126916356,1,n,1.7225950999998076,incorrect,c
19,2F4K,20,2,48.8474793474168,64.52304960087974,1.380723444642098,64.60860646612026,2,v,1.0791309999999612,incorrect,b
20,2F4K,21,2,54.89402570841918,70.1309113874824,1.5657140687951956,68.58421112301592,2,b,0.8968413000000055,correct,b
21,2F4K,22,1,28.567209632804943,49.095763287905456,0.9056442082840468,51.85042288798368,1,c,0.6970124000001761,correct,c
22,2F4K,23,1,48.125327974633485,60.07508402772968,1.3601444147331172,61.1590825822204,1,n,0.4480848999999125,incorrect,c
23,2F4K,24,2,39.03966667620539,49.27834521203625,1.1259868667739363,52.011464701728045,2,v,0.5148695000000316,incorrect,b
24,2F4K,25,2,40.74682441983137,65.7818310799952,1.1666766224756115,65.5398922712493,2,b,1.431225700000141,correct,b
25,2F4K,26,2,59.34987858134102,45.45885114815878,1.71772175126316,48.61980735176483,1,b,0.6544006999999965,incorrect,v
26,2F4K,27,2,57.77957485385204,38.43285428694752,1.6625379187476828,42.34311834819635,1,v,1.4496761000000333,correct,v
27,2F4K,28,1,39.07217111600939,51.94227046130836,1.1267481907496406,54.3434696569952,1,c,1.5834548000000268,correct,c
28,2F4K,29,2,44.03582948042525,34.81928956142894,1.2492609680098394,39.15566847871802,1,b,3.7813770999998724,incorrect,v
29,2F4K,30,1,33.05096100887173,52.30619009988726,0.9941454377179172,54.65911025265917,1,c,1.1338920000000599,correct,c
30,2F4K,31,2,53.90275053978434,61.56799745852424,1.5337703824910227,62.342822704386855,2,b,1.4130560999999489,correct,b
31,2F4K,32,2,46.11709525501858,57.70324314764804,1.3045143892287567,59.23031531465271,2,b,3.1198587999999745,correct,b
32,2F4K,33,1,71.70874653162693,58.43839550182216,2.221081598649814,59.83409534733612,2,n,1.9038141999999425,correct,n
33,2F4K,34,1,55.21406361389268,39.65147067650687,1.5761686467612512,43.427939577333575,2,n,1.303046699999868,correct,n
34,2F4K,35,1,35.30901166949727,49.20066002326986,1.0419386621006836,51.94296102910409,1,n,1.2188497000001917,incorrect,c
35,2F4K,36,2,32.06782194024588,53.82671577922812,0.9740276675613636,55.968927409088806,2,b,3.0833956999999828,correct,b
36,2F4K,37,1,37.6920823875364,24.81079057991097,1.094872193871335,30.767623615416564,2,n,1.3159339000001182,correct,n
37,2F4K,38,2,60.4609426290978,69.95667478392804,1.7578698736088172,68.46772630995545,2,b,3.9018353999999817,correct,b
38,2F4K,39,1,45.36005887843892,54.55919805743354,1.2841393495792324,56.59428318912438,1,n,3.115190999999868,incorrect,c
39,2F4K,40,1,75.6573973975869,60.91660760219664,2.4111508635942625,61.82937502798525,2,n,0.9941656999999395,correct,n
40,2F4K,41,1,70.70781959836572,59.91698328266612,2.175330470338749,61.03229867947692,2,n,1.242916599999944,correct,n
41,2F4K,42,1,62.86694278162224,53.09921038624852,1.848055755750831,55.34411580351944,2,n,1.504088000000138,correct,n
42,2F4K,43,1,60.308346554266926,46.02431381412912,1.7523007360668852,49.1243424756086,2,n,1.4373346999998375,correct,n
43,2F4K,44,2,45.12239008075469,59.94131183334183,1.277808553867147,61.05182546267919,2,v,1.2846425000000181,incorrect,b
44,2F4K,45,1,36.82088922432247,45.06702461759272,1.0752161229596893,48.26987701881372,1,c,2.2503205000000435,correct,c
45,2F4K,46,1,41.909814910386274,58.97079223694107,1.19523512186405,60.26808206843248,1,n,2.943866500000013,incorrect,c
46,2F4K,47,1,41.94097580597883,49.20854754978819,1.196009852457787,51.949917466878354,1,n,0.9882176000000982,incorrect,c
47,2F4K,48,2,56.522576282114045,37.49016183081888,1.619644613957568,41.50677413590645,1,b,0.9821254999999383,incorrect,v
48,2F4K,49,1,43.154976126062834,33.0023830828078,1.2265867602708618,37.576556689486885,2,n,1.6560191000000941,correct,n
49,2F4K,50,2,73.96814184351604,57.6397483864129,2.3279244778171693,59.17792792354428,1,b,2.124509900000021,incorrect,v
50,2F4K,51,1,55.92806034605844,42.06597204811108,1.5997448371260834,45.58530104737318,2,c,1.6922152999998161,incorrect,n
51,2F4K,52,1,58.24489673149794,45.10044796335247,1.6787028766850856,48.29973566639882,2,n,0.5077751999999691,correct,n
52,2F4K,53,2,34.980693568249805,22.476870145749803,1.0348493836309784,28.95053523977797,1,b,1.0600529000000734,incorrect,v
53,2F4K,54,2,69.52568220683055,53.687466361232566,2.1225086984087578,55.84961268759538,1,v,1.0480396000000383,correct,v
54,2F4K,55,2,42.93819866716672,62.47319979611143,1.2210700442412523,63.04820012827854,2,b,1.4548466999999619,correct,b
55,2F4K,56,2,34.856042987334995,55.41677989431267,1.0321704902078073,57.32136430280338,2,b,1.243086200000107,correct,b
56,2F4K,57,1,56.77495936114404,51.55363372807907,1.6281671098940365,54.005542351107046,2,n,2.5128012999998646,correct,n
57,2F4K,58,2,51.52727453958312,35.0499043604073,1.4598480741604831,39.35739540290116,1,b,2.731408500000043,incorrect,v
58,2F4K,59,2,51.752862257518295,68.21886439606129,1.46671225720542,67.28027486672498,2,b,1.4328267999999298,correct,b
59,2F4K,60,2,49.50672904335443,60.87884810526695,1.3997817184810133,61.79946529569804,2,v,0.5816299999999046,incorrect,b
60,2F4K,61,2,43.992868951241526,34.25077207160744,1.2481454526939462,38.65955262266548,1,b,0.6126672000000326,incorrect,v
61,2F4K,62,2,43.15201604067545,63.74520405497563,1.2265112621988297,64.0227116617122,2,v,0.3280836999999792,incorrect,b
62,2F4K,63,1,46.28907212513285,61.717093689105134,1.3091878910338894,62.45966471392574,1,n,1.0912783999999647,incorrect,c
63,2F4K,64,1,67.92742291742238,57.04042662537708,2.0531267391755077,58.68162816891573,2,c,2.3551586000000952,incorrect,n
64,2F4K,65,1,28.271427241122996,41.706918823609854,0.9000910284211432,45.26407694600699,1,c,2.111243399999921,correct,c
65,2F4K,66,1,70.56147748277714,54.892323314262725,2.168720786975832,56.87738532098851,2,n,0.860888500000101,correct,n
66,2F4K,67,1,66.20217649564488,42.31611141317341,1.9807753896608151,45.809127018989706,2,n,1.0123261999999613,correct,n
67,2F4K,68,1,53.82251530459351,34.892003211989376,1.531213504851884,39.21924446784831,2,n,1.728632399999924,correct,n
68,2F4K,69,1,59.97951430844804,49.28680162956035,1.7403595963926413,52.01892016685834,2,n,1.2552666999999929,correct,n
69,2F4K,70,2,43.53237476218768,32.02927738452819,1.2362506185825044,36.73910705178391,1,b,1.582349099999874,incorrect,v
70,2F4K,71,2,61.9297463706334,47.02846999825661,1.8123886876092523,50.01861605410664,1,v,2.2693111000000954,correct,v
71,2F4K,72,1,32.592731689938525,43.20046817565133,0.9847176011747628,46.60056090945412,1,c,1.6549591000000419,correct,c
72,2F4K,73,2,24.490266174492653,45.32072931539986,0.8320303070683028,48.49648171397352,2,b,4.775263499999937,correct,b
73,2F4K,74,2,38.09094668879263,52.85388039702264,1.103990992115481,55.13262554651934,2,v,1.7893487999999707,incorrect,b
74,2F4K,75,1,45.36086066820757,62.761814395130926,1.2841607598914488,63.27105579383917,1,n,5.0,incorrect,c
75,2F4K,76,1,66.0056514010419,48.54686360138358,1.9726972219708776,51.36548947320855,2,n,1.188530000000128,correct,n
76,2F4K,77,1,67.57941729558712,49.04270166355624,2.0383227663118086,51.80359594545568,2,n,0.7151273000001765,correct,n
77,2F4K,78,2,68.61857082467174,60.15555059592173,2.082847372093227,61.22350795366732,1,v,1.4617885999998634,correct,v
78,2F4K,79,1,62.14603714897616,42.55270413824822,1.8205585187107376,46.02085171018019,2,n,0.751525700000002,correct,n
79,2F4K,80,2,43.88278739120428,29.22763054783696,1.2452916133746128,34.36641278989732,1,b,2.822497099999964,incorrect,v
80,2F4K,81,1,40.34235571973611,48.34427478176955,1.1569052166078215,51.18622491081159,1,n,2.531582399999934,incorrect,c
81,2F4K,82,1,49.80656264175718,36.31210524662262,1.4085364315507771,40.46600000025622,2,n,0.8183915000001889,correct,n
82,2F4K,83,2,43.458161007187314,27.298098666358257,1.2343442688471595,32.77068167638876,1,v,2.1852364000001216,correct,v
83,2F4K,84,1,57.64165697944193,69.16418967289104,1.6577767210173413,67.93194772941023,1,n,0.9093417999999929,incorrect,c
84,2F4K,85,1,53.74690728108737,68.57015033361974,1.5288079847402325,67.52401261563261,1,c,0.7455061999999089,correct,c
85,2F4K,86,2,56.7566174507856,48.67244385796931,1.627546230222788,51.476536382238,1,v,1.1156839000000218,correct,v
86,2F4K,87,2,59.29221050765928,45.44610390648561,1.7156631387690675,48.608426966375,1,v,1.3165318999999727,correct,v
87,2F4K,88,1,60.0525237240177,72.03803250616203,1.7430037963392426,69.82746670484786,1,c,1.1823354999999083,correct,c
88,2F4K,89,1,36.40146293999223,51.50056263316253,1.0658791606654303,53.95932993037093,1,c,1.837862800000039,correct,c
89,2F4K,90,1,43.11167713773514,58.05522314688451,1.225482866613803,59.52003782061452,1,c,0.9391590999998698,correct,c
90,2F4K,91,2,62.05055021816192,41.399181878168456,1.8169472134706333,44.98883774411205,1,v,1.4008679000000939,correct,v
91,2F4K,92,1,38.52636595316552,44.94781069348016,1.1140322352424352,48.16336477945153,1,c,2.2711592999999084,correct,c
92,2F4K,93,1,66.1600859409457,49.60460399951824,1.9790424774877065,52.29888775447558,2,n,1.328091699999959,correct,n
93,2F4K,94,2,26.721511655125354,42.92464001285529,0.8715439660037932,46.353712748936935,2,b,2.141258000000107,correct,b
94,2F4K,95,1,62.5426336650319,52.05678468824032,1.835634732804388,54.44287633655918,2,n,0.9760722999999416,correct,n
95,2F4K,96,2,45.03500375851818,60.89968333343544,1.2754886956660754,61.81597108203648,2,b,2.1963230999999723,correct,b
96,2F4K,97,2,34.17432482843729,45.86073557793607,1.01764173559048,48.97845159636997,2,b,1.0307070999999723,correct,b
97,2F4K,98,2,47.32131129108952,35.83294625787693,1.3375931262869536,40.04429095159288,1,v,0.7022178999998232,correct,v
98,2F4K,99,2,59.51762792697498,48.54323978332171,1.7237240561212763,51.36228417413899,1,v,0.8365071999999145,correct,v
99,2F4K,100,1,53.04852021564578,36.34465553821421,1.506766231807353,40.49468343235057,2,n,1.0184705000001486,correct,n
100,2F4K,101,1,47.63466051353848,31.497569516379905,1.346337224893336,36.28424149811539,2,n,0.6541849000000184,correct,n
101,2F4K,102,1,34.327837088132995,45.89786137291466,1.0208954396683,49.01156771709718,1,c,1.0610798999998678,correct,c
102,2F4K,103,1,66.16826189834612,46.08688387955911,1.979378971522947,49.18013265354602,2,n,0.891151900000068,correct,n
103,2F4K,104,1,48.08934201585804,38.7371878594545,1.359126989899802,42.61368656824244,2,n,0.7455115999998725,correct,n
104,2F4K,105,1,62.29601789228542,41.97686571382893,1.8262452704236292,45.50557545897057,2,n,0.8671656000001349,correct,n
105,2F4K,106,2,63.73749142809066,71.55053809829502,1.8818149194021083,69.51527843497809,2,b,1.777212400000053,correct,b
106,2F4K,107,1,67.9681991639284,53.690248696353954,2.054868360995086,55.85199802217165,2,n,1.3402041000001645,correct,n
107,2F4K,108,1,57.70329871640642,40.48844476836821,1.6599030281227782,44.1748718876154,2,n,0.544382300000052,correct,n
108,2F4K,109,1,50.98721593367393,67.56857242748534,1.4435453964648102,66.82424068127125,1,c,0.9148690999998053,correct,c
109,2F4K,110,1,41.92452612410035,58.04506736721687,1.1956008134738036,59.5116947566011,1,c,0.6544334000000163,correct,c
110,2F4K,111,2,47.04596835963832,62.77767851081999,1.3299564923714473,63.28327615534368,2,b,1.624563500000022,correct,b
111,2F4K,112,2,53.18251455590402,40.72214807132374,1.5109704401954962,44.38364116548641,1,v,0.8297697999998945,correct,v
112,2F4K,113,2,65.4756458030966,54.03725426193044,1.9510751857930453,56.14906819808791,1,v,1.3887687999999798,correct,v
113,2F4K,114,2,46.9645103309367,67.39429002344299,1.3277056230714814,66.70096745360776,2,b,1.1763822000000346,correct,b
114,2F4K,115,2,59.018624852924326,70.16804116197424,1.7059303503729235,68.60897230078974,2,b,2.061362899999949,correct,b
115,2F4K,116,2,72.7042833193102,55.18942091448491,2.267540784427287,57.12915659738552,1,b,0.8607929999998305,incorrect,v
116,2F4K,117,1,45.25045826451422,53.367776224729816,1.2812160248885769,55.57518609693642,1,n,1.716494799999964,incorrect,c
117,2F4K,118,2,53.639640976925634,62.84691065755349,1.525401717561958,63.33657085942979,2,b,1.467618399999992,correct,b
118,2F4K,119,2,72.21392528335599,57.14274791829295,2.244536813288968,58.76659080851855,1,v,1.1340876999997818,correct,v
119,2F4K,120,1,41.49180160268878,49.69369512537783,1.184890752504402,52.37729473199862,1,n,2.6282734000001255,incorrect,c
120,2F4K,121,1,45.62661688521199,33.634668672093,1.2912769920072538,38.12392508010467,2,c,3.1376248999999916,incorrect,n
121,2F4K,122,1,57.44602535741255,42.62868164338565,1.6510465090411552,46.08884604281262,2,n,1.1822761999997056,correct,n
122,2F4K,123,2,47.40060657094416,60.69930607128585,1.3398005016111108,61.657031606162285,2,b,2.585736199999701,correct,b
123,2F4K,124,2,59.85396498551762,73.05809156224713,1.7358219223610103,70.46793378106048,2,b,1.0974739000002955,correct,b
124,2F4K,125,2,41.916442825070895,54.08515752377444,1.1953998648373718,56.19001138199135,2,b,0.7263706000003367,correct,b
125,2F4K,126,1,44.17157960928425,50.07691448924142,1.252792419577298,52.7141537213845,1,n,1.3334360999997443,incorrect,c
126,2F4K,127,2,54.11030223020497,35.74576636687169,1.5404043121784294,39.96767306169615,1,v,1.6921704999999747,correct,v
127,2F4K,128,2,36.254752689974886,51.17633223797534,1.0626323807567268,53.67666669878255,2,b,1.8257313999997677,correct,b
128,2F4K,129,1,63.253924742352886,51.69983393391191,1.862987174511256,54.13276692835233,2,n,1.0172841000003245,correct,n
129,2F4K,130,2,39.56794476209119,59.96396718477381,1.1384242848564552,61.07000365159077,2,b,1.934971399999995,correct,b
130,2F4K,131,1,34.82398350418643,52.299096331657154,1.0314826145901712,54.65296511349021,1,c,1.1823206000003665,correct,c
131,2F4K,132,1,63.46581710472144,54.578828540685485,1.8712139382358928,56.61098895952996,2,n,0.890359399999852,correct,n
132,2F4K,133,1,48.83854056174833,60.168528877766775,1.3804668240060938,61.23389249639929,1,n,0.7211834999998246,incorrect,c
133,2F4K,134,2,50.02069701802306,34.906362909210245,1.414822345982449,39.23180283408658,1,b,0.7997005000001991,incorrect,v
134,2F4K,135,1,61.681194889638334,44.3227059132393,1.8030455536562584,47.60457285067584,2,n,1.4312537999999222,correct,n
135,2F4K,136,1,71.77391163625717,56.547606033742326,2.2240933603746056,58.27111808188312,2,c,1.7035395000002609,incorrect,n
136,2F4K,137,1,43.8093534755789,51.37560144680829,1.2433914851009955,53.85045680151708,1,c,1.7884645999997701,correct,c
137,2F4K,138,1,32.34921963582156,50.024405101000006,0.9797438989775769,52.66803617049227,1,c,0.8731871999998475,correct,c
138,2F4K,139,1,32.3328672288629,50.99578264548634,0.9794108047290354,53.519019807319104,1,c,0.7697240000002239,correct,c
139,2F4K,140,2,30.0056890358806,50.51484933955022,0.9331433760325047,53.09827322236198,2,b,2.640382000000045,correct,b
140,2F4K,141,1,68.78218167627048,51.381930972175816,2.089945686858739,53.85597349376658,2,n,0.994179400000121,correct,n
141,2F4K,142,2,41.57036033711847,52.17716149133385,1.186827951702197,54.54728900922716,2,v,2.548413000000437,incorrect,b
142,2F4K,143,2,54.898267626330906,67.50036847259992,1.5658521837113055,66.77605134915962,2,b,1.3826913999996577,correct,b
143,2F4K,144,1,59.86561223731039,43.66234338603577,1.7362423855139013,47.01386433056935,2,n,1.2058689000000413,correct,n
144,2F4K,145,1,47.00193037657497,51.49613002651661,1.3287391500138854,53.95546946785561,1,c,1.2120695000003252,correct,c
145,2F4K,146,2,56.581700869763694,74.44603561466874,1.621637128836955,71.31100767190202,2,b,1.650320400000055,correct,b
146,2F4K,147,2,66.94879588092992,56.93010752605397,2.011767909882144,58.58992001587599,1,b,3.2775996999998824,incorrect,v
147,2F4K,148,1,48.4665118559878,52.29004242831121,1.3698285702096669,54.64512152154746,1,n,1.4797733999998854,incorrect,c
148,2F4K,149,1,55.540395288182864,43.09623368358901,1.5869007044077057,46.50727911169999,2,n,0.9764189999996233,correct,n
149,2F4K,150,1,68.1823982971092,52.11635117991796,2.064041458177193,54.49455395696487,2,n,0.9214483000000655,correct,n
150,2F4K,151,2,50.10631039927548,34.740917981449485,1.417343369611141,39.08717608319552,1,v,1.6618398999999044,correct,v
151,2F4K,152,2,50.342889570643365,40.892499254505225,1.424333205798875,44.535865396823326,1,v,0.8976345000000947,correct,v
152,2F4K,153,1,41.84983290888722,53.17224804464183,1.1937452456115056,55.40700349418592,1,n,1.6376012999999148,incorrect,c
153,2F4K,154,1,62.2891089584588,37.89111185097592,1.8259829176521232,41.86214721748932,2,n,0.8124494999997296,correct,n
154,2F4K,155,2,67.64144053562559,54.49012210227004,2.040953362663997,56.53547603294232,1,v,1.8317799000001287,correct,v
155,2F4K,156,2,41.4888282916323,28.505544588577465,1.1848174950293526,33.765274465684634,1,v,1.5820974000002934,correct,v
156,2F4K,157,1,46.97862250193921,37.00348171037255,1.3280953012307029,41.07616695744328,2,n,1.8247261000001345,correct,n
157,2F4K,158,1,44.80302160472144,52.46735100980143,1.2693506399931225,54.79863731767893,1,c,1.084567099999731,correct,c
158,2F4K,159,1,36.45157830018368,55.00348057540031,1.066990513230376,56.97166367288698,1,c,1.9100586000004114,correct,c
159,2F4K,160,1,58.71489985635549,71.73329736292486,1.6951900157029491,69.6327739301333,1,n,2.7314531000001807,incorrect,c
160,2F4K,161,2,64.99508715573951,49.8954633107134,1.931675308352087,52.55473648389114,1,v,2.823636500000248,correct,v
161,2F4K,162,1,60.807974221103294,46.25137364904687,1.770601104594166,49.32675947787377,2,n,1.8014498000002277,correct,n
162,2F4K,163,2,59.652770058009104,69.34224930958999,1.728574880949754,68.05317509428653,2,b,1.740752799999882,correct,b
163,2F4K,164,2,58.12545475315312,44.5822814025172,1.6745386120965142,47.836665860900034,1,v,0.9093050000001313,correct,v
164,2F4K,165,1,28.470121671546934,49.74548217126556,0.903817659023582,52.422855278911314,1,c,3.0894548000001123,correct,c
165,2F4K,166,2,55.036759019722325,69.78469415893738,1.5703680987634354,68.35228320189373,2,b,1.6618803000001208,correct,b
166,2F4K,167,2,37.38814967818524,52.158371294807225,1.0879743094462726,54.53099638707936,2,b,1.6800969999999325,correct,b
167,2F4K,168,2,37.6116147091192,52.4951299325589,1.0930416998424204,54.82267123668112,2,v,1.6490125000000262,incorrect,b
168,2F4K,169,1,64.3709313484234,51.147523937217215,1.906766178085723,53.6515242809819,2,n,1.1946935999999369,correct,n
169,2F4K,170,2,49.41812535345015,36.79750603324395,1.3972050483841378,40.894187388498615,1,v,1.7410747999997511,correct,v
170,2F4K,171,2,51.934767537950144,64.06331296191998,1.4722707697021111,64.26326048353981,2,b,0.8546879000000445,correct,b
171,2F4K,172,1,40.10978970490845,60.26709271405307,1.1513238438389852,61.31269910631896,1,n,1.7404778000000078,incorrect,c
172,2F4K,173,2,58.214738660566425,66.68427812744916,1.6776504594818944,66.19423815563509,2,b,1.1581506000002264,correct,b
173,2F4K,174,1,47.1872713952682,29.04711784405148,1.333870069025217,34.215707178936164,2,n,1.8378723000000718,correct,n
174,2F4K,175,1,33.942385185078045,52.875614246902856,1.012745416420224,55.15137715069051,1,n,1.2545984999997017,incorrect,c
175,2F4K,176,2,45.36787393385042,54.43352597021477,1.2843480513916312,56.4872671969724,2,b,2.0563953999999285,correct,b
176,2F4K,177,2,56.45478842493568,37.05638408216699,1.6173631569146287,41.12293224720066,1,v,2.974163899999894,correct,v
177,2F4K,178,1,57.617071964546966,50.897104753702656,1.656929430744321,53.4327871044135,2,n,2.2397987999997895,correct,n
178,2F4K,179,1,53.73068412082712,33.266597339282335,1.5282923266169968,37.80498974381823,2,n,0.9653701000002002,correct,n
179,2F4K,180,2,61.11698831731345,72.2272071103345,1.7820152085176408,69.94755683017068,2,b,1.2313898000002155,correct,b
180,2F4K,181,1,28.905460572038663,43.074860699062896,0.9120367208658536,46.4881517142022,1,c,2.5130017999999836,correct,c
181,2F4K,182,1,49.46405623216103,34.49576444350646,1.3985401644780877,38.87313321611679,2,n,0.9149070000003121,correct,n
182,2F4K,183,2,42.85437515924163,52.79794428493922,1.2189434987450498,55.0843509652667,2,b,2.159528599999703,correct,b
183,2F4K,184,1,55.6493907621036,43.13937561331418,1.5905014893956602,46.54588804332368,2,n,1.3948317999997926,correct,n
184,2F4K,185,2,42.12627113047198,28.82209331430376,1.20062709719005,34.02823672746226,1,v,2.203310699999747,correct,v
185,2F4K,186,2,49.32771778389035,53.3262267568225,1.394580808757074,55.53946878080444,2,b,0.9885592000000543,correct,b
186,2F4K,187,1,57.94565509108575,34.33038203554639,1.6682894882802135,38.7289195467469,2,n,1.8924606000000495,correct,n
187,2F4K,188,1,75.97063426420547,56.46757127172308,2.42690734148904,58.204251165920894,2,c,1.400911200000337,incorrect,n
188,2F4K,189,2,64.28682017788987,55.43293996646845,1.9034340776137813,57.335010370294086,1,v,2.2944264000002477,correct,v
189,2F4K,190,2,43.55202876889855,33.758007057657515,1.2367559695335866,38.23097847327034,1,v,0.8243680999999015,correct,v
190,2F4K,191,2,46.372530266072864,59.91911539033923,1.311461911178005,61.03401021986127,2,b,1.432229500000176,correct,b
191,2F4K,192,1,41.40718612309063,56.29975154173765,1.1828077354522564,58.06386430885877,1,c,2.379452599999695,correct,c
192,2F4K,193,1,59.71837493212572,42.95220470900184,1.7309346379829056,46.3783817219482,2,n,0.9700244000000566,correct,n
193,2F4K,194,1,59.64229810754573,46.36078659197805,1.7281985107687503,49.42425792947771,2,n,0.6848015999999006,correct,n
194,2F4K,195,2,69.23173724175115,56.60086177142624,2.1095746166327203,58.31558125700086,1,b,3.5810521000003064,incorrect,v
195,2F4K,196,1,51.47851578749376,35.183149084229214,1.4583686700880332,39.47407115412,2,n,1.321977799999786,correct,n
196,2F4K,197,2,47.09283192845903,35.4229606520127,1.3312531673647534,39.68428139098979,1,v,2.4392539000000397,correct,v
197,2F4K,198,1,25.373565491226188,36.4710053712769,0.8474539994548193,40.6060651936851,1,c,1.8682234000002609,correct,c
198,2F4K,199,1,57.194173663415576,37.3159366571337,1.6424224013309414,41.35252439505453,2,n,0.8303799000000254,correct,n
199,2F4K,200,2,52.61290818318581,40.65563984531394,1.493179125850188,44.32422073054229,1,v,1.3212126999997054,correct,v
200,2F4K,201,2,54.95470001844435,66.21286411255672,1.5676907562986235,65.85384104165064,2,b,2.8040434000004097,correct,b
201,2F4K,202,1,63.57260048490774,54.60734517712896,1.8753735815125376,56.63525184458687,2,n,1.9531730000003336,correct,n
202,2F4K,203,2,60.07593300893791,69.82119964475197,1.743852466444214,68.37682638297112,2,b,1.0853269999997792,correct,b
203,2F4K,204,1,38.414894202761886,55.32109535902949,1.1114529103688264,57.24052288862058,1,n,4.612811699999838,incorrect,c
204,2F4K,205,2,69.47722196095293,53.43189012941839,2.1203709184251065,55.63027787284459,1,v,1.9229793999998037,correct,v
205,2F4K,206,2,52.104231077027606,42.18596106429128,1.4774680496007846,45.69266445385515,1,v,0.8608023000001594,correct,v
206,2F4K,207,1,44.1559711741473,56.37885552774804,1.2523858688714635,58.13006736068792,1,c,3.090223800000331,correct,c
207,2F4K,208,1,48.77400690375195,34.745702784116084,1.3786155631984385,39.09135682151721,2,n,1.6315135999998347,correct,n
208,2F4K,209,1,47.163715521484406,41.527741206203125,1.3332168586099766,45.10381112754134,2,n,0.58113080000021,correct,n
209,2F4K,210,1,61.62964232931687,47.15490193631484,1.8011137148229983,50.13103385829552,2,n,0.8546917000003305,correct,n
210,2F4K,211,2,43.859996420735705,59.66812983090991,1.244701578488873,60.83220372410322,2,b,2.5432769999997618,correct,b
211,2F4K,212,2,76.55030692320838,65.74949344092188,2.4563381938517246,65.51623548186407,1,v,2.4586859000000914,correct,v
212,2F4K,213,2,51.74580634909427,40.41756584103775,1.4664970718496388,44.11157125028157,1,v,0.8729162999998152,correct,v
213,2F4K,214,2,35.628403265668425,50.97045030460143,1.0488817929303311,53.49688718549776,2,v,3.070654999999988,incorrect,b
214,2F4K,215,2,42.495868541344166,52.63352524232745,1.209890141558541,54.94233782482973,2,v,0.7943674000002829,incorrect,b
215,2F4K,216,2,49.811348876990095,61.15956362716359,1.4086766258815346,62.02144213060195,2,b,1.0367730000002666,correct,b
216,2F4K,217,1,59.72453174932484,49.7526897084523,1.7311562592557437,52.42919529500005,2,n,2.032262499999888,correct,n
217,2F4K,218,2,38.784030620376186,49.34231175636074,1.1200172239303374,52.06785242191757,2,b,1.856086199999936,correct,b
218,2F4K,219,1,64.32417842298071,53.467742623603336,1.9049133212966,55.66107313824278,2,n,1.0853412999999819,correct,n
219,2F4K,220,1,46.53044881904273,35.58548544291206,1.3157756000883305,39.82690135261945,2,n,0.7818814000002021,correct,n
220,2F4K,221,1,56.47636157684811,37.12691153227073,1.6180888705437564,41.18529421108198,2,n,0.5504719000000478,correct,n
221,2F4K,222,2,50.535519122875854,62.3464870521912,1.430049983824954,62.95004172179664,2,b,1.686138199999732,correct,b
222,2F4K,223,1,43.56979303885234,55.87540695522979,1.2372129086225503,57.707827644720005,1,n,2.5190142999999807,incorrect,c
223,2F4K,224,2,61.6773174460057,46.88407746291235,1.8029001814439092,49.89017590338855,1,v,1.5582914999999957,correct,v
224,2F4K,225,1,35.32076045593878,60.132882168890376,1.0421932483429177,61.20536553556971,1,c,1.7104444999999942,correct,c
225,2F4K,226,2,66.64544960909967,51.29920267388693,1.999117802007619,53.78385191419369,1,v,0.9328518000002077,correct,v
226,2F4K,227,2,51.20109641489704,36.840092196264045,1.4499798910384438,40.93179889107833,1,v,0.46165309999969395,correct,v
227,2F4K,228,1,47.85731792801834,29.86144119809644,1.3525852608121156,34.89775772099487,2,n,1.7105931999999484,correct,n
228,2F4K,229,2,54.1381912381256,59.71781868995399,1.541297906591076,60.87220884232384,2,b,2.3247768999999607,correct,b
229,2F4K,230,2,60.14410982955469,47.35946628754826,1.7463264743631095,50.31282916739893,1,v,1.449359700000059,correct,v
230,2F4K,231,1,44.10598696248685,53.24040741748509,1.2510848247052886,55.46565920811663,1,c,4.418398999999681,correct,c
231,2F4K,232,1,50.44102523285226,29.87407993519877,1.4272427728795356,34.90838722994516,2,n,1.8296929999996792,correct,n
232,2F4K,233,2,41.75930182020063,34.28057177550899,1.1915000851304272,38.68551406683689,1,v,2.3430441999998948,correct,v
233,2F4K,234,2,34.071419500960374,49.74868568466565,1.0154664569080654,52.42567323609802,2,b,0.897191400000338,correct,b
234,2F4K,235,2,58.76879386304894,38.65422559672767,1.6970908705385803,42.53990366521832,1,v,1.1399545999997827,correct,v
235,2F4K,236,1,51.02453690513797,72.22240512023765,1.4446661203649067,69.94451581750546,1,c,1.321339799999805,correct,c
236,2F4K,237,1,28.680714749239694,49.66873998952486,0.9077843000490547,52.35533580818499,1,c,1.9410827000001518,correct,c
237,2F4K,238,2,56.74401834730405,33.96387053792792,1.6271198836238585,38.40985729946803,1,v,0.8061496000000261,correct,v
238,2F4K,239,1,44.41774797794712,54.53967623603145,1.2592218146845238,56.57766705434873,1,c,1.279502699999739,correct,c
239,2F4K,240,2,55.56668567618246,34.98913519076619,1.5877684894949948,39.30421230356222,1,v,0.9032434999999168,correct,v
240,2F4K,241,1,51.21861788978883,69.29869869656638,1.4505082857659632,68.02356977339868,1,n,4.284822799999802,incorrect,c
241,2F4K,242,1,35.244123501867165,55.99024539867486,1.0405337103396748,57.80432820530992,1,c,1.0671394999999393,correct,c
242,2F4K,243,2,69.8784765600229,54.17913454568817,2.138137001270392,56.270286442830376,1,v,1.5526491000000533,correct,v
243,2F4K,244,1,37.87455708717138,52.07435137486965,1.0990345287226917,54.45811870020189,1,c,2.179152400000021,correct,c
244,2F4K,245,1,35.13165296745255,47.80288521040792,1.038102996279618,50.706468729055246,1,n,1.2672218999996403,incorrect,c
245,2F4K,246,2,42.64791019809663,28.88600605129859,1.2137214045497262,34.081438000148594,1,v,0.9392761999997674,correct,v
246,2F4K,247,2,43.880166929848855,57.98290834218615,1.2452237580853858,59.46060922559236,2,b,1.2309728000000177,correct,b
247,2F4K,248,1,67.6341670853244,46.67516156020477,2.0406446976335197,49.704245461614136,2,n,1.509452599999804,correct,n
248,2F4K,249,1,36.88646702197935,51.91530984744315,1.0766833437021406,54.32005477008704,1,n,2.4765572999999677,incorrect,c
249,2F4K,250,2,53.74934795962955,40.3138822073587,1.5288855775112569,44.01898768168204,1,v,2.8952728999997817,correct,v
250,2F4K,251,2,58.29802024139993,68.21466617266633,1.6805583179474224,67.27735080433742,2,b,0.7532873000000109,correct,b
251,2F4K,252,2,47.7903055537036,66.0806494444234,1.3507017686548932,65.75781395150119,2,b,1.049114599999939,correct,b
252,2F4K,253,2,58.56883023539822,45.38583386950844,1.690048802658674,48.55461588192972,1,v,0.848616299999776,correct,v
253,2F4K,254,1,58.45593266176172,51.43090968094171,1.6860858317331064,53.89865498674041,2,n,1.0797904999999446,correct,n
254,2F4K,255,1,62.50290872900763,51.836024926446576,1.8341190203289863,54.251172662133534,2,n,1.9713586000002579,correct,n
255,2F4K,256,1,46.34230049774722,62.61148062708039,1.3106377716916633,63.15510003051062,1,c,0.6788066999997682,correct,c
256,2F4K,257,2,33.88312463747984,49.45640517930017,1.011498190575092,52.16838546304393,2,b,1.9057222000001275,correct,b
257,2F4K,258,2,38.26208603742352,60.785173138841344,1.1079268111399427,61.72519589467071,2,b,0.8425343000003522,correct,b
258,2F4K,259,2,47.02117248490831,35.61856167051834,1.3292709226578348,39.85594184193884,1,v,0.5694628999999622,correct,v
259,2F4K,260,1,48.87101860277185,29.042471641565804,1.3813994535672214,34.21183190257736,2,n,0.9884508000000096,correct,n
260,2F4K,261,1,66.13267465428649,46.37199085435381,1.9779147413832576,49.43424059211669,2,n,0.7090736000000106,correct,n
261,2F4K,262,1,38.86211249105703,55.766828644148816,1.1218372359211075,57.6164878681084,1,c,2.3126633000001675,correct,c
262,2F4K,263,2,42.88734044183423,52.475067148061726,1.2197793633895735,54.80531368351411,2,b,1.680057499999748,correct,b
263,2F4K,264,2,62.7717896235213,43.73670107323315,1.8444027075387956,47.0803936845926,1,v,1.3762998000001971,correct,v
264,2F4K,265,1,39.36296379167037,51.80231679835308,1.1335821245908366,54.22187635501013,1,c,2.270180999999866,correct,c
265,2F4K,266,1,38.42081212767945,48.68771498173696,1.1115896939457233,51.4900361839837,1,c,0.8547005999998873,correct,c
266,2F4K,267,2,45.37532461654489,57.9030710127708,1.2845470541787023,59.39494110167108,2,b,2.6039459999997234,correct,b
267,2F4K,268,1,45.02913379008709,53.60994457155619,1.275333015749568,55.78313078160119,1,c,2.542659199999889,correct,c
268,2F4K,269,2,48.1271983961611,36.37738415121656,1.360197317657095,40.52352847563492,1,v,1.0176275999997415,correct,v
269,2F4K,270,1,56.853090249873766,44.49650699760375,1.6308145204822997,47.75998055739114,2,n,0.5330625999999938,correct,n
270,2F4K,271,1,58.90116740168584,47.97303545257644,1.7017687696898596,50.85735406456232,2,n,0.46540589999995063,correct,n
271,2F4K,272,1,44.15872507474696,31.71004956822541,1.252457589744954,36.46577445772105,2,n,0.7019845999998324,correct,n
272,2F4K,273,1,42.3557407956611,59.816667100523006,1.2063698048611202,60.951716026856815,1,c,0.8657395999998698,correct,c
273,2F4K,274,1,51.367874112720415,37.42918330223587,1.4550172159445711,41.45277486349398,2,n,0.8537067000002025,correct,n
274,2F4K,275,2,50.705395721275885,38.60589872734923,1.4351105462250917,42.49693250348043,1,v,1.6375883999999132,correct,v
275,2F4K,276,1,58.77840236165658,43.94904007377571,1.697429988452425,47.2703595366611,2,n,1.017750199999682,correct,n
276,2F4K,277,1,36.02647928772165,51.3296169353709,1.0576002174831265,53.81037103760802,1,c,1.0065199000000575,correct,c
277,2F4K,278,1,62.333953488571,42.698091443300754,1.8276864697231967,46.150963510615696,2,n,0.7333232999999382,correct,n
278,2F4K,279,1,25.53100605188897,41.679277208525406,0.8502330125034593,45.23935119030284,1,c,2.5068774000001213,correct,c
279,2F4K,280,1,33.212814098885175,45.33290659939651,0.99749701068779,48.50735576176684,1,c,1.5645829000000049,correct,c
280,2F4K,281,1,68.5415837166298,62.79982258013757,2.0795156053919928,63.30032894135655,2,n,3.477561699999569,correct,n
281,2F4K,282,1,43.16632668076725,54.35720280317777,1.226876303443203,56.42221754061985,1,n,1.7711167000002206,incorrect,c
282,2F4K,283,1,76.7579467181778,56.33268498940225,2.4669669732366137,58.09143315544915,2,n,0.7754090999997061,correct,n
283,2F4K,284,2,48.673887481368986,27.810118456425982,1.375748374855566,33.19076991333543,1,v,1.0124980000000505,correct,v
284,2F4K,285,1,46.175653359705805,32.540615841202964,1.3061038398645697,37.17838499093944,2,n,1.2664845999997851,correct,n
285,2F4K,286,1,30.88538653264896,49.86395062362166,0.9503702602463864,52.52703516053035,1,c,0.7697449000002052,correct,c
286,2F4K,287,1,45.75335136286221,57.69511083484261,1.294684471859679,59.22360770805794,1,c,1.3951944000000367,correct,c
287,2F4K,288,1,63.09674620260589,49.20543780426026,1.8569080604507289,51.947174843833096,2,n,2.361287600000196,correct,n
288,2F4K,289,2,49.41364315576595,32.59802319590144,1.3970748284024852,37.22781103331585,1,v,1.042825499999708,correct,v
289,2F4K,290,1,44.52376858348954,60.37072700951487,1.2620010035017974,61.39544688226744,1,c,1.1341826999996556,correct,c
290,2F4K,291,2,36.66459764427609,54.71270226302919,1.0717273514277228,56.7248404249745,2,b,2.992400899999666,correct,b
291,2F4K,292,1,58.8885725711107,42.01948580658146,1.7013231311682404,45.54370814886867,2,n,1.4021936999997706,correct,n
292,2F4K,293,2,53.18428437246216,58.367912796508165,1.5110260484072662,59.77643225005223,2,b,1.2192995000000337,correct,b
293,2F4K,294,2,75.70212830449275,60.5314209159818,2.413394646317476,61.52352411436596,1,v,1.0731896000002052,correct,v
294,2F4K,295,1,73.51773475045607,60.75659037756061,2.30622303441331,61.70251493889631,2,n,1.4974505000000136,correct,n
295,2F4K,296,2,56.36529071196797,46.23460078699032,1.6143559581157976,49.31181075074677,1,v,2.883165299999746,correct,v
296,2F4K,297,2,54.06437340778882,69.0567198513194,1.538933831307636,67.85854444775714,2,b,2.9742135000001326,correct,b
297,2F4K,298,1,39.97899204495218,35.15322084572071,1.148196657842983,39.44785682552319,2,n,1.983796699999857,correct,n
298,2F4K,299,2,47.903779774033566,58.03595991480032,1.3538926883873188,59.50421206922103,2,b,1.7529296999996404,correct,b
299,2F4K,300,1,47.91669390694885,57.5894442274592,1.3542563140494004,59.13639712578817,1,n,2.09883630000013,incorrect,c
300,2F4K,301,2,65.09101291863334,80.30090989800046,1.9355323055737923,74.48696654467535,2,b,1.7104183999999805,correct,b
301,2F4K,302,2,77.2630469267612,61.66271862474393,2.493014731333326,62.41708242095603,1,v,1.5890660000000025,correct,v
302,2F4K,303,1,38.34343939473148,26.2863777894852,1.1098026721943826,31.948177457039023,2,n,2.5614911000002394,correct,n
303,2F4K,304,2,55.60012524563383,65.64749411968106,1.5888729382629756,65.44152352690207,2,b,1.7278559000001223,correct,b
304,2F4K,305,2,56.50874158483751,50.887686534829925,1.6191787344163835,53.42455407194111,1,v,1.036757100000159,correct,v
305,2F4K,306,1,48.12595756033342,64.65074027795669,1.360162221678894,64.70403726466263,1,n,1.4615491999998085,incorrect,c
306,2F4K,307,2,67.65617179133376,54.65662908007732,2.0415786592891747,56.67716990209505,1,b,2.7920908000000964,incorrect,v
307,2F4K,308,2,61.76394407239101,52.32908291198376,1.8061507626236144,54.67893960259861,1,v,1.9910123999998177,correct,v
308,2F4K,309,2,29.778434983477663,42.45662149097705,0.9287441023622156,45.93486640378503,2,v,2.05674769999996,incorrect,b
309,2F4K,310,1,39.4580266064047,57.29335001674864,1.135825178420338,58.891472404424455,1,c,1.413047799999731,correct,c
310,2F4K,311,2,66.58215583836679,50.64327817468676,1.9964883799404696,53.2107438519824,1,v,1.1217408999996223,correct,v
311,2F4K,312,1,38.75553293473266,58.3795202982918,1.1193537065014445,59.78593186090169,1,c,2.013140300000032,correct,c
312,2F4K,313,1,59.71875507940035,66.72266597720318,1.730948320972047,66.22181929951233,1,n,0.7272410000000491,incorrect,c
313,2F4K,314,2,56.16176473398856,71.68754891952368,1.6075381122344197,69.60341372000859,2,b,1.4433939000000464,correct,b
314,2F4K,315,2,49.36431436694899,65.89062735728939,1.395642495022017,65.61937745237906,2,b,0.8000699000003806,correct,b
315,2F4K,316,2,52.10248273000423,37.56819194780645,1.4774143359640537,41.57589210355904,1,v,0.8486587000002146,correct,v
316,2F4K,317,2,59.94002619392285,47.25440122248048,1.738931117553749,50.21947320848941,1,v,0.5332601999998587,correct,v
317,2F4K,318,1,41.422181836765645,60.850640161877664,1.1831766244696291,61.777111112715176,1,c,2.421934599999986,correct,c
318,2F4K,319,2,65.52903930538953,53.64822986400844,1.953242641584584,55.815969019718125,1,v,1.5829829999997855,correct,v
319,2F4K,320,2,74.96087309747362,61.297541244731605,2.3764798891033223,62.13022354706792,1,v,1.2128892000000633,correct,v
320,2F4K,321,2,34.59225034959026,46.33942396370199,1.0265241085948404,49.405223680300125,2,v,3.0527087000000392,incorrect,b
321,2F4K,322,2,49.15194850173049,62.5153233445968,1.389492892627991,63.08078867111034,2,b,2.6221464000000196,correct,b
322,2F4K,323,2,49.22680597738724,63.716129691785454,1.3916574857902153,64.00066189898698,2,b,1.1035401999997703,correct,b
323,2F4K,324,2,44.16154475277239,62.06168216294306,1.2525310279403838,62.72871968738316,2,b,0.8242443999997704,correct,b
324,2F4K,325,2,53.59971736675461,68.11825944551427,1.5241358726725889,67.21013141017355,2,b,0.8182534000002306,correct,b
325,2F4K,326,2,68.72485378138931,52.27745041180019,2.0874557469013366,54.634211964709,1,v,0.7090769999999793,correct,v
326,2F4K,327,1,46.16907693077861,61.68581035288043,1.3059252384650104,62.43517023182488,1,c,1.7038895000000593,correct,c
327,2F4K,328,2,53.07797941024607,70.34286267618573,1.5076895395808885,68.72526523622018,2,b,1.0057205999996768,correct,b
328,2F4K,329,1,33.41782150571768,52.154201404557135,1.0017584263760242,54.52738046986177,1,n,1.4976850000002742,incorrect,c
329,2F4K,330,1,40.98348810363542,62.29427851665879,1.1724323193419028,62.90954246871704,1,c,1.0731418000000303,correct,c
330,2F4K,331,1,44.368898549396896,29.384947539467063,1.2579433525086048,34.49798110847813,2,n,0.7508708999998817,correct,n
331,2F4K,332,1,58.80555620193479,45.20601610732754,1.6983887099440091,48.39403390295764,2,n,0.6483339999999771,correct,n
332,2F4K,333,1,59.283043231586895,44.3146515685177,1.7153361162550755,47.59737017731483,2,n,0.7280860999999277,correct,n
333,2F4K,334,2,52.4871778085594,61.33909853429336,1.4892803234044307,62.16294499640826,2,b,1.7650402999997823,correct,b
334,2F4K,335,1,60.76619845789375,49.906788931352,1.7690636467496144,52.56469120932071,2,n,1.0368223999998918,correct,n
335,2F4K,336,1,40.97774566661224,53.98329177844899,1.1722923268290737,56.10292664094415,1,n,3.362499899999875,incorrect,c
336,2F4K,336,1,40.97774566661224,53.98329177844899,1.1722923268290737,56.10292664094415,1,many,3.362499899999875,incorrect,c
337,2F4K,337,2,52.952690287426414,67.69594440381616,1.5037666472168398,66.9140532903164,2,b,1.5946814999997514,correct,b
338,2F4K,338,2,50.71153106553971,39.117347330587926,1.4352936505964329,42.95201176819254,1,v,1.7650630999996793,correct,v
339,2F4K,339,1,60.15653862407123,42.38428822677051,1.7467778699246923,45.870136201082325,2,n,0.8546751999997468,correct,n
340,2F4K,340,2,48.560136279500405,59.963635925169775,1.372498039427394,61.06973789488129,2,b,1.108673799999906,correct,b
341,2F4K,341,1,47.06551125993368,60.48496925916048,1.3304970741638784,61.48652981686704,1,n,2.6532710000001316,incorrect,c
342,2F4K,342,2,22.124973714555267,39.95330361984888,0.7920971060347985,43.697153799153305,2,b,2.8528401999997186,correct,b
343,2F4K,343,2,45.17369079725805,33.610743985243744,1.2791724069950106,38.10316963822073,1,v,1.3719786999999997,correct,v
344,2F4K,344,2,56.01013302919996,74.02215358403178,1.6024773782868411,71.05705017923749,2,v,1.6315098999998554,incorrect,b
345,2F4K,345,2,67.3618900330782,48.28770800895272,2.0291235357833197,51.13614459085197,1,v,1.3281067000002622,correct,v
346,2F4K,346,1,45.59451533097758,66.71298386549529,1.290415309565617,66.21486480380905,1,c,2.6524884000000384,correct,c
347,2F4K,347,2,56.89512202210921,34.248091085219585,1.6322405180793755,38.65721719216248,1,v,2.457234900000003,correct,v
348,2F4K,348,1,48.63509899580803,40.39654014288264,1.3746391657857375,44.092795107892,2,n,1.4980128000001969,correct,n
349,2F4K,349,2,50.86067009301063,37.89248306167492,1.439751777122251,41.86336346604289,1,v,3.0288743999999497,correct,v
350,2F4K,350,1,26.294716403764955,39.57075554508614,0.8638432723349199,43.355978472277485,1,c,3.829974199999924,correct,c
351,2F4K,351,1,34.83449706614438,53.72812275742043,1.0317081454527472,55.88446266977775,1,c,2.147340399999848,correct,c
352,2F4K,352,2,59.14638440355767,55.39297432862455,1.7104684957772949,57.30125836500466,1,v,1.9652980999999272,correct,v
353,2F4K,353,2,30.154939787772204,43.13002413617768,0.9360439619197978,46.53751916932577,2,b,2.012892400000055,correct,b
354,2F4K,354,1,38.49911052895805,53.22624151168698,1.1134010245390973,55.45347101875986,1,c,1.6376092999998946,correct,c
355,2F4K,355,2,31.653160411336465,47.81528199548307,0.9656650792750122,50.71746506995461,2,v,3.277528000000075,incorrect,b
356,2F4K,356,1,40.689328246922585,61.52264974331045,1.1652825782426066,62.30723434886568,1,c,3.2425868000000264,correct,c
357,2F4K,357,1,59.144892581776126,44.68114447311743,1.71041543519607,47.925042678972645,2,n,0.765068500000325,correct,n
358,2F4K,358,1,44.24254880786796,32.598596600525525,1.2546426091580865,37.22830482669196,2,n,0.5815894000002118,correct,n
359,2F4K,359,2,27.20158500642044,43.9848593345972,0.8802880267462877,47.30240172266327,2,v,1.564259399999628,incorrect,b
360,2F4K,360,2,53.64927814593385,38.503805572713176,1.5257074376239874,42.40617472724577,1,v,0.6353825999999572,correct,v
361,2F4K,361,1,41.405782652405,61.534330062525,1.1827732164781195,62.31640318473313,1,n,3.3812198999999055,incorrect,c
362,2F4K,362,1,20.55429834560408,35.3296903849192,0.7666441297367325,39.60249092322404,1,c,1.8985972000000402,correct,c
363,2F4K,363,1,33.19807286894044,45.57918326607903,0.9971912895425914,48.7272228943516,1,c,1.81969509999999,correct,c
364,2F4K,364,1,38.62376827649665,28.599255537227656,1.1162909099002123,33.84302844480597,2,n,0.7940465000001495,correct,n
365,2F4K,365,2,42.12672925711762,55.723222564929486,1.2006385349894968,57.5797778495363,2,b,1.6193896999998287,correct,b
366,2F4K,366,2,37.294580877522,51.30638171755598,1.0858594866541276,53.7901119931753,2,b,0.8000984000000244,correct,b
367,2F4K,367,1,32.646026030394765,42.1160686658725,0.985809494418166,45.63012551461091,1,n,1.4555258000000322,incorrect,c
368,2F4K,368,2,46.13368171898637,57.38962133014609,1.3049644014379935,58.97119450759787,2,b,1.9410404000000199,correct,b
369,2F4K,369,1,57.34234723810238,63.795709244979534,1.6474908094286478,64.06098892310834,1,c,3.1683500999997705,correct,c
370,2F4K,370,1,40.59658025903548,49.520082459705726,1.163037333261251,52.22447053212785,1,n,1.4164063000002898,incorrect,c
371,2F4K,371,1,43.36550128989797,52.94646195616164,1.2319682183932967,55.212482389114,1,n,0.7454631000000518,incorrect,c
372,2F4K,372,1,41.56015139997126,59.62293477498698,1.186576028066813,60.79579424166625,1,c,1.0968869999996969,correct,c
373,2F4K,373,1,62.83465397683739,43.92438885337042,1.8468153380230143,47.248307213633055,2,n,0.8122244999999566,correct,n
374,2F4K,374,1,48.56347560715657,43.5940799644468,1.3725933481308172,46.95278509942531,2,n,0.6362020999999913,correct,n
375,2F4K,375,1,53.70232793114975,38.948267215159575,1.52739143408587,42.80149271559674,2,n,0.44343239999989237,correct,n
376,2F4K,376,2,55.59159838692172,51.79333763433799,1.5885912385212484,54.2140713134563,1,v,1.9046462000001156,correct,v
377,2F4K,377,1,36.4708112665998,23.15094790383416,1.0674173289395463,29.4687071642586,2,n,1.3046360000003006,correct,n
378,2F4K,378,2,55.05426923582081,59.27071451421159,1.5709399969964852,60.51131830187261,2,v,2.276263000000199,incorrect,b
379,2F4K,379,2,29.512938548208997,50.04349769304762,0.9236307797449416,52.68480614199655,2,b,1.0055376000000251,correct,b
380,2F4K,380,1,44.341035853722296,68.72816777662122,1.2572147257355062,67.63304777420092,1,n,1.2848430999997618,incorrect,c
381,2F4K,381,1,39.06283152125919,52.5939200928036,1.1265293846393618,54.90810448306559,1,c,2.0495802999998887,correct,c
382,2F4K,382,1,46.92526226825741,53.625631191847255,1.3266224707766765,55.79658679683912,1,n,0.994535100000121,incorrect,c
383,2F4K,383,2,42.05793632631091,27.497802000417824,1.1989222389034573,32.93423012484945,1,v,1.0792750000000524,correct,v
384,2F4K,384,2,57.02635272227602,38.42890848528693,1.6367007661758348,42.3396120242907,1,v,0.7758585999999923,correct,v
385,2F4K,385,2,54.4077870597762,71.32885277529938,1.5499628229806732,69.37202506165902,2,b,0.7568472000002657,correct,b
386,2F4K,386,1,52.66986695849514,62.51036309696104,1.4949487314684873,63.07695232225422,1,c,1.6254718999998659,correct,c
387,2F4K,387,1,39.587135270327,55.246745589135706,1.1388786698715438,57.17765680132218,1,c,1.0306626000001415,correct,c
388,2F4K,388,1,62.70422001241857,51.18631053550037,1.8418130113674256,53.6853742181917,2,n,2.0927434999998695,correct,n
389,2F4K,389,2,51.207661688738455,35.77634802497904,1.4501778573019155,39.99454576516448,1,v,1.680120700000316,correct,v
390,2F4K,390,2,36.06201640056267,55.13192195187213,1.0583820448430956,57.08048316758913,2,b,1.3454435999997258,correct,b
391,2F4K,391,2,68.74947341950046,57.14702930148318,2.0885246955227608,58.770143818145925,1,v,1.6976839000003565,correct,v
392,2F4K,392,1,45.260876456872126,58.22867009791897,1.2814936178776146,59.66237413501744,1,c,1.5708342999996603,correct,c
393,2F4K,393,2,62.35081778591742,47.3085155083288,1.8283275210680483,50.26756061888168,1,v,1.7219606000003296,correct,v
394,2F4K,394,1,54.68048515335183,45.013321717424674,1.5587770054199657,48.22189835869026,2,n,4.113703299999997,correct,n
395,2F4K,395,1,50.62396268333586,70.13324354168242,1.4326824546968149,68.58576703377051,1,c,0.9032683000000361,correct,c
396,2F4K,396,2,60.83648135025838,46.65212869525066,1.7716510087597346,49.68374004020005,1,v,0.9340127000000393,correct,v
397,2F4K,397,1,39.73501286873388,53.70779268540599,1.142386143938595,55.86703749854,1,n,2.2580379999999423,incorrect,c
398,2F4K,398,1,36.96974112025877,60.34717366598451,1.0785493827326582,61.37665068925888,1,c,0.7819030000000566,correct,c
399,2F4K,399,1,46.88180473079412,63.6313599230465,1.3254241779412386,63.93631217780397,1,n,1.035958599999958,incorrect,c
400,2F4K,400,2,58.88348302991326,47.96906012235577,1.701143082806023,50.85382990972472,1,v,0.8671995999998217,correct,v
