,condition,trial,sub_task,x,y,xt,yt,cat,resp,rt,acc,correct_resp
0,2F4K,1,1,39.469546925725375,56.13413752457444,1.1360973073697118,57.75956238353023,1,n,3.3139918999995643,incorrect,c
1,2F4K,2,2,54.09761427605135,38.89676142824707,1.5399979476871806,42.614251156493566,1,b,1.5647722000003341,incorrect,v
2,2F4K,3,1,43.12835107184661,54.05761342893863,1.2259078454795396,56.00374154107382,1,c,1.2560708000000886,correct,c
3,2F4K,4,2,62.06287991862314,42.67183739146204,1.8174131183161848,45.980701795083206,1,b,1.558719700000438,incorrect,v
4,2F4K,5,1,44.69980990097511,28.145141855196343,1.2666292467303235,33.34034853714215,2,c,1.497827000000143,incorrect,n
5,2F4K,6,1,30.629666606939665,49.022033062965605,0.9453300350153347,51.629589881987904,1,c,2.8095831999999064,correct,c
6,2F4K,7,1,58.4126274551654,66.70805427374268,1.6845681839851638,66.03262123218279,1,n,2.9377457000000504,incorrect,c
7,2F4K,8,2,47.06291587500428,64.096891550399,1.3304252698231915,64.11293133646397,2,b,1.552613900000324,correct,b
8,2F4K,9,1,63.353747498850055,45.330896092576594,1.866858297431322,48.35501294221274,2,c,1.7957582999997612,incorrect,n
9,2F4K,10,1,53.4754435538064,43.4306163769212,1.5202022835635385,46.65867042617982,2,n,1.5344599000000017,correct,n
10,2F4K,11,2,59.86075931091561,37.33171216670532,1.7360671835938817,41.22729171475572,1,v,0.909295899999961,correct,v
11,2F4K,12,1,52.05557237387847,65.34231612833835,1.4759738602174697,65.04002130681559,1,c,4.72201159999986,correct,c
12,2F4K,13,2,64.16756776985206,47.00940823002937,1.8987198196163448,49.84873681598325,1,b,1.3523456000002625,incorrect,v
13,2F4K,14,2,54.22066217476327,41.70580686193544,1.5439433999635526,45.11769090535191,1,b,2.94285519999994,incorrect,v
14,2F4K,15,1,67.36010745074033,52.24906162374259,2.029048322117865,54.44935874671124,2,n,5.0,incorrect,n
15,2F4K,16,2,46.66384007626993,67.64683398709758,1.3194303559465237,66.6996880764123,2,b,0.7696925000000192,correct,b
16,2F4K,17,2,48.49910790071925,45.11324192928634,1.3707573762582366,48.16092631804416,1,b,0.48597309999968274,incorrect,v
17,2F4K,18,2,43.97401343599921,68.4953282806149,1.2476561639999877,67.29154504856722,2,v,0.5389669999995021,incorrect,b
18,2F4K,19,1,40.520916561312085,49.22230062876071,1.1612088696476504,51.80600250801768,1,n,0.7211805000006279,incorrect,c
19,2F4K,20,2,40.5933483986262,57.57218651424756,1.1629591743731014,58.95471407372551,2,v,2.0554981000004773,incorrect,b
20,2F4K,21,1,69.17274831616142,51.53341715060465,2.106988513986084,53.82867484388031,2,n,1.2975589999996373,correct,n
21,2F4K,22,2,58.17080811397347,45.66102686157952,1.6761186087384043,48.64925069224569,1,v,0.8729011999994327,correct,v
22,2F4K,23,2,62.71024027656895,48.6461032240903,1.842043598455054,51.2980141317978,1,v,1.067357699999775,correct,v
23,2F4K,24,1,29.982438318549185,50.79332091124413,0.9326923241846298,53.18379990325143,1,c,0.7393954000008307,correct,c
24,2F4K,25,2,50.75430747305773,63.22124159080491,1.436570927199608,63.44912475866466,2,v,1.8377989999999045,incorrect,b
25,2F4K,26,2,47.42187834120848,60.16145635960415,1.340393272054675,61.05745478013169,2,b,0.7020946000002368,correct,b
26,2F4K,27,1,58.98687920033741,39.50141567663714,1.7048045822871103,43.15190951165415,2,c,1.0306471000003512,incorrect,n
27,2F4K,28,2,72.97447431754367,58.57043110567752,2.2803167373803617,59.77325210818656,1,v,1.2309641000001648,correct,v
28,2F4K,29,2,53.65457965302025,41.89463521295843,1.5258756435391805,45.28634586002406,1,v,1.6800383999998303,correct,v
29,2F4K,30,2,50.53976024161279,34.1096069925854,1.430176107760892,38.40194156681424,1,v,1.7590419999996811,correct,v
30,2F4K,31,1,64.46889678539596,53.497768764674426,1.9106544754302772,55.52489014758794,2,c,0.9572555000004286,incorrect,n
31,2F4K,32,1,56.24478249577663,68.49164383846424,1.6103156113591184,67.28899813350712,1,n,0.6604600999999093,incorrect,c
32,2F4K,33,1,37.08672559390389,55.48211584235696,1.081176281400939,57.21186927198059,1,c,0.6178331000000981,correct,c
33,2F4K,34,1,35.86828952520284,45.76831132386431,1.054126995676031,48.74482947031853,1,c,0.8304484999998749,correct,c
34,2F4K,35,1,35.15252124677937,50.97736085707552,1.0385535722582189,53.34443098863283,1,c,0.8131519999997181,correct,c
35,2F4K,36,2,54.95471192692512,71.34444851426889,1.567691144505771,69.19838484876783,2,b,0.28564360000018496,correct,b
36,2F4K,37,2,53.70996169042286,41.63863759508607,1.527633910777194,45.05770380619532,1,b,0.49199659999976575,incorrect,v
37,2F4K,38,2,28.638338131378447,42.19474946944348,0.9069847155984964,45.55444139000246,2,v,0.3038470999999845,incorrect,b
38,2F4K,39,2,59.04199527669719,46.981656647108245,1.706759590159769,49.82409333950692,1,b,0.2734884999999849,incorrect,v
39,2F4K,40,2,35.97454815337855,48.93986987254621,1.0564587551497493,51.5571673439307,2,v,0.7331930000000284,incorrect,b
40,2F4K,41,2,44.466395470929285,22.83955224607137,1.2604962831746285,29.10875595329914,1,b,3.338263300000108,incorrect,v
41,2F4K,42,1,45.85122003913625,55.90193842857529,1.297321995526627,57.56491587093751,1,n,1.4555428000003303,incorrect,c
42,2F4K,43,2,64.25079439163038,46.9899948814913,1.9020086821851887,49.83149792865841,1,v,0.8236430999995719,correct,v
43,2F4K,44,2,53.404179594991376,65.0763654971031,1.517951175769704,64.84376959093326,2,v,0.5876471000001402,incorrect,b
44,2F4K,45,1,36.48912516544392,48.70493679597973,1.0678239075001328,51.34994179805497,1,n,1.7104003999993438,incorrect,c
45,2F4K,46,2,34.61567792489843,50.246725065594894,1.0270243147162426,52.70572875003008,2,v,3.4960570000002917,incorrect,b
46,2F4K,47,2,53.980510838051465,42.94582936071965,1.5362524646376177,46.22552029678637,1,b,2.336914600000455,incorrect,v
47,2F4K,48,1,50.32873961141372,42.78554838466744,1.4239141714621175,46.08230500858716,2,n,1.0730330000005779,correct,n
48,2F4K,49,1,48.21300535220548,65.74140834194866,1.3626264917478244,65.33273104154645,1,n,0.6119398999999248,incorrect,c
49,2F4K,50,1,51.45056078853192,64.33749695515101,1.4575211552726866,64.29361937157255,1,n,0.9821500999996715,incorrect,c
50,2F4K,51,2,43.90723391071136,57.60737882033729,1.2459248196457435,58.98373047905417,2,v,5.0,incorrect,b
51,2F4K,52,1,43.89135528595714,36.176751083577045,1.2455134997268664,40.209199966030326,2,c,0.5089910999995482,incorrect,n
52,2F4K,53,2,28.24717472575412,37.92003696269281,0.8996372117657577,41.74778068065999,2,b,0.8729651000003287,correct,b
53,2F4K,54,2,75.69244905117303,62.919419147773176,2.412908940604897,63.218104796040365,1,v,2.3907319999998435,correct,v
54,2F4K,55,2,37.92424192855967,52.60365128725363,1.1001706019600888,54.75577461683917,2,v,1.1459703000000445,incorrect,b
55,2F4K,56,2,53.20244583570715,39.1261296185703,1.511596805757168,42.81810309894192,1,b,0.9396965999994791,incorrect,v
56,2F4K,57,1,62.40831402155956,45.12943001150626,1.830514777847624,48.175364015317214,2,n,0.7021357999992688,correct,n
57,2F4K,58,1,43.05785153782773,54.72664374889322,1.224111985433722,56.57305259526824,1,n,2.1827705999994578,incorrect,c
58,2F4K,59,1,58.37738319458313,46.17003346854106,1.6833340435565294,49.10252169260857,2,n,1.0306743000001006,correct,n
59,2F4K,60,1,39.200381620042826,50.46353219170423,1.1297561797889433,52.89553062399058,1,c,0.6119018999997934,correct,c
60,2F4K,61,2,44.6173173937365,63.11268350207892,1.2644583543538634,63.3661616088006,2,v,0.9032547999995586,incorrect,b
61,2F4K,62,2,54.89879995073179,45.14756966786022,1.5658695168118295,48.19154181013654,1,v,1.0974421000000802,correct,v
62,2F4K,63,1,52.67182815226833,46.52568929164976,1.4950096995285067,49.41891016569949,2,n,1.3332414999995308,correct,n
63,2F4K,64,1,37.60979769986506,42.849076982765126,1.0930004015227992,46.1390694959697,1,c,1.4314252000003762,correct,c
64,2F4K,65,2,48.67433397633717,36.925648895369385,1.37576114819077,40.86875852003906,1,b,1.122463699999571,incorrect,v
65,2F4K,66,1,52.23158147573485,40.36220964880859,1.4813858318482078,43.9186575256926,2,n,0.6860292000001209,correct,n
66,2F4K,67,1,49.55787193219168,61.16804803225259,1.4012711592677918,61.85608656246326,1,n,1.2202617000002647,incorrect,c
67,2F4K,68,2,51.381228020014646,71.97924762472127,1.4554213109707834,69.60563538920601,2,v,2.537218199999188,incorrect,b
68,2F4K,69,2,26.66177767352283,44.83921256131371,0.8704620643561055,47.91647149373369,2,v,0.9153747000000294,incorrect,b
69,2F4K,70,2,42.576653028027245,60.26122184907071,1.2119243031644793,61.13710225288937,2,b,0.9821278999997958,correct,b
70,2F4K,71,2,32.80747847136919,48.12505593349522,0.9891247236426224,50.837580169222456,2,b,1.115651600000092,correct,b
71,2F4K,72,1,58.090969995154325,74.73180419286447,1.6733382469977622,71.29337154851096,1,n,1.1945644999996148,incorrect,c
72,2F4K,73,1,34.53998221794137,49.516912731448045,1.0254090007969492,52.06522233747224,1,c,2.9005196000007345,correct,c
73,2F4K,74,2,53.99138217981305,48.17074594494913,1.5365997940384737,50.87799318608776,1,b,1.0362791999996261,incorrect,v
74,2F4K,75,2,61.43395347002227,48.67160367075227,1.7937994509003123,51.32052291621052,1,v,0.4554724999998143,correct,v
75,2F4K,76,2,65.48700145065163,54.47042975895103,1.9515359554831329,56.355414823074526,1,v,0.7650975999995353,correct,v
76,2F4K,77,1,41.01434870257377,56.01302506735421,1.1731849435876205,57.65809270351902,1,c,5.0,correct,c
77,2F4K,78,2,48.310055124638126,38.34834146359671,1.3653791757718496,42.1273995400399,1,v,0.8722024999997302,correct,v
78,2F4K,79,1,39.90403712058443,60.36435031683023,1.1464084221743287,61.21932201616622,1,c,1.2855867999996917,correct,c
79,2F4K,80,2,36.661008449415085,49.24299220401037,1.0716473658178185,51.8242201413123,2,v,1.8863917999997284,incorrect,b
80,2F4K,81,1,33.711053720512474,45.45528241356996,1.0078854019479024,48.46589720718897,1,n,3.0217401000008977,incorrect,c
81,2F4K,82,1,71.78360130414612,55.47702628467067,2.224541540274504,57.20758053962866,2,n,0.6301683000001503,correct,n
82,2F4K,83,2,41.15815288818417,55.630468895833886,1.1766983972148557,57.33678841753849,2,v,3.611372499999561,incorrect,b
83,2F4K,84,1,46.87908397514502,63.47622810511132,1.3253491921707026,63.6434179555116,1,c,0.8672634999993534,correct,c
84,2F4K,85,2,38.63240121090711,50.85710616424589,1.116491320887495,53.23949170931797,2,v,1.16445609999937,incorrect,b
85,2F4K,86,2,58.18329674700091,72.94717996174934,1.6765539429123295,70.21378045938219,2,v,1.0974270999995497,incorrect,b
86,2F4K,87,2,32.00025224587082,40.2021117814945,0.9726600492979384,43.775948530133455,2,v,0.6483656000000337,incorrect,b
87,2F4K,88,1,55.66748494961362,39.56595085245367,1.5911000409851723,43.20934339692978,2,n,0.8364729000004445,correct,n
88,2F4K,89,2,51.29835755986556,35.15877111165249,1.4529154264571569,39.316566185941305,1,b,0.5320308999998815,incorrect,v
89,2F4K,90,1,67.94179998414879,50.28975824130953,2.053740639246793,52.74341967453184,2,n,0.6911575000003722,correct,n
90,2F4K,91,1,43.21299489481752,52.8640614789454,1.2280674890037238,54.98031028358129,1,c,2.822309499999392,correct,c
91,2F4K,92,2,28.714928530743933,38.90315371199422,0.9084303780604782,42.61993054240764,2,v,0.5753570000006221,incorrect,b
92,2F4K,93,2,39.85705536674496,46.4859595609495,1.1452889760881022,49.38358123833623,2,b,0.5868313999999373,correct,b
93,2F4K,94,2,32.90906674229545,45.92559931861198,0.9912164272200708,48.88491665031607,2,b,0.278668199999629,correct,b
94,2F4K,95,2,60.79198392213991,44.28172051515536,1.7700124618043085,47.41886416188119,1,b,0.32112039999992703,incorrect,v
95,2F4K,96,2,50.75539944047482,62.189778330115765,1.4366035475332992,62.65505875195562,2,b,0.4655697999996846,correct,b
96,2F4K,97,2,54.16214237159888,35.93997803613239,1.5420657409287093,40.0011602992601,1,b,0.5223502999997436,incorrect,v
97,2F4K,98,2,50.73377994137245,40.29735664395153,1.4359578462346745,43.86084334381709,1,v,1.0307235999998738,correct,v
98,2F4K,99,2,40.88690930735565,61.054102963053616,1.170080086756361,61.76624446796665,2,b,2.573614300000372,correct,b
99,2F4K,100,2,60.039828787060046,74.03993325919997,1.7425437323136368,70.88134170725958,2,v,0.8852028000001155,incorrect,b
100,2F4K,101,2,35.903176758698635,51.14634920475942,1.0548919997083466,53.49177006031177,2,b,1.965294200000244,correct,b
101,2F4K,102,2,39.98225619498171,53.05860676732724,1.1482745955896416,55.14777332503608,2,b,0.4430459000004703,correct,b
102,2F4K,103,1,55.264428673024376,66.48226308251633,1.5778202517611253,65.87030629753886,1,n,0.5990239000002475,incorrect,c
103,2F4K,104,1,50.98955656857794,42.1796229135985,1.443615658610442,45.54092759457892,2,c,1.7407504999991943,incorrect,n
104,2F4K,105,1,58.86051025317545,40.80002872637659,1.70033063153408,44.30912626178096,2,n,0.4481199000001652,correct,n
105,2F4K,106,1,50.820572585671066,73.9055386628213,1.4385518063476996,70.80034296983804,1,n,1.6436498000002757,incorrect,c
106,2F4K,107,1,57.095133385523006,66.87518101732073,1.639043338313472,66.15229979545155,1,c,5.0,incorrect,c
107,2F4K,108,2,55.460977287755696,69.1099227579096,1.5842821786016883,67.71352482414287,2,b,0.8535513999995601,correct,b
108,2F4K,109,1,49.50395699227139,31.730634972500084,1.3997010329344746,36.35194882118912,2,n,0.6847569999999905,correct,n
109,2F4K,110,1,52.25550364861921,34.100898748982885,1.482122926993774,38.39437476701647,2,n,0.4784386999999697,correct,n
110,2F4K,111,1,45.338926043121184,60.25015671826788,1.283575164991691,61.1282737076372,1,n,0.6058427999996638,incorrect,c
111,2F4K,112,1,43.9340758347696,57.024891116608906,1.2466204418006646,58.50201128468987,1,c,0.9389301999999589,correct,c
112,2F4K,113,1,45.81081977277939,58.597011659925634,1.2962325730958515,59.7949167481293,1,n,0.41913779999958933,incorrect,c
113,2F4K,114,1,56.90562661848883,49.95553530434845,1.6325970986487306,52.45046012297224,2,c,0.30388760000005277,incorrect,n
114,2F4K,115,2,40.20834215063997,53.35873738525225,1.1536857177324846,55.40563985244997,2,b,1.8211329000005207,correct,b
115,2F4K,116,2,46.69377120375757,57.35554890914899,1.3202518254093054,58.77584391791874,2,v,0.8971184000001813,incorrect,b
116,2F4K,117,2,66.36174925683102,79.65055301392084,1.987358959534364,73.97481049846267,2,v,1.5092312000006132,incorrect,b
117,2F4K,118,2,52.07613966067581,28.395041714625293,1.4766052466709796,33.54672703576864,1,b,0.2673948999999993,incorrect,v
118,2F4K,119,1,61.01086311930615,75.2028880706346,1.7780869729768831,71.5691250747068,1,n,1.510008299999754,incorrect,c
119,2F4K,120,2,55.64131655831604,69.75683613698776,1.5902344692402954,68.1514622327335,2,v,0.5570619000000079,incorrect,b
120,2F4K,121,1,36.84514013448981,30.33753240288617,1.075758473447414,35.169510138371095,2,n,4.0177967999998145,correct,n
121,2F4K,122,1,37.95805507383972,57.85539834443187,1.1009444309801992,59.18789933464425,1,n,0.5573069000001851,incorrect,c
122,2F4K,123,1,54.47550044690289,42.22614847812032,1.5521468013258015,45.582493014746525,2,n,0.9023664999995162,correct,n
123,2F4K,124,2,46.80028389644634,30.048959460388435,1.323179251221693,34.926439318337486,1,v,0.9750100000001112,correct,v
124,2F4K,125,2,76.50572194354541,54.98583219165536,2.454061932397857,56.792715115237264,1,v,3.551781299999675,correct,v
125,2F4K,126,1,73.97548563012285,53.35509743135351,2.328280001726172,55.40251604240184,2,n,1.7495828000000984,correct,n
126,2F4K,127,2,59.43704954820424,42.640075199663904,1.7208382364680577,45.95232183062893,1,b,0.8304230000003372,incorrect,v
127,2F4K,128,2,59.87058211166435,41.31160977500626,1.73642182785247,44.7656982188176,1,b,0.6911730000001626,incorrect,v
128,2F4K,129,1,65.56123359087039,44.535590816556365,1.9545506998315032,47.64550638804636,2,n,0.8001040999997713,correct,n
129,2F4K,130,2,66.49126962069334,57.6287092239119,1.992718728412593,59.00131204456815,1,b,0.47843290000037086,incorrect,v
130,2F4K,131,1,69.02137727833215,54.69363122604945,2.1003668316350166,56.54503798445234,2,n,0.6847575000001598,correct,n
131,2F4K,132,2,63.40054740306845,53.375175958860304,1.8686759646470277,55.41974634127332,1,b,0.8182916999994632,incorrect,v
132,2F4K,133,1,64.4573935217853,40.66836722294652,1.9101974945787492,44.19167478130216,2,n,0.8670181999996203,correct,n
133,2F4K,134,1,47.67108519846212,39.29084642588567,1.3473573674321364,42.96457436751124,2,c,1.3098196000000826,incorrect,n
134,2F4K,135,2,70.53832362564407,58.88603978828713,2.167676862305077,60.03004122778531,1,v,1.1448921999999584,correct,v
135,2F4K,136,2,37.21109110847166,50.42969135965163,1.083975938767273,52.86591989060589,2,b,1.0296085999998468,correct,b
136,2F4K,137,2,52.65626766121037,65.55024806009304,1.4945260355279884,65.19279639297962,2,v,0.7760656000000381,incorrect,b
137,2F4K,138,1,46.24220429212447,33.52047330454491,1.307912592215739,37.89100612124756,2,c,0.7090062999996007,incorrect,n
138,2F4K,139,2,59.18057495570237,47.24161767768232,1.7116850243241946,50.05485732402434,1,v,0.5817391999999018,correct,v
139,2F4K,140,2,39.34019662180924,23.88434294736141,1.1330455798374526,29.91750975708109,1,b,3.023705699999482,incorrect,v
140,2F4K,141,1,54.18166314908412,44.41796649247977,1.5426918281845294,47.54050554139658,2,n,0.618006200000309,correct,n
141,2F4K,142,1,47.91278218901625,38.98169576929256,1.354146160764507,42.68972166509254,2,n,1.3887500000000728,correct,n
142,2F4K,143,1,39.11621666197873,59.24403000488563,1.1277806537175783,60.320109739336814,1,n,0.6121584000002258,incorrect,c
143,2F4K,144,2,40.04534202963998,57.62581059789241,1.149781928626311,58.99892310156867,2,v,0.5208920000004582,incorrect,b
144,2F4K,145,2,35.29319464420556,50.11355954347588,1.0415960187889022,52.58903940366655,2,b,0.3160281999998915,correct,b
145,2F4K,146,1,32.27639935355165,44.41984676873115,0.978261439377947,47.54218413830892,1,c,2.086541500000749,correct,c
146,2F4K,147,1,52.7657478618297,43.69360599042057,1.497932314641794,46.89361608381897,2,n,0.8850440999995044,correct,n
147,2F4K,148,1,38.33258190346374,54.051566213695686,1.1095521345757329,55.99858088698057,1,c,0.7818748999998206,correct,c
148,2F4K,149,1,37.74279978222142,57.8392723876557,1.096027497427288,59.17464193683335,1,c,0.659632099999726,correct,c
149,2F4K,150,2,65.2749301956541,49.17386377398624,1.942948829506581,51.76335006360726,1,v,1.534398799999508,correct,v
150,2F4K,151,1,62.74777513753752,50.97048492506099,1.843481903256408,53.33843277747467,2,n,0.8971676000001025,correct,n
151,2F4K,152,1,50.9700166951836,66.75407668233302,1.4430292074945428,66.06561714963053,1,n,0.8061401999993905,incorrect,c
152,2F4K,153,2,58.50563588782957,42.490595612540304,1.6878293858222708,45.81876196282404,1,b,1.2907127999997101,incorrect,v
153,2F4K,154,1,69.27860220806053,56.64314854469322,2.1116314615588085,58.18466563618324,2,n,0.6483838000003743,correct,n
154,2F4K,155,1,42.59647782477992,31.431509273922995,1.2124240159656077,36.09684521440778,2,c,2.5250319999995554,incorrect,n
155,2F4K,156,2,47.77888627972477,64.22100845540358,1.3503810729708896,64.20623293968418,2,v,0.7697929999994813,incorrect,b
156,2F4K,157,1,61.67647982183675,72.11135285891922,1.80286877897343,69.68955466373873,1,n,0.4911019999999553,incorrect,c
157,2F4K,158,2,46.32905648407505,60.37843862913307,1.31027686975319,61.230545089218616,2,v,1.2433410000003278,incorrect,b
158,2F4K,159,1,55.73890026229033,37.72996640258464,1.5934646430085182,41.57949934029482,2,c,0.6848273000005065,incorrect,n
159,2F4K,160,1,28.590642045902456,51.64306229543583,0.9060856030277372,53.92396081477214,1,c,0.7636413000000175,correct,c
160,2F4K,161,2,56.036387688546014,45.182913106770144,1.603352490143203,48.223061342934194,1,v,2.2991014999997788,correct,v
161,2F4K,162,1,46.98232261734056,33.945494990891405,1.3281974911210264,38.25941247596931,2,n,0.8789506000002802,correct,n
162,2F4K,163,1,49.87088056128248,39.31325563709791,1.4104215439277494,42.98450621482823,2,n,0.5209289000003992,correct,n
163,2F4K,164,1,49.37491933788082,59.08830705951869,1.395950301864476,60.19409097256938,1,n,0.5502601999996841,incorrect,c
164,2F4K,165,1,38.72442109933648,53.91899281760411,1.1186297721022425,55.885378594616014,1,c,0.6619214000002103,correct,c
165,2F4K,166,1,58.19272131342072,73.0011569707938,1.6768825433847387,70.24723188156192,1,n,0.7514922000000297,incorrect,c
166,2F4K,167,1,33.26035504567,50.44113224482653,0.9984836100527632,52.87593128981908,1,c,0.2370667000004687,correct,c
167,2F4K,168,2,37.93441106333511,51.55586503395478,1.1004032699692938,53.84818839620816,2,v,0.502651099999639,incorrect,b
168,2F4K,169,1,57.489295166007714,47.819758162670965,1.6525327403107908,50.56736430968819,2,n,1.0428174999997282,correct,n
169,2F4K,170,2,52.863750321222646,39.51967419323535,1.500988069286086,43.1681579996197,1,v,0.3766525000000911,correct,v
170,2F4K,171,2,45.25141529856012,60.68764863244404,1.2812415225756606,61.47632523032029,2,b,0.42445459999999,correct,b
171,2F4K,172,1,44.91562111718184,60.025932107161545,1.272326231900065,60.949088925529566,1,c,0.7211194999999861,correct,c
172,2F4K,173,2,67.29282613123085,50.67686798070776,2.026211514817525,53.08207000280336,1,b,0.4555549999995492,incorrect,v
173,2F4K,174,2,58.90604799934505,45.57449987058473,1.7019414895631404,48.57214935484939,1,b,1.1339342000001125,incorrect,v
174,2F4K,175,2,63.26468832833483,75.73014866985132,1.863404199585716,71.87310856982566,2,v,1.449436500000047,incorrect,b
175,2F4K,176,2,38.000312840338445,56.11659075004884,1.1019122841584903,57.74486902642927,2,b,0.33323209999980463,correct,b
176,2F4K,177,1,42.73955238384683,49.574597823668405,1.216036532707638,52.1159346906057,1,c,0.3523783000000549,correct,c
177,2F4K,178,2,41.77853474423297,49.822383668394,1.191976705893766,52.33360451094706,2,v,0.3886805000001914,incorrect,b
178,2F4K,179,2,50.16244008608264,40.9779530713836,1.4189986359619453,44.46788380732166,1,b,0.47838059999958205,incorrect,v
179,2F4K,180,1,55.70300259356235,37.360653558652665,1.5922756116495318,41.252868363993024,2,c,0.3037348000007114,incorrect,n
180,2F4K,181,1,40.39122794984751,50.29626416681709,1.15808154167249,52.7491171710344,1,n,0.27955480000036914,incorrect,c
181,2F4K,182,2,62.2460355834688,45.535994803378834,1.8243481431815696,48.537834518475336,1,b,1.7407639000002746,incorrect,v
182,2F4K,183,1,51.8224497548983,39.63736423918643,1.4688361721063448,43.272908928634784,2,c,1.6618568000003506,incorrect,n
183,2F4K,184,1,69.564410916703,54.36808871604726,2.124218729921952,56.26834694127559,2,n,2.166002699999808,correct,n
184,2F4K,185,2,59.94099750897319,42.42263740090119,1.7389662407151076,45.75804298548731,1,v,1.0297748000002684,correct,v
185,2F4K,186,1,26.266046500548,45.4541711803713,0.8633284250262476,48.4649067106409,1,n,1.8863683999998102,incorrect,c
186,2F4K,187,1,55.70032997578663,47.02466778778855,1.5921871225565547,49.86228646507914,2,n,0.6551019999997152,correct,n
187,2F4K,188,1,51.67489554839888,43.21422026065793,1.4643362440905707,46.46533002473719,2,n,1.08566940000037,correct,n
188,2F4K,189,1,45.065786470434055,62.97097888522623,1.2763054081852745,63.25764868107265,1,n,1.073165699999663,incorrect,c
189,2F4K,190,2,70.23702139710619,56.72597868313681,2.154137949325336,58.25363137962517,1,v,1.2371515000004365,correct,v
190,2F4K,191,2,46.38324339050435,57.14994787811837,1.3117541022369226,58.60569186605941,2,b,0.7818998000002466,correct,b
191,2F4K,192,2,42.53226464812016,63.98128165588771,1.210806176288204,64.02584680593772,2,v,0.3460946999994121,incorrect,b
192,2F4K,193,1,41.410365591708576,55.97138121949478,1.182885939597106,57.6231747738883,1,n,0.44953369999984716,incorrect,c
193,2F4K,194,1,60.766816182788766,44.58452850192976,1.7690863709215936,47.68918770977367,2,n,0.44218909999926836,correct,n
194,2F4K,195,1,67.45584211394736,51.05075687865785,2.0330916659729983,53.40844257381124,2,n,0.5570489000001544,correct,n
195,2F4K,196,1,63.0085483700841,41.7984307776541,1.8535055706069183,45.200416341534655,2,n,0.7090690000004543,correct,n
196,2F4K,197,2,41.48864779912234,54.25755763704434,1.1848130481377477,56.17422548402708,2,v,0.9275066999998671,incorrect,b
197,2F4K,198,2,57.33705613824899,38.03000553177807,1.6473095536829092,41.8451954353814,1,b,0.9930504999992991,incorrect,v
198,2F4K,199,1,61.1918132202815,76.92917191336629,1.7847900756713515,72.54584025625202,1,n,0.6728773000004367,incorrect,c
199,2F4K,200,2,53.43938629781284,65.39344875506825,1.5190628789725689,65.077644464977,2,v,0.6850398999995377,incorrect,b
200,2F4K,201,1,35.02780737418175,27.76650458689417,1.0358637265625692,33.028751815719495,2,n,2.404468800000359,correct,n
201,2F4K,202,2,46.67205138113485,37.31545123756656,1.3196556669710169,41.212922595517846,1,b,1.1704320999997435,incorrect,v
202,2F4K,203,1,62.35965051660624,43.31304866899762,1.8286633635150868,46.55363059016768,2,c,0.5573427999997875,incorrect,n
203,2F4K,204,1,53.01354529073929,41.66740840942917,1.5056707845631028,45.083397837748585,2,n,0.40094740000040474,correct,n
204,2F4K,205,2,68.6585663275819,51.515607723196496,2.0845803616064584,53.81319143229129,1,b,1.0184259999996357,incorrect,v
205,2F4K,206,2,40.84680076654929,60.48410637157638,1.1691046074277858,61.31465386157304,2,v,0.5396968000004563,incorrect,b
206,2F4K,207,2,64.22215368005304,79.47532248151646,1.90087624611152,73.88696293698452,2,b,0.24835280000024795,correct,b
207,2F4K,208,1,48.01583375770434,60.91084049474217,1.3570510680312928,61.65308031715773,1,n,0.2977867999998125,incorrect,c
208,2F4K,209,2,73.46831590774582,58.54778480186769,2.3038542940364057,59.754788643959536,1,v,0.8789743000006638,correct,v
209,2F4K,210,2,44.36516649772757,61.33806695836351,1.257845732555145,61.98986904030532,2,b,1.2673609000003125,correct,b
210,2F4K,211,1,70.29154310695819,56.98346801506015,2.156581581912604,58.46763800070215,2,n,0.6413683000000674,correct,n
211,2F4K,212,2,48.39886525735938,65.38016624494676,1.3679030260580118,65.0678746431939,2,v,0.7025034999996933,incorrect,b
212,2F4K,213,2,44.25559933628945,64.40765549546421,1.2549831379012726,64.34616557195832,2,b,0.8182624999999462,correct,b
213,2F4K,214,2,63.88267657968491,45.21155287212043,1.8875047792201416,48.24860111738517,1,v,1.2613012000001618,correct,v
214,2F4K,215,2,54.28043741452959,38.33935231756145,1.5458637011840646,42.1194265470088,1,v,0.9761586999993597,correct,v
215,2F4K,216,2,36.71727667722303,54.40670522117567,1.0729019966464293,56.30120941187446,2,b,0.7820635999996739,correct,b
216,2F4K,217,1,49.61927937131082,36.56160144362037,1.4030616298808394,40.54785629266838,2,c,0.7332907999998497,incorrect,n
217,2F4K,218,1,48.98471125495798,36.12993751028306,1.3846691833861349,40.1680480808288,2,n,0.5512487999994846,correct,n
218,2F4K,219,2,39.10395543750475,54.09645192289,1.1274931457823694,56.03687985941231,2,v,0.830963200000042,incorrect,b
219,2F4K,220,1,34.63070446143647,53.5889948602926,1.027345277136663,55.60306587064088,1,c,1.2673734999998487,correct,c
220,2F4K,221,1,51.0156842205817,39.33584328780136,1.444400201456072,43.00459793616637,2,n,0.8730038000003333,correct,n
221,2F4K,222,2,40.19167384018529,59.34763162028623,1.1532859105885336,60.40381272275037,2,v,0.9826524999998583,incorrect,b
222,2F4K,223,1,73.2887660025513,57.12114246670309,2.2952685802156774,58.58182259990993,2,n,0.6117930000000342,correct,n
223,2F4K,224,1,50.02098064135672,56.15169588232741,1.4148306903200032,57.77426286350488,1,n,0.7272644999993645,incorrect,c
224,2F4K,225,2,47.10751728488151,55.284999163645,1.331659758751323,57.04561819540986,2,b,0.9093079000003854,correct,b
225,2F4K,226,1,40.72596584849876,48.10728077847153,1.1661706957892282,50.82185605100825,1,c,1.0974573000003147,correct,c
226,2F4K,227,1,63.33307080321835,58.79388684069149,1.8660557959481447,59.95516458833446,2,n,0.8355200000005425,correct,n
227,2F4K,228,2,56.42870973790252,48.55427947892158,1.6164863131210576,51.21694299747488,1,v,0.28577229999973497,correct,v
228,2F4K,229,2,29.302079520801243,44.91026757530299,0.9195898105801702,47.97986767720783,2,b,0.46772340000006807,correct,b
229,2F4K,230,2,49.83021552238485,63.39429252130115,1.4092293875323565,63.5810733911373,2,v,0.29897390000041923,incorrect,b
230,2F4K,231,1,61.02442818079483,45.527931009888896,1.778588602093056,48.53064792411291,2,n,0.993577400000504,correct,n
231,2F4K,232,1,50.0738485747935,61.51587025454872,1.4163869507195412,62.129425633460926,1,n,1.4616038000003755,incorrect,c
232,2F4K,233,2,33.17933414966322,51.55709322840174,0.9968027989683544,53.8492559634059,2,b,0.6301512999998522,correct,b
233,2F4K,234,2,34.22297597907199,45.61982092278777,1.0186717764253943,48.61253510789091,2,b,0.5755079999998998,correct,b
234,2F4K,235,1,35.068408736741155,52.05992468239575,1.0367386565382135,54.2856077587917,1,c,1.3578949000002467,correct,c
235,2F4K,236,2,55.83179972705995,49.28772282576068,1.5965458573421014,51.863596638312806,1,b,2.191270300000724,incorrect,v
236,2F4K,237,2,60.06036458968168,48.45428011924309,1.7432880096852494,51.12861850175185,1,v,0.5807588999996369,correct,v
237,2F4K,238,2,35.17192994139408,42.5278553634804,1.0389728092424988,45.85205310363801,2,b,0.5587458999998489,correct,b
238,2F4K,239,1,55.60398266941917,42.56286592504932,1.5890003914372233,45.88333489041074,2,n,0.7636816000003819,correct,n
239,2F4K,240,2,49.110805357011,41.34046125031347,1.3883046236417913,44.79145595352299,1,v,0.6665543999997681,correct,v
240,2F4K,241,2,49.3778561339127,37.01257261318161,1.3960355536960838,40.94545631129611,1,b,0.8544769000000088,incorrect,v
241,2F4K,242,1,49.61502941666322,34.676938331783404,1.4029376393358215,38.89580344707319,2,c,0.7272389999998268,incorrect,n
242,2F4K,243,2,40.674687941760126,58.40623120635026,1.164927877585825,59.6392670354434,2,v,0.6544119999998657,incorrect,b
243,2F4K,244,2,43.2680804563006,31.493379405239384,1.229475011971805,36.14955734639759,1,b,0.5041194999994332,incorrect,v
244,2F4K,245,2,33.156762158827334,45.04798465886607,0.9963350380740766,48.10272134380924,2,v,1.1574077000004763,incorrect,b
245,2F4K,246,1,69.57742963760342,47.29964047314464,2.124793869233017,50.106337738313655,2,n,0.9032452000001285,correct,n
246,2F4K,247,2,44.8988770324185,30.66076952990317,1.2718833060717878,35.44256038257341,1,v,0.7757842000000892,correct,v
247,2F4K,248,2,43.00093219203679,56.675106697066845,1.2226639780558677,58.21128158355181,2,v,0.4670462000003681,incorrect,b
248,2F4K,249,2,60.35157899096277,75.8699180756081,1.7538767509045146,71.95286042054792,2,v,1.0185241000008318,incorrect,b
249,2F4K,250,2,73.80537694149496,53.30050935939112,2.3200587010965026,55.35565794362981,1,b,0.38274970000020403,incorrect,v
250,2F4K,251,2,64.61361861171564,51.19589321827775,1.916413070674108,53.53493837081485,1,v,0.24920139999994717,correct,v
251,2F4K,252,2,46.06194774776981,54.66646673487272,1.3030192815084056,56.52197992053661,2,b,0.6180206999997608,correct,b
252,2F4K,253,1,66.61382975907743,43.937229182152,1.9978037815159015,47.11122737992479,2,n,0.4298908999999185,correct,n
253,2F4K,254,1,63.47157146901337,47.37163397843042,1.8714378585505176,50.17020018354345,2,n,0.4729875000002721,correct,n
254,2F4K,255,1,35.98067189701165,43.79839813226147,1.0565932928237651,46.98722393767742,1,c,0.5453448999996908,correct,c
255,2F4K,256,1,62.80344477448508,42.20736312314235,1.8456171859551584,45.56571027837767,2,n,0.6362089000003834,correct,n
256,2F4K,257,1,47.046506421651024,61.124288447232765,1.329971372918967,61.82160075754462,1,c,0.6483342999999877,correct,c
257,2F4K,258,2,31.447583069968186,40.30931392272679,0.9615458065708704,43.8715023217527,2,b,1.3826522999997906,correct,b
258,2F4K,259,1,48.99532962682507,34.78398750936843,1.3849749560247602,38.98918213092107,2,c,0.7358173000002353,incorrect,n
259,2F4K,260,1,51.97480764213422,40.71049066568256,1.4734971083521646,44.22924931185744,2,n,5.0,incorrect,n
260,2F4K,261,1,31.2926891695028,47.73296884895841,0.9584537190207614,50.49049285525461,1,n,0.96390429999974,incorrect,c
261,2F4K,262,1,58.863887620640206,63.60038082397389,1.7004500505973648,63.73772531373728,1,n,0.545171499999924,incorrect,c
262,2F4K,263,2,58.80178324516911,43.474442988013344,1.6982554656555091,46.69782567302488,1,v,0.18765480000001844,correct,v
263,2F4K,264,1,63.16459527817999,48.84816747097713,1.859529787393324,51.47630535062197,2,c,0.2917368999997052,incorrect,n
264,2F4K,265,1,56.70598731533654,37.67805096251891,1.625833612078973,41.53355589866739,2,n,0.4008756999992329,correct,n
265,2F4K,266,2,41.25870736575554,61.91151320619792,1.1791614142720006,62.43865938069332,2,b,0.6411471999999776,correct,b
266,2F4K,267,1,52.44561081344861,74.46119894496897,1.4879936032084944,71.1332100030443,1,n,0.46033840000018245,incorrect,c
267,2F4K,268,1,48.48538484620432,58.96727579481177,1.3703662687695628,60.0959773420536,1,c,0.5997569999999541,correct,c
268,2F4K,269,1,48.511186766227546,36.140180811547246,1.3711017166709372,40.17705173891015,2,c,0.6364192000000912,incorrect,n
269,2F4K,270,2,66.70773152029933,52.56724348223028,2.0017085686372598,54.72434860220896,1,b,0.9336076999989018,incorrect,v
270,2F4K,271,1,48.470946511153215,67.15090026547843,1.369954896230225,66.34887122420511,1,c,0.5942754000006971,correct,c
271,2F4K,272,2,62.95240805821487,56.541856687067806,1.8513430415173,58.10024760514719,1,v,0.8304840000000695,correct,v
272,2F4K,273,1,39.30950502046298,28.85580825320321,1.1323226850950514,33.928725746936486,2,c,0.7212479000008898,incorrect,n
273,2F4K,274,2,51.85035757413277,69.86766332858761,1.469688824466627,68.22583843106004,2,v,0.7393315000008442,incorrect,b
274,2F4K,275,2,54.10083820852127,70.74077952450831,1.5401011922885286,68.80503614839331,2,b,0.6058826999997109,correct,b
275,2F4K,276,2,29.40907991064954,46.432760524954304,0.9216381855990956,49.33626920455639,2,v,0.5997769999994489,incorrect,b
276,2F4K,277,1,42.38297411996922,33.72559760571804,1.2070531668350115,38.06867530682746,2,c,0.5503508000001602,incorrect,n
277,2F4K,278,1,58.52159780427172,44.42620082543823,1.688389700978265,47.54785662940095,2,n,0.7393885999990744,correct,n
278,2F4K,279,2,40.1259693370336,50.34284401969625,1.1517112673012762,52.78990308738948,2,v,1.0417459000000235,incorrect,b
279,2F4K,280,2,60.04104855638665,72.25942936801499,1.7425879314331514,69.78327640580744,2,b,0.4662917000005109,correct,b
280,2F4K,281,2,36.18657518839635,19.763535508510248,1.061126942224262,26.80716621426049,1,b,0.6290857999993023,incorrect,v
281,2F4K,282,1,59.69493292939403,44.84191717580151,1.7300910774551814,47.91888470477583,2,n,0.897116800000731,correct,n
282,2F4K,283,1,37.8782248632678,56.19600735820127,1.09911835446932,57.81135052073773,1,c,2.531111399999645,correct,c
283,2F4K,284,1,23.631815021501048,36.61985113302546,0.8173095236520215,40.59916728046755,1,c,0.9508241000003181,correct,c
284,2F4K,285,2,46.58249597492017,35.27769486148881,1.3172004219964502,39.42059576543894,1,b,1.1884456999996473,incorrect,v
285,2F4K,286,2,55.92561125488753,66.05874309020464,1.5996633683246633,65.56392426426571,2,v,1.5046403000014834,incorrect,b
286,2F4K,287,2,35.908490541879175,28.228243556280475,1.0550085685654833,33.40891426697506,1,v,0.6361876999999367,correct,v
287,2F4K,288,1,29.1001895283797,47.54035606995131,0.9157372954524456,50.31980707087943,1,c,0.902358400000594,correct,c
288,2F4K,289,2,60.59834960092345,49.89890072857802,1.762899813669366,52.40076665776975,1,v,0.8380049999996118,correct,v
289,2F4K,290,1,32.823557886705416,43.11304911155918,0.989455504702405,46.37493395410127,1,c,1.2976959999996325,correct,c
290,2F4K,291,1,49.98075042906527,29.57525612345457,1.413647589195524,34.52889489852703,2,c,0.8607529000000795,incorrect,n
291,2F4K,292,2,48.043576568001065,29.3412911759594,1.3578341705782129,34.333233721901465,1,v,0.7272235000000364,correct,v
292,2F4K,293,2,60.914873192140384,42.45462828943353,1.774541354414012,45.78662590221304,1,v,1.073371099999349,correct,v
293,2F4K,294,1,35.01260866365475,59.59735680227139,1.0355363953212071,60.60512058809406,1,c,1.9167584000006173,correct,c
294,2F4K,295,1,40.82938547239619,55.17373088050943,1.1686813035308343,56.951637911698256,1,c,0.800046199999997,correct,c
295,2F4K,296,1,56.30515188774431,66.56976924818389,1.6123383843414143,65.93329725040799,1,c,0.9264813000008871,correct,c
296,2F4K,297,2,51.9953335827116,34.768916223278175,1.4741261678995343,38.97603189360689,1,v,1.1217221000006248,correct,v
297,2F4K,298,2,43.12198022229847,57.54409987386103,1.2257454503042655,58.93154817320102,2,b,0.7813323999998829,correct,b
298,2F4K,299,2,52.52911089939547,29.79757306139343,1.4905795036332434,34.715239344312174,1,v,0.6483220999998593,correct,v
299,2F4K,300,1,63.09701631145939,49.12335109044063,1.856918490278966,51.71885955141949,2,n,1.06126569999833,correct,n
300,2F4K,301,1,48.410751250276974,56.811491378438106,1.3682411618665355,58.32476794807052,1,n,0.6483147000017198,incorrect,c
301,2F4K,302,2,57.0275062661264,40.38098518007274,1.6367400266299392,43.93539652594496,1,v,0.733310800000254,correct,v
302,2F4K,303,1,48.99877245899041,61.25406783932368,1.3850741122610837,61.92381366273763,1,c,0.9032121000000188,correct,c
303,2F4K,304,2,57.44427853640119,41.17382993518641,1.6509865373159305,44.64270422153116,1,v,1.2127368000001297,correct,v
304,2F4K,305,1,49.628234198641344,42.37120021998206,1.403322918874067,45.71208599041521,2,c,0.9517345000003843,incorrect,n
305,2F4K,306,2,46.8625383147325,60.40572378999403,1.3248932744938315,61.25227496538595,2,b,1.024739700000282,correct,b
306,2F4K,307,2,30.541977830541907,42.95244388322152,0.943607856019424,46.23143053410073,2,v,1.8863799000009749,incorrect,b
307,2F4K,308,2,52.11291777539118,43.41412194157835,1.4777349558732225,46.64393390250768,1,b,0.6908561000000191,incorrect,v
308,2F4K,309,1,60.45842866064505,44.66139711256117,1.7577779807186609,47.75779449305919,2,n,0.5997784999999567,correct,n
309,2F4K,310,2,33.21545194465668,45.11283105833276,0.9975517273541032,48.16055986876742,2,v,0.6661397000007128,incorrect,b
310,2F4K,311,2,30.22270869799912,45.356046741469775,0.9373639788667144,48.37743553656709,2,v,1.0124869999999646,incorrect,b
311,2F4K,312,1,71.30196580045853,54.77263866585213,2.202373222244681,56.61207048216383,2,n,0.6665546000003815,correct,n
312,2F4K,313,1,67.29039619630075,51.131632783388994,2.026109134807752,53.47894495028211,2,n,0.5027750000008382,correct,n
313,2F4K,314,1,57.671581938921264,77.49486798748245,1.6588086301481124,72.85417464094418,1,n,0.5708720000002359,incorrect,c
314,2F4K,315,1,52.85197535527729,65.55795152817413,1.500620592044637,65.19844516185569,1,c,0.3947514000010415,correct,c
315,2F4K,316,1,58.21465270534512,73.55387976532803,1.6776474608713037,70.58693074521113,1,c,1.1339950000001409,correct,c
316,2F4K,317,1,37.68303128196949,26.812046189347083,1.0946661446853507,32.24935821160755,2,n,1.2857990000011341,correct,n
317,2F4K,318,2,45.01387416928012,55.074955147289614,1.2749283977877008,56.86812841009247,2,v,0.8546556000001146,incorrect,b
318,2F4K,319,1,72.52601480761992,48.68513226238049,2.259150595355554,51.33246337396738,2,n,0.672588800000085,correct,n
319,2F4K,320,2,53.73789236318046,47.71380141291555,1.5285214213354763,50.47351257825502,1,v,0.7882522999989305,correct,v
320,2F4K,321,2,63.53443758059088,40.8981302078719,1.873885921749548,44.39665484940861,1,v,2.3899019999989832,correct,v
321,2F4K,322,1,47.638614745269166,62.54002449876387,1.3464479332850123,62.92613343030247,1,c,0.8064622000001691,correct,c
322,2F4K,323,1,52.77950013306975,31.5003000035563,1.498360740262147,36.15545527749934,2,c,1.054968700000245,incorrect,n
323,2F4K,324,1,50.83273672785256,64.21944351397441,1.4389157286220473,64.2050577709685,1,c,0.8486155999999028,correct,c
324,2F4K,325,2,32.09605112311472,20.801901533832314,0.9745995987627506,27.57027443290225,1,v,0.739523599999302,correct,v
325,2F4K,326,1,49.21966724153462,60.91082028042052,1.391450915359957,61.65306433356599,1,c,0.8052373999998963,correct,c
326,2F4K,327,1,38.56863329778897,54.38525580519586,1.1150118161417093,56.28295740142072,1,c,0.6473863999999594,correct,c
327,2F4K,328,1,43.17021883656566,28.734293295409817,1.2269756048235083,33.827800143803955,2,n,0.7029493000009097,correct,n
328,2F4K,329,2,62.91133113379503,49.47673681252584,1.8497623538489811,52.02989430949305,1,b,0.9330152999991697,incorrect,v
329,2F4K,330,2,54.15845282241771,65.67010710092757,1.5419474350709903,65.28059477489589,2,v,0.2659598000009282,incorrect,b
330,2F4K,331,1,55.26094448942795,69.16633502472146,1.5777059403618316,67.75197002430656,1,c,0.6058389000008901,correct,c
331,2F4K,332,2,37.429703613069314,52.05280491380505,1.088914823218169,54.27943947584869,2,v,1.6313829000009719,incorrect,b
332,2F4K,333,1,56.86473888025037,41.049664023802855,1.6312095947558145,44.53188080179396,2,c,0.6362010000011651,incorrect,n
333,2F4K,334,2,71.7144692526954,63.75063252678424,2.221345924506956,63.85159837231496,1,b,0.6605053999992379,incorrect,v
334,2F4K,335,1,61.66819476545724,55.88546816431524,1.8025582022587616,57.55109234826054,2,c,0.6973333000005368,incorrect,n
335,2F4K,336,1,32.96302008504654,47.97167640871636,0.9923291249709574,50.70186390851615,1,c,0.8425521000008303,correct,c
336,2F4K,337,1,24.18069495800995,46.389414357460126,0.8266914372405886,49.29771489301436,1,n,0.8182669999987411,incorrect,c
337,2F4K,338,1,29.389256814501564,36.17136266539182,0.9212583556928144,40.204462749640015,1,c,1.1641073999999207,correct,c
338,2F4K,339,2,57.00519525102793,45.67549850329513,1.6359808461923473,48.66214458230343,1,v,1.8562389999988227,correct,v
339,2F4K,340,1,69.43039381860905,49.29463018829114,2.118307182845171,51.86967647472186,2,n,0.6725528000006307,correct,n
340,2F4K,341,2,63.48151117983345,45.570682864859926,1.8718247069097067,48.568747842013046,1,b,1.8189235999998346,incorrect,v
341,2F4K,342,2,36.88861773912952,19.65397319383235,1.0767314971867403,26.727503890142973,1,b,1.133858600000167,incorrect,v
342,2F4K,343,2,42.46173567996357,38.04630885211158,1.2090316990110683,41.8596408173563,1,b,0.39954910000051314,incorrect,v
343,2F4K,344,1,35.286309091512294,54.32916283625202,1.0414468926607383,56.23521018461402,1,c,0.2422115000008489,correct,c
344,2F4K,345,2,28.281061031953517,45.64121311190097,0.9002713608628019,48.631596496401485,2,v,0.32112580000102753,incorrect,b
345,2F4K,346,1,33.98388868954831,45.95585839896712,1.0136198346269634,48.91186109695587,1,n,0.23032290000082867,incorrect,c
346,2F4K,347,1,33.280421425761865,48.07648434381403,0.9989003328909688,50.79461062615664,1,c,0.23709149999922374,correct,c
347,2F4K,348,1,44.58413362360105,63.128993108987046,1.2635861321437722,63.37863515105612,1,c,0.267413999999917,correct,c
348,2F4K,349,1,40.65141015961469,58.42127795039958,1.1643641331763943,59.65155591173404,1,c,0.5274527000001399,correct,c
349,2F4K,350,2,31.570065009075314,48.02493195990834,0.9639979277354708,50.74899541576807,2,b,0.3691887000004499,correct,b
350,2F4K,351,2,65.75969253120493,51.815251014940166,1.962633479934736,54.07346312003124,1,v,2.259018600001582,correct,v
351,2F4K,352,2,55.19971439920784,37.87266491181375,1.5756984141532049,41.70582833212751,1,b,1.0428138000006584,incorrect,v
352,2F4K,353,1,64.58048196485835,47.37235284469263,1.9150930073008845,50.170837784321456,2,n,0.6422963999993954,correct,n
353,2F4K,354,2,24.414232761232423,41.16902308034733,0.8307158479937707,44.63841357695773,2,b,1.1103568999988056,correct,b
354,2F4K,355,2,44.53545025275992,65.12752960552601,1.2623075977982634,64.88159845515395,2,v,0.7393808999986504,incorrect,b
355,2F4K,356,2,52.54288771527422,44.46345832234264,1.491006587263073,47.58111688572664,1,v,0.4070054000003438,correct,v
356,2F4K,357,1,43.65115455048341,33.583853523797,1.2393078776317483,37.94587663277955,2,c,0.7333122000000003,incorrect,n
357,2F4K,358,2,48.508332807344665,34.29725315742158,1.3710203491254391,38.56509405229927,1,b,0.29069320000053267,incorrect,v
358,2F4K,359,1,60.46032116051572,43.39942839322024,1.7578471566698677,46.63080625188788,2,n,0.6498004999994009,correct,n
359,2F4K,360,2,39.12062939032178,54.516279508410776,1.1278841437382872,56.39439709679072,2,v,1.0185177000003023,incorrect,b
360,2F4K,361,2,35.18222702979293,49.07872727733783,1.0391952999287448,51.67954728638007,2,b,0.6299006000008376,correct,b
361,2F4K,362,1,51.98627532210831,40.32948197031008,1.4738485258248908,43.88948108937242,2,n,0.5391683999987436,correct,n
362,2F4K,363,2,45.49134850032382,56.90506852823491,1.287649956737762,58.40253975473088,2,b,2.3429763999993156,correct,b
363,2F4K,364,2,45.14526560087884,27.23637603846996,1.2784165303513932,32.59476530281318,1,b,0.7334238000003097,incorrect,v
364,2F4K,365,1,61.66269604371068,50.1957269752879,1.8023521046624336,52.66105034441419,2,n,1.716396199999508,correct,n
365,2F4K,366,2,61.478610592159264,41.31834036976247,1.795465980367924,44.77170701889628,1,v,0.9578301000001375,correct,v
366,2F4K,367,2,46.98171614405344,31.750596546682253,1.3281807409861133,36.36899533297556,1,b,0.5202290000015637,incorrect,v
367,2F4K,368,2,37.11879184649284,57.79442139533103,1.0818974490497486,59.13775644207549,2,b,0.7515038000001368,correct,b
368,2F4K,369,2,56.57529456765586,69.917803198669,1.6214211163368877,68.25942438932742,2,v,0.7504193000004307,incorrect,b
369,2F4K,370,1,57.66079069161342,43.19288414714709,1.6584364391019286,46.44626645533082,2,n,1.358380900001066,correct,n
370,2F4K,371,2,59.45269703564543,39.30432636918246,1.7213982545272524,42.97656394975389,1,b,0.5383244000004197,incorrect,v
371,2F4K,372,1,59.169419667315125,42.13694831360136,1.7112880147330578,45.50280341446961,2,n,0.5330367000005936,correct,n
372,2F4K,373,1,56.72798322248045,73.89291775734512,1.626577425510452,70.79272043950378,1,n,0.5387016999993648,incorrect,c
373,2F4K,374,2,64.1859667476015,49.6782245609861,1.899446401183677,52.20699933497907,1,v,0.558755399999427,correct,v
374,2F4K,375,2,55.06639111426485,70.09699416228366,1.5713360296307344,68.37913313034461,2,v,0.8729272999989917,incorrect,b
375,2F4K,376,2,48.48445210370527,70.06410123889593,1.3703396896292843,68.35719668739911,2,v,0.7627241000009235,incorrect,b
376,2F4K,377,1,46.7063072398982,59.49277535986252,1.320596032914025,60.52089392135502,1,c,0.6415546999996877,correct,c
377,2F4K,378,2,34.735790913776384,49.57316249694277,1.0295926983419603,52.11467303386415,2,v,0.8364818999998533,incorrect,b
378,2F4K,379,1,67.44017967321962,55.588463657858114,2.03242961352567,57.301436258993895,2,n,0.5816080999993574,correct,n
379,2F4K,380,1,45.447043841476514,48.68414815572566,1.28646420467177,51.33159481560765,1,c,0.8973010000008799,correct,c
380,2F4K,381,1,56.57060610411702,37.52012349388578,1.6212630454416093,41.39385092540454,2,n,0.606066300000748,correct,n
381,2F4K,382,2,70.09519176584315,49.91152457873071,2.147794186551512,52.41184459268141,1,v,0.9093115000014222,correct,v
382,2F4K,383,1,56.4811377817394,38.71478431902083,1.618249584503825,42.45261339013946,2,n,0.762630100000024,correct,n
383,2F4K,384,2,52.77057288400737,41.1495593373493,1.4980826149969448,44.6210403121209,1,v,0.582065300000977,correct,v
384,2F4K,385,2,41.171054451609336,32.65830806690822,1.1770141247630634,37.14704137832479,1,b,0.6969598999985465,incorrect,v
385,2F4K,386,1,54.63853309874408,38.75929177392496,1.557417770501166,42.49213828764518,2,c,0.7090172000007442,incorrect,n
386,2F4K,387,1,42.58750411081603,60.6275499336518,1.2121977949495026,61.42863667593987,1,n,0.3995301000013569,incorrect,c
387,2F4K,388,1,65.20963015845622,56.819819576437645,1.9403123361477976,58.331692617006304,2,c,0.37668310000117344,incorrect,n
388,2F4K,389,2,43.737660718570936,33.41671455754337,1.2415392069592917,37.80123019950855,1,v,0.4059426000003441,correct,v
389,2F4K,390,2,51.60547654462103,31.480093999338514,1.462223959240601,36.13823611218382,1,v,0.660461800000121,correct,v
390,2F4K,391,1,38.86663234538757,50.82183468527255,1.1219426798098784,53.208698246870206,1,c,1.2360188000002381,correct,c
391,2F4K,392,2,40.70236640003443,51.28430465689832,1.165598553386683,53.61193977587928,2,v,0.5882978999998159,incorrect,b
392,2F4K,393,2,71.011635393865,47.36881104328347,2.189116997965063,50.16769635746576,1,v,1.291641300000265,correct,v
393,2F4K,394,1,79.14580021758528,61.5572893871523,2.592553941510691,62.16188334707138,2,n,0.5138136999994458,correct,n
394,2F4K,395,1,35.49562090766455,47.9423188621976,1.0459896869390457,50.67587829244418,1,c,0.5755067000009149,correct,c
395,2F4K,396,2,56.45669326760492,60.93937629113999,1.6174272220832666,61.6756392193067,2,b,0.7207950000010896,correct,b
396,2F4K,397,1,41.84170492321822,55.98788186368209,1.1935434997666032,57.63701210752554,1,c,0.8182438999992883,correct,c
397,2F4K,398,1,65.49221645582924,45.920003647769214,1.9517475973409837,48.879933740158,2,n,0.5997896999997465,correct,n
398,2F4K,399,1,30.02624557497307,44.950871910715705,0.933542343897888,48.016092389794245,1,c,0.6230638999986695,correct,c
399,2F4K,400,1,51.6066409143828,69.83975353688764,1.4622593636038228,68.2071261861539,1,n,0.865955600000234,incorrect,c
