,condition,trial,sub_task,x,y,xt,yt,cat,resp,rt,acc,correct_resp
0,2F4K,1,2,52.447447808557655,68.2274408183635,1.4880504445180336,67.33292720971997,2,v,4.187940900001195,incorrect,b
1,2F4K,2,2,49.13627124221018,57.31359979102736,1.3890399925398975,58.91893285203766,2,b,2.1291884999991453,correct,b
2,2F4K,3,1,32.89945165101172,50.11553937707722,0.9910182630181216,52.73228582235432,1,c,2.197333600001002,correct,c
3,2F4K,4,1,76.98870046768012,65.7838152452405,2.478832887098872,65.58052831040101,2,c,4.024077399999442,incorrect,n
4,2F4K,5,1,43.22407097879069,58.88691384195888,1.2283503709323205,60.216128946762126,1,c,1.3461647000003722,correct,c
5,2F4K,6,1,37.22569325598418,29.6955902411161,1.084305130580677,34.66531753704876,2,n,1.6254853000009462,correct,n
6,2F4K,7,1,54.05743513252566,64.08782782575432,1.5387118139858118,64.31551687288672,1,c,1.194531500001176,correct,c
7,2F4K,8,2,41.318915116636006,53.40500770046073,1.1806386311890842,55.60368313247823,2,v,1.6497247999996034,incorrect,b
8,2F4K,9,2,55.7178479646454,47.06807575510035,1.5927672243025826,50.02647761924639,1,v,1.2240376000008837,correct,v
9,2F4K,10,1,32.026595368279104,48.79587725390488,0.9731930085432046,51.56484993229903,1,c,2.2088354000006802,correct,c
10,2F4K,11,2,41.23211342954092,31.09737441575177,1.1785095119622355,35.855236945324414,1,v,1.819701399999758,correct,v
11,2F4K,12,2,62.06042163403289,53.51096485079241,1.8173202170928544,55.695079476606,1,b,1.1816433000003599,incorrect,v
12,2F4K,13,2,43.81772157664545,59.72441478414888,1.2436078661927892,60.89666326455206,2,v,0.8970736999999644,incorrect,b
13,2F4K,14,2,65.36347903849412,77.49468325093048,1.9465297185816897,73.11505875586731,2,v,1.3948071000013442,incorrect,b
14,2F4K,15,2,65.3950041914893,49.94704508696472,1.9478061788914545,52.58365109617094,1,b,0.666551399999662,incorrect,v
15,2F4K,16,1,46.97507535832443,35.40073371650139,1.3279973435009635,39.59279037177786,2,c,1.0612436999999773,incorrect,n
16,2F4K,17,1,52.27114310850428,38.73602956886583,1.4826050116541891,42.553325995514506,2,c,0.909338100000241,incorrect,n
17,2F4K,18,1,46.464076890977736,63.396746004445234,1.3139608646783898,63.78926352498603,1,c,0.853522499999599,correct,c
18,2F4K,19,1,60.97646358658651,40.305472391953614,1.7768155298484238,43.95815877127257,2,n,0.9336411999993288,correct,n
19,2F4K,20,1,71.86414373237143,54.53252271055382,2.2282703969474933,56.57222258181945,2,n,0.6850434999996651,correct,n
20,2F4K,21,1,46.23560250379674,33.06806886770617,1.3077330538686256,37.5525820946141,2,c,0.8304570999989664,incorrect,n
21,2F4K,22,2,38.50982401771896,23.472571697095116,1.1136490964704464,29.60314793023921,1,v,1.1754576999992423,correct,v
22,2F4K,23,2,34.86835556010571,46.036965621283926,1.032434793493731,49.10432002344589,2,v,0.7757959999999002,incorrect,b
23,2F4K,24,1,63.27970061737624,75.26106431742765,1.8639859925866065,71.8565138613435,1,n,1.0117898999997124,incorrect,c
24,2F4K,25,1,58.60541894101574,47.83935674541658,1.691335149938036,50.71440295025384,2,c,1.0791942000014387,incorrect,n
25,2F4K,26,2,61.19047892996442,73.12770175171075,1.7847405559528071,70.57153838071312,2,b,4.975823499999024,correct,b
26,2F4K,27,2,46.15930854849439,55.13276646339672,1.3056599956854458,57.08403286361796,2,v,1.2858854000005522,incorrect,b
27,2F4K,28,1,50.30655883417331,63.55427665187646,1.423257562001258,63.9097551338724,1,c,2.062409000000116,correct,c
28,2F4K,29,1,50.69460409132877,39.66833636749285,1.4347885354618946,43.38721501266002,2,n,4.843745000000126,correct,n
29,2F4K,30,2,54.76864797369533,41.04875471786618,1.561637323536747,44.62505924514722,1,b,5.0,correct,v
30,2F4K,31,1,65.90886466193072,46.088076902366886,1.9687309175459984,49.15008812736205,2,n,1.3042517000012595,correct,n
31,2F4K,32,1,42.84190199399461,56.822268751897184,1.2186273797108518,58.509100994509296,1,c,0.6787285000009433,correct,c
32,2F4K,33,2,47.9542967491863,61.61377147450052,1.355315660613455,62.40431735331138,2,b,1.8378676000011183,correct,b
33,2F4K,34,2,56.0382318197443,47.84099437109624,1.6034139760905202,50.71586165362004,1,v,1.0484028999999282,correct,v
34,2F4K,35,2,44.33433561836336,35.72595348439983,1.2570395733812152,39.87949593852253,1,b,0.701912500000617,incorrect,v
35,2F4K,36,1,33.85257457810805,56.06305896584228,1.010855819548113,57.87166227116607,1,n,1.0853247999984887,incorrect,c
36,2F4K,37,2,59.88517318256655,77.25449440448472,1.7369487603783742,72.98408972074448,2,b,1.018706700000621,correct,b
37,2F4K,38,2,56.739596411088485,42.77607062683196,1.6269702742604808,46.17692270027272,1,v,0.9214710000014747,correct,v
38,2F4K,39,1,64.88837304727787,56.1042004374261,1.9273935622447345,57.90633094416593,2,n,1.152194000000236,correct,n
39,2F4K,40,2,47.48156224725575,61.03130443770856,1.342057856072986,61.94375557958576,2,v,1.2978917000000365,incorrect,b
40,2F4K,41,2,68.14244013426976,48.51767362184434,2.062327144745612,51.31783512293254,1,v,2.312404599999354,correct,v
41,2F4K,42,2,62.05824773987063,79.89429373115141,1.8172380672467876,74.36436239170841,2,v,0.7506583999984286,incorrect,b
42,2F4K,43,2,57.71441999418995,67.02396846326955,1.6602869424679372,66.4806080075223,2,v,2.871006999999736,incorrect,b
43,2F4K,44,1,27.838307834937535,47.67266394974374,0.8920207869308295,50.565877773905655,1,c,0.8000664999999572,correct,c
44,2F4K,45,2,50.44824051197297,62.15478106105076,1.4274569288986354,62.82858334653661,2,v,1.03676970000015,incorrect,b
45,2F4K,46,2,49.22110394237715,65.56892840995972,1.3914924860698012,65.42238772378371,2,b,0.6426737000001594,correct,b
46,2F4K,47,1,37.995529181321366,53.47474211331774,1.1018026786565085,55.6638430918663,1,n,0.7697451000003639,incorrect,c
47,2F4K,48,2,40.7845028163221,33.19720995070084,1.167591072065287,37.66471266236027,1,b,1.1268315999986953,incorrect,v
48,2F4K,49,1,62.7155038380637,43.19516273299053,1.8422452261056332,46.55359655271075,2,n,2.2328047000009974,correct,n
49,2F4K,50,2,71.39336607550356,52.72905973641524,2.206563066841941,55.018873744998366,1,v,0.7284148999988247,correct,v
50,2F4K,51,2,55.64753419609043,48.51112153016928,1.5904400873544822,51.31201410291041,1,v,0.830333599998994,correct,v
51,2F4K,52,1,42.64122812384263,56.26246697894412,1.2135527698856157,58.03956457473082,1,c,1.0549709999995684,correct,c
52,2F4K,53,2,31.24842334015291,49.12244854834135,0.957571885500363,51.85442985177226,2,b,0.8306220000013127,correct,b
53,2F4K,54,1,42.18730066280495,56.661712902600414,1.202151748402632,58.37471215075607,1,c,0.9821443999990151,correct,c
54,2F4K,55,1,44.16006334454067,49.73917394430937,1.252492444293595,52.40010207958107,1,n,2.1655503999991197,incorrect,c
55,2F4K,56,1,32.05307184679764,50.13864040631652,0.9737289600254828,52.752653760364566,1,c,0.4905775999995967,correct,c
56,2F4K,57,2,51.448380305987705,29.668597700629817,1.4574550700509843,34.64256012627127,1,b,0.6968756999995094,incorrect,v
57,2F4K,58,1,37.60615966149349,55.30450744147869,1.0929177182068437,57.22995974797399,1,c,0.8303802999998879,correct,c
58,2F4K,59,2,39.21085838118221,52.65366917333176,1.1300023331624032,54.9534654795633,2,v,0.751723100000163,incorrect,b
59,2F4K,60,1,41.59638550065528,54.237916244010655,1.1874704107795768,56.32003153539236,1,n,1.352197600001091,incorrect,c
60,2F4K,61,1,36.08368110096527,59.11260088623119,1.0588589584312786,60.40022392423035,1,c,0.5087636000007478,correct,c
61,2F4K,62,1,36.32846342088816,46.82734430283655,1.064262402354171,49.81141672863164,1,c,0.5026829999987967,correct,c
62,2F4K,63,1,54.72287145892212,65.15797661069689,1.560151514706413,65.11820514825457,1,n,1.0610328000002482,incorrect,c
63,2F4K,64,1,42.95104691185606,49.04310361343538,1.2213963232308385,51.78411133052552,1,n,1.0538067999987106,incorrect,c
64,2F4K,65,1,50.45466438178929,38.486668324255234,1.427647622212897,42.33066015625722,2,n,1.0246626999996806,correct,n
65,2F4K,66,1,52.535392901471575,41.080350277855466,1.4907742315881836,44.65342421422136,2,n,0.8914495999997598,correct,n
66,2F4K,67,1,44.83603994651038,56.23966790837264,1.270222471745475,58.02038466784475,1,c,0.8607365999996546,correct,c
67,2F4K,68,1,35.22216506712682,45.179444828131416,1.0400586977709116,48.33570854137352,1,n,1.0731632999995782,incorrect,c
68,2F4K,69,1,32.31763031002673,19.46513171332673,0.9791005346038004,26.578791224244803,2,n,1.5343769999999495,correct,n
69,2F4K,70,2,69.53165169993132,46.25967919289088,2.122772186265177,49.30371054882981,1,v,1.0853174000003492,correct,v
70,2F4K,71,2,62.84721144574704,53.198681097022046,1.847297651063167,55.42549364414842,1,v,0.6179400000000896,correct,v
71,2F4K,72,2,33.04912906461838,53.10637611014645,0.9941075672543436,55.34568492214996,2,b,0.6604968999999983,correct,b
72,2F4K,73,1,78.19947241502744,58.13132651703548,2.542035490241794,59.5961078903851,2,n,0.9824612000011257,correct,n
73,2F4K,74,2,48.78974852096441,64.13342096380882,1.3790669099515762,64.35002088798407,2,v,0.9032614000007015,incorrect,b
74,2F4K,75,2,40.18044818832479,62.18424636239045,1.153016729476057,62.85159139278144,2,b,1.0550218999997014,correct,b
75,2F4K,76,2,68.63516571296901,47.57134850936199,2.083566247177354,50.47556203428631,1,v,1.2309194999997999,correct,v
76,2F4K,77,1,41.433867523143306,54.38043618742191,1.1834641677945914,56.44211206466693,1,n,0.7393582999993669,incorrect,c
77,2F4K,78,1,61.87564488700454,47.15473681316426,1.8103508810121889,50.1038592704122,2,c,0.6787621999992552,incorrect,n
78,2F4K,79,2,52.23546937589952,65.89845114137697,1.481505601713908,65.66463192618575,2,v,1.0610489999999118,incorrect,b
79,2F4K,80,1,35.85986198156969,58.46669947749335,1.0539422804875378,59.8719997521955,1,n,1.0670322999994823,incorrect,c
80,2F4K,81,2,65.34752452825067,52.73157220945235,1.945884035820053,55.02105292950042,1,v,5.0,incorrect,v
81,2F4K,82,2,61.59848168378351,46.396098101826965,1.7999470298656486,49.42578976345462,1,v,1.4241738000000623,correct,v
82,2F4K,83,1,37.05265491479516,43.69224958999437,1.0804105610666943,47.00031708925338,1,c,1.0418319000000338,correct,c
83,2F4K,84,2,44.4506731815224,52.99062765331688,1.2600842491501834,55.24552758321296,2,b,0.6424537000002601,correct,b
84,2F4K,85,2,38.7161600721206,56.04736757370314,1.1184376267690648,57.85843587670864,2,b,0.49805430000014894,correct,b
85,2F4K,86,1,50.983931274769226,68.44650693488879,1.443446801983371,67.4857676851521,1,n,1.5587384999998903,incorrect,c
86,2F4K,87,2,45.51517144568728,54.62623524255187,1.288287996234528,56.65230842219417,2,b,1.3462844000005134,correct,b
87,2F4K,88,2,47.27852643732002,35.27544220442288,1.3364036176013503,39.48247098391985,1,v,2.4340246000010666,correct,v
88,2F4K,89,2,53.84653680064533,39.4866474180601,1.5319785569148867,43.2245483766926,1,v,0.6181118999993487,correct,v
89,2F4K,90,2,36.23075202832741,42.94324959136781,1.062102174795092,46.32718227182043,2,b,0.5647975000010774,correct,b
90,2F4K,91,1,37.20510525990109,57.0467971465996,1.0838410222706507,58.696654377883135,1,c,1.3645022000000608,correct,c
91,2F4K,92,2,68.73297681304241,61.81284012734755,2.087808376545089,62.56082784094144,1,v,2.871979999999894,correct,v
92,2F4K,93,2,34.59809210612644,46.39872097136247,1.026648814121509,49.42813651637368,2,b,0.703015699999014,correct,b
93,2F4K,94,1,63.87059219946363,80.56209643136407,1.887030532220644,74.69265093969922,1,n,1.4677902000003087,incorrect,c
94,2F4K,95,2,59.08893451355343,49.5277416795812,1.708426327100783,52.21321176914421,1,v,1.6983022000003984,correct,v
95,2F4K,96,2,55.74539860184284,41.68469239257531,1.5936799811155191,45.19617133805468,1,v,0.6422640000000683,correct,v
96,2F4K,97,1,59.42321784062466,51.75739345918817,1.7203433562351458,54.17320420025023,2,c,0.8425685000001977,incorrect,n
97,2F4K,98,2,45.016123105533374,59.93941286788104,1.2749880216095908,61.07018966717998,2,b,0.6837614999985817,correct,b
98,2F4K,99,2,58.66563452362769,46.79749969924125,1.693454278045691,49.784744049147,1,v,0.7212751000006392,correct,v
99,2F4K,100,1,47.85255264514098,35.66907006042543,1.3524512380588505,39.82931321850021,2,c,1.1646209999998973,incorrect,n
100,2F4K,101,1,59.24557525855799,71.01062109271454,1.7140001761959738,69.21974072145981,1,n,0.7879618999995728,incorrect,c
101,2F4K,102,2,41.6226873432767,53.39407203626506,1.1881200533220893,55.59424594175031,2,v,4.115162500000224,incorrect,b
102,2F4K,103,1,57.94420664438648,36.92170549669849,1.6682392408209026,40.93765576538182,2,n,1.5526147000000492,correct,n
103,2F4K,104,1,58.13040748422204,42.09378811345237,1.6747110802813094,45.56373836933411,2,n,0.6543035999984568,correct,n
104,2F4K,105,1,61.93713903323009,53.767930725628105,1.812667320464598,55.91641366059397,2,n,0.7454350999996677,correct,n
105,2F4K,106,1,77.34877682784972,61.76920869752894,2.497463000408516,62.52656368434598,2,c,0.6786983999991207,incorrect,n
106,2F4K,107,1,61.94600054890867,45.38229954152264,1.8130013715179167,48.51764623471609,2,c,1.200105200001417,incorrect,n
107,2F4K,108,1,57.54302428636047,53.97008669464546,1.6543800901728205,56.09021516036125,2,n,0.7757586000006995,correct,n
108,2F4K,109,1,51.69492189765591,61.89259428592144,1.4649461737388494,62.623401984121486,1,n,0.7021146000006411,incorrect,c
109,2F4K,110,2,63.5377028919499,42.21335559959709,1.8740131633748072,45.671185811762506,1,v,0.6828476999999111,correct,v
110,2F4K,111,2,32.51785127297,51.15028341622845,0.983185495942716,53.64204198647138,2,b,0.8535195000004023,correct,b
111,2F4K,112,2,55.80591978951326,36.99913444865109,1.595686894291234,41.006376041493446,1,v,1.0549540000010893,correct,v
112,2F4K,113,2,45.45734356881077,56.99779014624759,1.2867397649781098,58.6557560608873,2,b,0.5320415000005596,correct,b
113,2F4K,114,2,55.87049782972689,43.03229447634639,1.5978311219142318,46.40721489958531,1,v,0.47238819999984116,correct,v
114,2F4K,115,2,51.39336351860192,39.37690132230713,1.4557886337553918,43.12632710084341,1,v,1.3159083999998984,correct,v
115,2F4K,116,1,48.16295248850365,37.68961346101141,1.361208980602309,41.62016416448164,2,n,1.661863799999992,correct,n
116,2F4K,117,2,55.35224506550136,40.79564991607698,1.580704126712486,44.39787800914707,1,v,0.6474753000002238,correct,v
117,2F4K,118,2,44.060531551713005,60.46544898177106,1.2499028346480334,61.49267233670746,2,v,1.922845099999904,incorrect,b
118,2F4K,119,1,64.62037534806778,52.1740043708741,1.9166823501932868,54.53648745064814,2,c,0.79301249999844,incorrect,n
119,2F4K,120,1,47.04542652166568,35.881929842198865,1.329941507564899,40.01717474272763,2,n,1.7476435999997193,correct,n
120,2F4K,121,2,63.19732428554767,44.91730922702861,1.8607957780014115,48.10051149858028,1,v,3.1688410000006115,correct,v
121,2F4K,122,2,76.61306604375146,56.28547167444618,2.4595459041801724,58.05891299388562,1,v,0.7697016000001895,correct,v
122,2F4K,123,2,40.65317703471553,56.59105061135985,1.1644069140219138,58.31549480037469,2,b,0.6351842000003671,correct,b
123,2F4K,124,1,34.6473688353368,48.56793975244212,1.0277013405863908,51.362487399489645,1,n,0.9396655000000464,incorrect,c
124,2F4K,125,2,36.009197549362696,45.30903893279292,1.0572202226946144,48.45194726796189,2,b,2.202049800000168,correct,b
125,2F4K,126,1,49.94606981092619,34.69479819877362,1.412628486117976,38.97223401538169,2,c,1.898260100000698,incorrect,n
126,2F4K,127,2,38.36406961659584,53.4448192441387,1.1102788723560997,55.638032628659616,2,b,1.1763881999995647,correct,b
127,2F4K,128,1,48.274606005281925,40.2158280999019,1.3643730659644495,43.87778315461574,2,c,0.9760913999998593,incorrect,n
128,2F4K,129,1,45.00266296552026,60.5871723723118,1.2746312078276238,61.59000566473105,1,n,0.8607787000000826,incorrect,c
129,2F4K,130,1,36.06947787574826,49.65923506475688,1.0585462729817574,52.32946510616566,1,n,0.7333198999986053,incorrect,c
130,2F4K,131,1,68.95616818030042,54.957762687940736,2.097520695657649,56.935096822886464,2,n,1.0478335000007064,correct,n
131,2F4K,132,2,63.71995721839704,52.38304685563487,1.8811289090857932,54.71838361704969,1,v,0.5269351999995706,correct,v
132,2F4K,133,1,47.435996333750985,32.900186581234024,1.340786836315628,37.406969949323816,2,c,0.8486016999995627,incorrect,n
133,2F4K,134,1,61.71836853907738,52.77684428668669,1.8044398544693872,55.06031265070217,2,n,0.769759000000704,correct,n
134,2F4K,135,2,45.14216750017406,60.00327941334667,1.2783341733293294,61.12164232145073,2,v,0.8182723999998416,incorrect,b
135,2F4K,136,1,40.2742016253381,49.88904348937162,1.1552667834194614,52.532455654923766,1,n,1.2736365999990085,incorrect,c
136,2F4K,137,2,53.59907899108379,35.778742704053215,1.524115640438305,39.92608005807945,1,v,0.6787169999988691,correct,v
137,2F4K,138,2,44.31269328976362,56.13668013982804,1.256473983108813,57.933690575054406,2,b,0.8971706000011181,correct,b
138,2F4K,139,1,65.081137856648,49.21377532581584,1.935134892288733,51.93533557198602,2,c,0.5076095000003988,incorrect,n
139,2F4K,140,1,52.30049673251635,35.267052930325384,1.4835102573285484,39.47508693980112,2,n,0.8234933999992791,correct,n
140,2F4K,141,2,45.80227223544355,31.05741732168202,1.2960021998414355,35.82110718497976,1,v,0.6048709999995481,correct,v
141,2F4K,142,1,48.27797170301851,61.75149455921589,1.364468558661958,62.51264627348331,1,n,1.9764986999998655,incorrect,c
142,2F4K,143,2,40.18250884990897,55.11924599946207,1.1530661375932127,57.07253482258052,2,v,1.1581709000001865,incorrect,b
143,2F4K,144,2,30.27082786559897,49.31586868111803,0.9383023840111304,52.0257387564746,2,b,0.8608117000003404,correct,b
144,2F4K,145,1,42.68556056323955,25.32158507730575,1.2146720201533971,31.065158258190923,2,n,0.9752946000007796,correct,n
145,2F4K,146,2,56.35336099692488,40.87802691391441,1.6139555321609664,44.471808865354255,1,v,0.7697267999992619,correct,v
146,2F4K,147,2,39.007503387473065,54.49902030349898,1.125234039635194,56.54357586452197,2,b,0.8428688000003604,correct,b
147,2F4K,148,1,66.30857880652108,50.34629653763293,1.985162853501959,52.93562858402493,2,n,0.8426137000005838,correct,n
148,2F4K,149,1,40.99653090113492,52.15367186346593,1.1727503464531932,54.518781294935934,1,n,0.854720899998938,incorrect,c
149,2F4K,150,1,70.551817093626,60.86106371093115,2.1682851734469835,61.80841897066069,2,n,0.7993513999990682,correct,n
150,2F4K,151,2,49.83382036533244,36.826879028816286,1.4093350281746633,40.853526095930185,1,v,0.7758260000009614,correct,v
151,2F4K,152,2,38.666501393140585,60.67975902957532,1.117283298223969,61.66393136491573,2,b,0.6363768999999593,correct,b
152,2F4K,153,1,51.92229783912288,35.53350501682766,1.471889059238846,39.70977804159789,2,n,0.7036995000016759,correct,n
153,2F4K,154,1,50.11350021384143,57.96490207864708,1.4175552896121535,59.458798187089485,1,n,1.0859204000007594,incorrect,c
154,2F4K,155,2,56.78432805919863,71.89702595413802,1.6284843347727485,69.79478122035887,2,v,0.9460872999989078,incorrect,b
155,2F4K,156,2,46.08385986359518,53.13970925280147,1.303613137058568,55.37451189119102,2,v,3.0105860000003304,incorrect,b
156,2F4K,157,1,65.9101631676961,45.56373857109788,1.968784077282916,48.68031949888152,2,n,0.7636611999987508,correct,n
157,2F4K,158,2,61.764025191991365,50.33072880671302,1.8061538093039071,52.92191832818401,1,v,1.5399236000012024,correct,v
158,2F4K,159,1,65.93133870794607,41.14308589008738,1.969651188738764,44.70974861408392,2,n,3.5203424000010273,correct,n
159,2F4K,160,1,47.50742315388648,34.81467142401948,1.3427797584628929,39.07743079360607,2,n,1.4265914000006887,correct,n
160,2F4K,161,2,54.5107711400314,69.69208914135221,1.5532856152724386,68.3409221819897,2,v,4.095713400000022,incorrect,b
161,2F4K,162,2,51.9202340617373,37.25297588087965,1.471825894410059,41.23182480497108,1,v,0.8803920999998809,correct,v
162,2F4K,163,2,39.418862860325625,50.52865254770733,1.134900553480099,53.09613890471533,2,v,0.8333141000002797,incorrect,b
163,2F4K,164,1,62.89886720295338,52.98835740303514,1.8492829942771272,55.24356225942056,2,c,0.8182699999997567,incorrect,n
164,2F4K,165,2,48.8436769692715,42.70497535610296,1.380614277598089,46.11302291584346,1,v,3.775256900000386,correct,v
165,2F4K,166,1,37.34595442587627,51.820138036339486,1.0870201116094664,54.22798183959624,1,c,0.939636099999916,correct,c
166,2F4K,167,1,55.710896932644346,69.47292395318348,1.5925370181496223,68.19218660373963,1,n,0.763700900000913,incorrect,c
167,2F4K,168,1,38.19302865226111,55.15066244366242,1.1063369612177314,57.09924972663071,1,c,1.8075434000002133,correct,c
168,2F4K,169,2,46.9663857140219,54.10041869830014,1.3277574012744011,56.20211337272105,2,v,0.6604758000012225,incorrect,b
169,2F4K,170,1,37.62355617809125,43.31080516929895,1.093313153140914,46.65752952367808,1,c,1.8745741000002454,correct,c
170,2F4K,171,2,53.8911313288011,46.85604382326608,1.533399845785547,49.8370638638288,1,b,0.703005999999732,incorrect,v
171,2F4K,172,1,64.75893974264834,47.68644063161717,1.9222129768026448,50.5781562797813,2,c,1.1581630000000587,incorrect,n
172,2F4K,173,2,51.17051408044425,70.34511505731999,1.4490580814040743,68.77962906922097,2,b,1.9354305999986536,correct,b
173,2F4K,174,2,51.19503900318622,63.10459244639991,1.4497972625871625,63.56497980272129,2,b,0.6362102000002778,correct,b
174,2F4K,175,1,46.071190448326405,57.51443242946418,1.3032697413933332,59.08582310533248,1,n,0.7029878000012104,incorrect,c
175,2F4K,176,2,30.030371750054183,48.79373279434952,0.9336224465731696,51.56294700231402,2,b,2.117238400000133,correct,b
176,2F4K,177,2,53.41527030093514,65.85685304851876,1.5183012932463835,65.63413409492082,2,v,0.7272544000006747,incorrect,b
177,2F4K,178,2,40.09969480796559,52.5608973112994,1.1510821862032778,54.87292838943833,2,v,2.1776007000007667,incorrect,b
178,2F4K,179,1,63.88573713050821,54.59148447625319,1.8876249083112715,56.62261839993163,2,c,2.350036600000749,incorrect,n
179,2F4K,180,2,59.843617611707145,76.81309226750727,1.735448469921067,72.74063700256453,2,v,3.405060900000535,incorrect,b
180,2F4K,181,2,38.77274753195349,52.24938391857911,1.119754470459483,54.60210860656394,2,b,4.564107000000149,correct,b
181,2F4K,182,2,52.55350693810277,63.949868073140586,1.491335868483937,64.21094839617923,2,b,0.8061672999992879,correct,b
182,2F4K,183,1,53.31567156690901,60.634265593093,1.5151599973968934,61.62761900200933,1,n,0.5087958999993134,incorrect,c
183,2F4K,184,2,39.464401740021984,49.72664659024646,1.1359757615385202,52.38903430971602,2,v,0.8729052999988198,incorrect,b
184,2F4K,185,1,52.75839209898825,38.51389088261753,1.4977032102523034,42.35496001641119,2,n,0.9275197000006301,correct,n
185,2F4K,186,1,51.951435333846256,40.21415962758364,1.4727811428818172,43.87628732135977,2,n,0.6239316999999573,correct,n
186,2F4K,187,1,58.67549979662469,50.2350187252869,1.6938017132693608,52.8376024011649,2,n,0.8733052999996289,correct,n
187,2F4K,188,1,50.2267258787986,29.83959700904676,1.420896801170586,34.78683204668178,2,n,0.9460224000013113,correct,n
188,2F4K,189,2,49.61459851514997,35.09367720501253,1.4029250685867802,39.32256327477401,1,v,1.6132987999990291,correct,v
189,2F4K,190,2,44.08706948018097,56.563455597580734,1.25059277226464,58.29235747686974,2,v,0.7210489000008238,incorrect,b
190,2F4K,191,2,48.15664234281581,64.69245038878277,1.361030380207364,64.77088386093241,2,v,1.867218800000046,incorrect,b
191,2F4K,192,1,74.27946314036288,59.18911263933528,2.3430437521656358,60.46251808998396,2,n,2.5918128000012075,correct,n
192,2F4K,193,1,59.865063725631664,70.22114946069564,1.736222582081422,68.69686609547328,1,c,0.6847462999994605,correct,c
193,2F4K,194,1,75.94231349748667,62.56849380030896,2.425478523059993,63.15068193347642,2,c,0.5146870999997191,incorrect,n
194,2F4K,195,1,52.82973467933401,64.4317994546247,1.4999267427087355,64.57516237415167,1,c,3.6355586999998195,correct,c
195,2F4K,196,2,51.187118374950906,38.62800532990216,1.449558493633598,42.45684532918544,1,b,0.7818764000003284,incorrect,v
196,2F4K,197,2,51.08202734329126,64.94445111361718,1.446394222645793,64.95925627777423,2,v,1.2491448000000673,incorrect,b
197,2F4K,198,2,54.82150262683425,39.07808814246866,1.563354633966196,42.859033615146906,1,b,1.3764910000008967,incorrect,v
198,2F4K,199,2,39.39534318208718,46.30298964744233,1.134345634343294,49.342472946749645,2,b,0.7697709999993094,correct,b
199,2F4K,200,2,65.19498714427421,49.0578530227961,1.939721614718944,51.79718473602159,1,v,0.5816322999999102,correct,v
200,2F4K,201,2,37.23391182392914,51.53688723694651,1.0844904545056182,53.98051903359684,2,b,2.0018748000002233,correct,b
201,2F4K,202,2,54.9962770001999,65.41643619131588,1.569046719253092,65.30978184786484,2,v,0.5391313999989507,incorrect,b
202,2F4K,203,1,56.64655719330342,46.79369552470179,1.6238256240955224,49.78134402346979,2,c,2.2822823999995308,incorrect,n
203,2F4K,204,1,55.79979766719339,46.43311505523844,1.5954837667776165,49.4589083747917,2,n,0.9881860000004963,correct,n
204,2F4K,205,1,51.56318363045879,37.114767221296894,1.4609385622911435,41.109045422760026,2,n,0.751540200000818,correct,n
205,2F4K,206,2,55.975281597621546,34.07631816287876,1.6013164593780642,38.43069977252548,1,v,1.977452600000106,correct,v
206,2F4K,207,2,47.541698783137086,64.22529968301703,1.3437371547023944,64.41947125328056,2,v,0.5937377000009292,incorrect,b
207,2F4K,208,1,37.63232834270393,55.31578596042702,1.0935126048087762,57.23953488250663,1,c,1.7771663000003173,correct,c
208,2F4K,209,1,42.751795282193896,55.220627934586965,1.216346155458679,57.15871698046627,1,c,0.8304412000015873,correct,c
209,2F4K,210,1,61.552236212649305,49.73641487876774,1.7982169472341876,52.39766453745793,2,n,0.5997812999994494,correct,n
210,2F4K,211,2,59.484328339677056,39.29662870376996,1.7225308843898512,43.05450135762822,1,v,0.8911404999998922,correct,v
211,2F4K,212,2,52.69195210690513,38.36656870853314,1.4956354409834756,42.22348003772847,1,v,0.8243573999989167,correct,v
212,2F4K,213,2,56.62222626016165,43.871632459058105,1.6230042613306188,47.16149560697664,1,v,0.7212008999995305,correct,v
213,2F4K,214,2,41.704739903391726,54.74713036657735,1.1901489958003997,56.7555269328038,2,b,0.6301856999998563,correct,b
214,2F4K,215,2,44.86722045216307,55.04120161215717,1.2710463261405045,57.00613668787974,2,b,0.5694598000009137,correct,b
215,2F4K,216,2,62.743723308945206,50.19175183909086,1.8433265864816812,52.7994720441737,1,v,0.6488458999992872,correct,v
216,2F4K,217,2,59.64966268729107,41.30875991237996,1.728463191037113,44.85851236318672,1,v,0.9941759999983333,correct,v
217,2F4K,218,2,39.24440478272142,57.69608177358282,1.1307908727163964,59.23645163158594,2,b,0.8125759000013204,correct,b
218,2F4K,219,1,47.90839069011946,38.40925308425896,1.35402250760801,42.26156797038994,2,n,1.783280300000115,correct,n
219,2F4K,220,2,46.41902295431232,63.567648420687966,1.312730430270229,63.91996850160305,2,b,2.318701599999258,correct,b
220,2F4K,221,1,68.06843208850925,54.52475774400736,2.059155758972869,56.56558377744086,2,c,0.9528986000004807,incorrect,n
221,2F4K,222,1,54.225202138748536,30.127632827274425,1.5440891642056715,35.03039163644368,2,c,3.077558200000567,incorrect,n
222,2F4K,223,2,63.4067240744405,49.13345868090381,1.8689159933075663,51.864185446722495,1,v,1.6586213999999018,correct,v
223,2F4K,224,1,60.77666818489524,73.47582920242054,1.769448834801942,70.78661295638275,1,c,0.8308075999993889,correct,c
224,2F4K,225,1,47.60004629968692,59.81873242222011,1.345368503808261,60.97284783887574,1,n,0.6362180000014632,incorrect,c
225,2F4K,226,1,59.5752834026818,50.87708580850738,1.7257918887536123,53.40237061796847,2,c,1.6743287000008422,incorrect,n
226,2F4K,227,1,50.30834617555968,36.2783601101176,1.423310460798559,40.3675870843765,2,n,1.497978299999886,correct,n
227,2F4K,228,1,41.08994666579428,53.59655261649633,1.1750306588131705,55.76884984016707,1,c,1.091383599999972,correct,c
228,2F4K,229,1,61.23521903875845,52.560836621858186,1.7864017519712625,54.87287568615561,2,c,1.7164649000005738,incorrect,n
229,2F4K,230,2,51.710117343087646,63.94794893865812,1.4654091411642305,64.20949203655458,2,v,1.2554769999987911,incorrect,b
230,2F4K,231,1,60.74025240355871,75.04869853840441,1.7681094359132856,71.73217609682463,1,c,0.8546893000002456,correct,c
231,2F4K,232,2,55.14705739173156,47.46706740844037,1.5739740132581448,50.38256988733828,1,v,0.8367113999993308,correct,v
232,2F4K,233,2,38.09465553851072,44.190395295598535,1.1040761388955025,47.44785464165175,2,b,0.7576346999994712,correct,b
233,2F4K,234,1,34.41619993837548,53.09264137615666,1.0227730123372676,55.33380480999711,1,n,1.7894343000007211,incorrect,c
234,2F4K,235,2,36.33416265416454,52.59249686217907,1.0643885379328757,54.9003666223059,2,b,1.9955418999998074,correct,b
235,2F4K,236,2,47.37930527378147,60.63148221767999,1.3392071710458913,61.62539660068159,2,v,0.9084882999995898,incorrect,b
236,2F4K,237,2,53.3841344211485,39.11326582069232,1.5173185835650396,42.89048961885106,1,v,0.5330706999993708,correct,v
237,2F4K,238,2,37.35730891879079,61.0747722238087,1.087276798276187,61.978259102515786,2,b,1.4615785000005417,correct,b
238,2F4K,239,2,38.47372241047053,51.840957649811855,1.11281338066236,54.24615290044927,2,b,1.1581581000009464,correct,b
239,2F4K,240,1,56.39813232612096,43.65071088784288,1.6154588141256268,46.96299124197192,2,n,1.2066930000000866,correct,n
240,2F4K,241,2,53.75815853695553,37.24698452325815,1.5291657115296378,41.226500859872544,1,v,2.170890600000348,correct,v
241,2F4K,242,1,36.144001107389016,23.67826301088759,1.0601879389373476,29.76383707858667,2,c,1.346276799999032,incorrect,n
242,2F4K,243,1,40.3646276504316,29.07242236400962,1.1574411402710028,34.141498247971704,2,n,2.2823293000001286,correct,n
243,2F4K,244,1,38.91078969357486,58.32035625522367,1.122973350142256,59.75174579348253,1,n,1.1642988000003243,incorrect,c
244,2F4K,245,2,57.86230800451483,41.34382020060265,1.6654005899532176,44.8899977019897,1,v,0.7759442999995372,correct,v
245,2F4K,246,1,73.14967273448556,56.7465693242365,2.28863942143405,58.445767059499225,2,c,1.8924610000012763,incorrect,n
246,2F4K,247,2,41.9259902353414,54.74208563911905,1.1956372144980387,56.75122202192954,2,b,2.2328864999999496,correct,b
247,2F4K,248,1,23.95827776280164,43.77959075617969,0.8228767881956299,47.07879700551882,1,n,1.376642900000661,incorrect,c
248,2F4K,249,1,45.645801366689646,59.2303069475653,1.2917922240015596,60.496032847401175,1,c,1.0358732999993663,correct,c
249,2F4K,250,2,74.13165663884779,55.55109267146044,2.3358533462201096,57.43907246737344,1,v,2.8890659000007872,correct,v
250,2F4K,251,1,56.05830400417841,49.46434955658582,1.60408336368197,52.15714008336134,2,n,2.3490809999984776,correct,n
251,2F4K,252,2,57.75723502922036,72.68870844057966,1.6617657767688867,70.29738513656784,2,v,1.7043441999994684,incorrect,b
252,2F4K,253,1,53.93478390681639,39.17332675162425,1.5347923905157417,42.94420324289322,2,n,2.992339799999172,correct,n
253,2F4K,254,1,60.16121982832481,46.11496085016456,1.7469479146347011,49.17415943304576,2,n,0.8621997999998712,correct,n
254,2F4K,255,1,56.706113391251286,43.81493356850275,1.6258378744918065,47.11055281696014,2,n,2.16093759999967,correct,n
255,2F4K,256,1,55.801428606331775,68.84958356796191,1.595537877611264,67.76509921354199,1,n,1.3025795000012295,incorrect,c
256,2F4K,257,1,54.78475867656122,41.929759844974335,1.5621605794355768,45.41634870271769,2,n,0.9639363999995112,correct,n
257,2F4K,258,2,60.1673840815225,72.16557251352835,1.7471718563375358,69.96644229420113,2,v,0.6181366000000708,incorrect,b
258,2F4K,259,1,47.93575401214789,30.615570364179284,1.354793171452147,35.444507693635934,2,n,0.6303965000006428,correct,n
259,2F4K,260,1,52.650024552353216,29.865294434842284,1.4943320260629036,34.80853386919028,2,n,0.6301722999996855,correct,n
260,2F4K,261,1,44.17627301260794,62.99526669533876,1.2529146937976094,63.48077889312842,1,c,1.059955800001262,correct,c
261,2F4K,262,2,38.98487915971596,49.71459255421023,1.1247047892448905,52.37838405390793,2,b,0.9663801999995485,correct,b
262,2F4K,263,2,55.25517709491498,40.94589831962056,1.5775167380693311,44.53272796178184,1,v,0.9429645000000164,correct,v
263,2F4K,264,1,60.36335169542074,49.2389100571386,1.7543061639051536,51.95759625584532,2,n,0.7090573000004952,correct,n
264,2F4K,265,2,42.14559204997224,61.16057246792423,1.2011095667224696,62.04630238327009,2,b,1.0304035000008298,correct,b
265,2F4K,266,1,33.91309896859221,51.77460474686079,1.0121288526002308,54.18823234673695,1,n,0.9754932999985613,incorrect,c
266,2F4K,267,2,60.81629621319882,78.77945579334359,1.7709075353296873,73.79740847047363,2,v,0.6067473000002792,incorrect,b
267,2F4K,268,1,46.1985213128889,36.38522089935172,1.3067250735256777,40.46215928663149,2,n,0.9092826000014611,correct,n
268,2F4K,269,2,28.00299836367249,43.75473000176089,0.8950808767825328,47.056458960288936,2,b,0.6301626999993459,correct,b
269,2F4K,270,1,65.30997747253326,44.05421178599818,1.9443653426942409,47.32552439495096,2,c,0.9447720999996818,incorrect,n
270,2F4K,271,2,28.1568190660671,36.41258165267041,0.8979484765688415,40.48638136322867,2,b,0.6604981000000407,correct,b
271,2F4K,272,1,56.85922444741504,48.59877570155157,1.6310225556426572,51.38987489534685,2,n,0.8244950999996945,correct,n
272,2F4K,273,2,46.492746595153264,36.74529527250033,1.314744441932803,40.78117333748483,1,b,0.7638195999988966,incorrect,v
273,2F4K,274,1,37.02629549374506,49.5037829495742,1.0798185192471852,52.19202178679882,1,c,1.1701331999993272,correct,c
274,2F4K,275,1,52.20730115222317,64.70817388698514,1.4806380761357836,64.78266193043982,1,n,0.6170051999997668,incorrect,c
275,2F4K,276,2,41.3567740970953,27.856649832162997,1.181568461246717,33.129422617977085,1,b,0.751573699999426,incorrect,v
276,2F4K,277,1,53.1932375652352,36.21144507686903,1.511307392001075,40.30839167748511,2,n,1.8257023999995,correct,n
277,2F4K,278,1,30.98596799310735,48.19066146359942,0.9523600708477604,51.02712234562641,1,n,0.781999499999074,incorrect,c
278,2F4K,279,2,49.643972774128976,72.09775187670057,1.4037822658102286,69.92320290514618,2,v,2.518984800000908,incorrect,b
279,2F4K,280,2,45.26122455354857,34.46395710172808,1.2815028939603166,38.76986909547087,1,v,1.5283216999996512,correct,v
280,2F4K,281,2,52.231084151295406,41.10465331764938,1.4813705120706788,44.67524309547494,1,v,3.168185000000449,correct,v
281,2F4K,282,1,20.771267411438632,38.12726252317352,0.7701108470610706,42.01004299486132,1,n,2.9377745000001596,incorrect,c
282,2F4K,283,2,54.95553289752437,38.86436540082859,1.5677179077361365,42.66798818636804,1,v,0.6969091000009939,correct,v
283,2F4K,284,1,52.79876839749419,57.22471170351682,1.4989612121865887,58.84494996132779,1,c,0.842564599999605,correct,c
284,2F4K,285,2,40.72161492906469,27.78914099885902,1.1660651914710716,33.07362341452687,1,v,1.0184661000002961,correct,v
285,2F4K,286,1,30.6132132364152,44.67245507025615,0.9450066568014204,47.88073669246613,1,n,1.1328957000005175,incorrect,c
286,2F4K,287,1,64.34742813581109,53.997640969275295,1.905834501327461,56.1138823263674,2,c,0.4420254999986355,incorrect,n
287,2F4K,288,1,79.66691867886274,59.38786621757288,2.6208005418452305,60.624058955535766,2,c,0.872946100000263,incorrect,n
288,2F4K,289,2,34.57524046577707,46.65704042918424,1.0261610803537833,49.65918270754424,2,b,3.732758100000865,correct,b
289,2F4K,290,1,61.06861230649033,47.62787228998445,1.780223490118149,50.52595300122282,2,n,1.3767373999999108,correct,n
290,2F4K,291,2,65.43647755545621,73.7560895115267,1.949486719465797,70.958247984254,2,v,1.0863525999993726,incorrect,b
291,2F4K,292,1,47.97108614868719,62.51863291137225,1.355788918815504,63.11197139047171,1,n,3.5143088000004354,incorrect,c
292,2F4K,293,1,53.44269016737864,45.92712800500036,1.5191672452705696,49.005946715553975,2,n,1.5432674000003317,correct,n
293,2F4K,294,2,61.70960379266708,47.6522725821412,1.804111011239224,50.547702825141016,1,v,0.9154222999986814,correct,v
294,2F4K,295,1,35.96608892804638,49.85905259894664,1.0562729354905185,52.50597803013695,1,n,2.0381581999990885,incorrect,c
295,2F4K,296,1,58.1958592166741,46.64955335751427,1.6769919649890548,49.65248837783728,2,n,2.6341604000008374,correct,n
296,2F4K,297,1,64.4876038798131,76.30656309790136,1.911397870512135,72.4568751900161,1,c,0.7515539999985776,correct,c
297,2F4K,298,2,68.6316272581105,51.903833677001046,2.083412943804093,54.30101499187322,1,v,2.2277140999995027,correct,v
298,2F4K,299,2,48.30773715821872,60.94149892673485,1.365313365048543,61.87240317621835,2,b,1.00044650000018,correct,b
299,2F4K,300,1,43.117091570225625,27.97545613723858,1.2256208514465474,33.22772587607289,2,n,0.6240691999992123,correct,n
300,2F4K,301,2,30.22348814815992,49.06259011608339,0.9373791719824692,51.80138335941409,2,b,0.5925994000008359,correct,b
301,2F4K,302,1,22.728446937924858,43.00147728834277,0.8020996610768723,46.37951680644078,1,n,0.4911333000000013,incorrect,c
302,2F4K,303,1,59.00546363094014,44.14955974926657,1.7054635353775185,47.41117470135228,2,n,0.6786931999995431,correct,n
303,2F4K,304,1,29.694509061878247,39.12235244441374,0.9271246805091172,42.89861539913546,1,n,0.8668679000002157,incorrect,c
304,2F4K,305,2,67.43788036825164,49.2976464523383,2.032332439895938,52.00960622710479,1,v,0.6301736000004894,correct,v
305,2F4K,306,1,51.8755760075967,36.4407621063259,1.470459735196462,40.5113323660806,2,n,0.7454948000013246,correct,n
306,2F4K,307,1,35.71455976045246,52.95770570190416,1.050762626543411,55.2170242422644,1,c,1.5950794000000315,correct,c
307,2F4K,308,2,44.43115995292148,29.06078849171937,1.259573053295857,34.131750833102195,1,v,1.0237212000010913,correct,v
308,2F4K,309,2,52.23437102681402,30.099658970315843,1.481471765212891,35.00670766025391,1,v,0.7686584000002767,correct,v
309,2F4K,310,1,67.50485082851917,54.00484089664064,2.035164661203141,56.12006566378775,2,c,1.977440700000443,incorrect,n
310,2F4K,311,1,49.01168501141787,60.43023712224471,1.38544606703154,61.46448572156257,1,c,0.8191455000014685,correct,c
311,2F4K,312,2,50.01658154315449,30.257340766337823,1.4147012722315493,35.140290865091785,1,v,0.7334093999998004,correct,v
312,2F4K,313,1,65.0860247114571,49.08329550062122,1.935331549312476,51.81973408612,2,n,1.3269571000000724,correct,n
313,2F4K,314,2,33.30090270814721,42.542608041396406,0.9993258514479684,45.96709089481321,2,b,1.6669347999995807,correct,b
314,2F4K,315,2,64.06991967514172,50.70249371923785,1.8948683141117448,53.24900146026832,1,v,0.6128137000014249,correct,v
315,2F4K,316,1,56.647758438634,50.471135566301335,1.6238661864580983,53.04552984457794,2,n,2.256600200000321,correct,n
316,2F4K,317,1,44.87576709692526,53.8395501266374,1.2712722397221872,55.97802053837752,1,c,1.2787616999994498,correct,c
317,2F4K,318,1,50.8514312211592,63.99603942840243,1.4394752029856732,64.24597186267347,1,c,0.7879484000004595,correct,c
318,2F4K,319,2,33.987019866227115,21.21603697223637,1.0136858345651003,27.87444309281646,1,b,1.176358499998969,incorrect,v
319,2F4K,320,1,22.47954494426704,32.309940219175466,0.7979589016037568,36.89646838135629,1,n,1.1099221000004036,incorrect,c
320,2F4K,321,2,59.59893190725994,51.57098894934139,1.7266407674027602,54.01033606835396,1,v,3.6475867999997718,correct,v
321,2F4K,322,2,57.966361389322586,49.96438235142806,1.669007967307946,52.59895095023068,1,v,0.6908430999992561,correct,v
322,2F4K,323,2,73.11690485709488,60.961549198020414,2.287080499216084,61.88834139386882,1,v,0.6419320999993943,correct,v
323,2F4K,324,1,40.28134815773275,59.7074518508352,1.1554384780206102,60.882951607143,1,c,1.8017601999999897,correct,c
324,2F4K,325,1,44.34876797403652,26.729309965669675,1.2574168831584505,32.20339865825819,2,n,1.0609839000007923,correct,n
325,2F4K,326,2,41.5680722311586,49.20163035075269,1.186771483978317,51.924578391867726,2,v,1.777147299999342,incorrect,b
326,2F4K,327,1,49.761217317361165,64.30608177877282,1.407208906959173,64.48044329664984,1,c,1.1581755999995949,correct,c
327,2F4K,328,2,42.79473269380016,62.50465254679221,1.2174326652866152,63.101112053710224,2,v,3.988788900000145,incorrect,b
328,2F4K,329,2,56.08933021267615,43.89907398321523,1.605118607061685,47.186150499917474,1,v,0.7454344000016135,correct,v
329,2F4K,330,1,51.33795109839877,71.22736709305104,1.454112139881002,69.3615372096424,1,c,1.0054334000014933,correct,c
330,2F4K,331,2,41.37869337328905,59.20430334277669,1.1821071411755646,60.4748789209307,2,b,0.6657390000000305,correct,b
331,2F4K,332,2,28.50663035630712,44.47714178735208,0.9045040769063648,47.70537736511731,2,b,0.7636978000009549,correct,b
332,2F4K,333,2,49.318092338838746,33.133085592278505,1.3943017036670002,37.6090217962765,1,v,1.1691993000004004,correct,v
333,2F4K,334,2,43.14609486804587,60.57767151673117,1.226360254446759,61.582414375105714,2,b,1.1106143000015436,correct,b
334,2F4K,335,1,58.76266129693288,45.46096220954776,1.6968744660018915,48.588179881663855,2,n,0.666581599998608,correct,n
335,2F4K,336,1,48.786413928236215,69.81656423876956,1.378971287517316,68.42506293634925,1,c,0.5816199000000779,correct,c
336,2F4K,337,1,71.97291383131969,59.54546146477382,2.2333160265793324,60.75185797086208,2,c,2.0017509999997856,incorrect,n
337,2F4K,338,1,47.42489084752452,57.98553909139895,1.3404772413529944,59.47583924675193,1,n,1.2004489000009926,incorrect,c
338,2F4K,339,1,49.321689863658975,53.57312060111226,1.3944060130838036,55.74865814672897,1,n,2.4089241000001493,incorrect,c
339,2F4K,340,1,55.09366420963042,39.0370988482301,1.5722274311535007,42.82238467110584,2,n,0.8130202000011195,correct,n
340,2F4K,341,2,44.15655887232333,64.87660088490814,1.2524011741723222,64.90862076712479,2,b,0.9882005999988905,correct,b
341,2F4K,342,1,42.24161709776245,46.65031239163925,1.2035103200654964,49.65316705061631,1,c,1.4616009999990638,correct,c
342,2F4K,343,1,66.39835155284098,53.48696821182759,1.9888721606334892,55.67438716626765,2,c,2.0138487000003806,incorrect,n
343,2F4K,344,1,68.82000001755691,46.28593925919649,2.091589888095068,49.32721352740969,2,n,0.8000529999990249,correct,n
344,2F4K,345,1,46.35892151166719,42.29839791711196,1.3110908382031294,45.74761145812906,2,c,1.4130224999989878,incorrect,n
345,2F4K,346,2,36.239984128897454,45.76797000255288,1.062306092638025,48.86335842506556,2,b,0.956997199999023,correct,b
346,2F4K,347,1,44.78608327183847,56.700149943516166,1.2689036245739398,58.40690538724358,1,c,2.239819600001283,correct,c
347,2F4K,348,2,64.75265709223582,51.13997509324047,1.9219618675319456,53.63300582827706,1,v,0.7757774000001518,correct,v
348,2F4K,349,2,57.60504922689431,41.72017654485667,1.6565152405515948,45.2280489632977,1,v,1.7407941000001301,correct,v
349,2F4K,350,2,69.58954591373018,52.28707972424557,2.125329280362064,54.63491160947635,1,v,0.5451919000006455,correct,v
350,2F4K,351,2,48.14309481731301,31.9556640452666,1.36064701443055,36.59117667819012,1,v,0.7515399000003526,correct,v
351,2F4K,352,2,45.04296514644764,48.374552369109125,1.2756998733708982,51.190647637095694,2,b,0.8839453999989928,correct,b
352,2F4K,353,2,45.26049560543483,62.84411181308448,1.2814834690227326,63.364119377587286,2,b,2.0915688000004593,correct,b
353,2F4K,354,1,37.205533811092856,56.48421002875276,1.0838506809320774,58.22587656624245,1,n,0.5338542000008601,incorrect,c
354,2F4K,355,2,49.24630932578105,70.26516752190948,1.3922220018790423,68.72628174651967,2,b,0.9699796000004426,correct,b
355,2F4K,356,1,58.117389832667214,41.63653359924853,1.6742578066316192,45.152908832473486,2,n,1.029404799999611,correct,n
356,2F4K,357,2,61.8545378538628,47.283113388521066,1.8095564771237764,50.218451100773066,1,v,1.0125021000003471,correct,v
357,2F4K,358,2,64.91038115244827,52.63773097110878,1.928275827451983,54.93963304102546,1,v,0.9214640999998664,correct,v
358,2F4K,359,1,54.46789108281858,38.228806642977474,1.5519012210317833,42.10058921850971,2,n,0.9882023999998637,correct,n
359,2F4K,360,2,51.48706746264794,43.39819309206042,1.4586280305984394,46.73606635337726,1,v,0.9278242000000319,correct,v
360,2F4K,361,2,49.41952442251177,62.90200788819347,1.397245697614972,63.40883602609835,2,v,3.5273895999998786,incorrect,b
361,2F4K,362,2,66.47981742883252,45.502944542125256,1.9922442356170271,48.625819488451135,1,v,1.9059111000005942,correct,v
362,2F4K,363,1,49.34949327837157,27.864821262400604,1.395212430040666,33.136179607270456,2,n,1.4423160000005737,correct,n
363,2F4K,364,1,54.54043838123611,41.9465712751833,1.554244152901457,45.43145412796075,2,n,0.8122106999999232,correct,n
364,2F4K,365,2,43.35979417817798,62.22461743648228,1.2318220219442078,62.8830984765312,2,b,1.2480592000010802,correct,b
365,2F4K,366,1,54.323621593796,44.03829360087805,1.5472524944306083,47.31122451375461,2,n,1.2916347999998834,correct,n
366,2F4K,367,2,48.726615306236575,54.41165216324941,1.3772576335694489,56.46883136243645,2,v,1.4615954000000784,incorrect,b
367,2F4K,368,2,48.52180280711834,34.23599899522843,1.3714044267699392,38.57031381450589,1,b,1.5404811999997037,incorrect,v
368,2F4K,369,2,44.23706510579595,61.65807160179546,1.2544995499426743,62.43918654781867,2,b,2.3307939000005717,correct,b
369,2F4K,370,2,32.2612034712881,45.57045968901004,0.9779523678804276,48.68634438210397,2,b,0.7029787999999826,correct,b
370,2F4K,371,1,61.541491732866064,53.57418754508743,1.7978152251752575,55.74957762896113,2,c,0.8242377000005945,incorrect,n
371,2F4K,372,2,35.60225042465902,55.42423862402096,1.0483115314335651,57.33155651656607,2,b,1.2977074000009452,correct,b
372,2F4K,373,1,48.53526536307221,34.23696383608955,1.3717883996709717,38.57115783773205,2,n,0.7392792999999074,correct,n
373,2F4K,374,1,39.754687322352176,47.87677249704892,1.1428536111614005,50.74772859880397,1,n,2.3612190000003466,incorrect,c
374,2F4K,375,1,44.58144240284116,55.94435284843022,1.2635154208572503,57.771552982297145,1,c,0.8015059000008478,correct,c
375,2F4K,376,2,20.870912969322017,39.77130593749196,0.7717082258801031,43.479434533386005,2,v,3.446694000000207,incorrect,b
376,2F4K,377,1,52.07437505995812,62.32746408180701,1.4765510653478375,62.96327602449319,1,c,0.8211053000013635,correct,c
377,2F4K,378,1,63.89665372805248,42.562673795689534,1.8880534558540265,45.98512529950427,2,n,1.4555533999991894,correct,n
378,2F4K,379,1,64.48421449935006,46.74499324137136,1.9112631595832177,49.73781253490026,2,c,3.7510149000008823,incorrect,n
379,2F4K,380,2,39.65604207773035,52.03767684737233,1.1405117123657085,54.417722350825,2,b,0.6026233000011416,correct,b
380,2F4K,381,2,44.60082069743463,55.591798786589806,1.2640246700169149,57.47354576983548,2,b,0.7817197999993368,correct,b
381,2F4K,382,2,54.43807872343966,74.13808565700214,1.5509394481462375,71.19000108791877,2,v,1.6011500999993586,incorrect,b
382,2F4K,383,2,36.10477960519296,20.472194066303068,1.0593236146682874,27.318934530960338,1,b,0.5441592000006494,incorrect,v
383,2F4K,384,2,53.96697460031493,64.50853633600906,1.5358201039877957,64.63287644564743,2,v,1.0055298000006587,incorrect,b
384,2F4K,385,1,35.209735027142486,55.27664803263605,1.0397899029072244,57.20630361013901,1,c,1.0853237999999692,correct,c
385,2F4K,386,2,71.4487071821113,51.10644586052282,2.2091038102856064,53.60361057286828,1,v,0.5452280999998038,correct,v
386,2F4K,387,1,40.64998075056354,53.59573000431711,1.1643295244507423,55.76814104759343,1,c,1.0852878000005148,correct,c
387,2F4K,388,2,66.43792081615388,50.602820125230345,1.9905093172761812,53.16137463145178,1,v,0.551270600000862,correct,v
388,2F4K,389,2,50.0070353269006,58.83948164868504,1.4144204706021866,60.17737286218127,2,b,0.9639362999987497,correct,b
389,2F4K,390,2,37.36536062474183,53.59074506984116,1.0874588568347772,55.76384574740949,2,b,0.7029990999999427,correct,b
390,2F4K,391,2,49.71004774685808,61.69300380081879,1.4057123748835303,62.46666607808504,2,b,0.9519997999996122,correct,b
391,2F4K,392,2,67.77011940244373,51.71814087293687,2.0464218624179207,54.138924221056094,1,v,0.5270017000002554,correct,v
392,2F4K,393,2,41.391088112939954,34.92791760505667,1.1824118583514664,39.17688025803516,1,b,0.8304207999990467,incorrect,v
393,2F4K,394,1,48.83883972142952,42.48817414201783,1.380475411710795,45.918168021635246,2,n,1.7468215000008058,correct,n
394,2F4K,395,2,45.19944937455933,56.638715085980586,1.279857759473342,58.3554439878137,2,b,1.600612700000056,correct,b
395,2F4K,396,1,27.625924323110304,42.6137434256336,0.8880899608016277,46.03102524870303,1,n,2.1608171999996557,incorrect,c
396,2F4K,397,1,50.90689377657706,42.66204636601361,1.4411363238831163,46.07443895601178,2,n,1.5103579999995418,correct,n
397,2F4K,398,1,57.17801308020128,44.30625222161731,1.641870558207458,47.551913445200206,2,n,0.963934600000357,correct,n
398,2F4K,399,2,67.58159624314374,47.04567817623234,2.038415124687764,50.00647495606805,1,v,0.5026866999996855,correct,v
399,2F4K,400,2,43.17991529995422,21.62053932284381,1.227223027665132,28.179589199427102,1,v,2.4764813000001595,correct,v
