,condition,trial,sub_task,x,y,xt,yt,cat,resp,rt,acc,correct_resp
0,2F4K,1,1,34.06784059547367,44.09998915628341,1.015390887439643,47.286077256099496,1,c,5.0,NA,c
1,2F4K,2,1,48.115183165966265,35.67471929931185,1.3598575152331926,39.77162114773907,2,c,5.0,NA,n
2,2F4K,3,1,36.27286243622928,49.81904608578846,1.0630326239021275,52.377956840526174,1,c,0.5330555999998978,correct,c
3,2F4K,4,1,54.95963232002833,42.38730003270254,1.5678515536936068,45.75059559410383,2,c,0.08529809999981808,incorrect,n
4,2F4K,5,1,43.26116140708714,56.20489905621439,1.229298130802867,57.88531691488441,1,n,3.58616770000026,incorrect,c
5,2F4K,6,2,40.761834368207296,48.272752769433765,1.167040826037165,51.010697820967295,2,v,1.771080499999698,incorrect,b
6,2F4K,7,1,56.20829492051211,33.20277640718327,1.6090942674372022,37.61201572119927,2,c,3.0722561000002315,incorrect,n
7,2F4K,8,1,48.68981225005408,63.53670188689515,1.376204024217473,63.77648963397829,1,c,1.4140919999999824,correct,c
8,2F4K,9,1,75.0591061901764,54.98113371074882,2.3813392854026536,56.8516521153533,2,c,1.9469785000001139,incorrect,n
9,2F4K,10,2,45.05687427721088,61.16043003680831,1.2760689002715606,61.930746341556905,2,b,3.8481286999995064,correct,b
10,2F4K,11,2,43.40855564747583,54.12830664645311,1.2330716813482887,56.12442470287401,2,b,1.9338727999993353,correct,b
11,2F4K,12,2,34.37043431874744,48.67723423748598,1.021800133656876,51.36925043189736,2,v,1.7589422999999442,incorrect,b
12,2F4K,13,2,46.83300088385463,59.28426833653254,1.3240797568778346,60.42804361249579,2,b,1.5830413000003318,correct,b
13,2F4K,14,2,43.70588718900081,28.068178526280967,1.2407191780714155,33.257375596268034,1,b,0.9326529999998456,incorrect,v
14,2F4K,15,1,53.93767647485456,44.24311345519257,1.5348847099208882,47.41433091452321,2,c,5.0,incorrect,n
15,2F4K,16,2,47.60982634841922,63.92845144261839,1.345642139757612,64.07414620082159,2,b,1.0069124999999985,correct,b
16,2F4K,17,2,63.71380691182145,44.58502210688636,1.8808883430747223,47.72063716396464,1,b,1.1039092999999411,incorrect,v
17,2F4K,18,1,53.61051424578942,64.90671792632727,1.5244781021310532,64.80880746454328,1,c,4.194008999999824,correct,c
18,2F4K,19,1,46.80154091930286,60.645430365568046,1.3232138383295686,61.52206276933601,1,c,1.0549554999997781,correct,c
19,2F4K,20,2,39.82571586950185,58.15156209402996,1.1445428498421983,59.5031231268928,2,b,1.40134499999931,correct,b
20,2F4K,21,2,58.60276786066482,45.32377706406764,1.6912419131485792,48.3819856814814,1,b,1.1581138999999894,incorrect,v
21,2F4K,22,1,61.43158339471189,48.31242128842536,1.7937110468736774,51.04588796122208,2,c,1.5100800000000163,incorrect,n
22,2F4K,23,1,52.28855428616557,73.98720159923526,1.483141893783552,70.96180994121057,1,c,4.987922499999513,correct,c
23,2F4K,24,2,53.07141671123295,42.18443286363381,1.5074838030129205,45.56871435062896,1,b,0.7515278000000762,incorrect,v
24,2F4K,25,1,48.54092970732901,30.311385971212022,1.371949987653719,35.134489445001435,2,c,1.1576647000001685,incorrect,n
25,2F4K,26,1,57.94927882709298,50.53380335704247,1.6684152044217964,53.00647868873276,2,n,1.2429492000001119,correct,n
26,2F4K,27,2,49.585089680684895,65.17260857369754,1.4020644712283967,65.00630776484796,2,b,1.2916691000000355,correct,b
27,2F4K,28,1,76.90158349896456,56.92165080695181,2.4743464311521044,58.48493463827048,2,n,5.0,correct,n
28,2F4K,29,1,41.23719919282887,28.74880318477197,1.1786341523854882,33.8222899046467,2,n,2.299062699999922,correct,n
29,2F4K,30,2,69.08161949987185,59.14093773889744,2.102999613605384,60.31171440037125,1,v,1.6072460999994291,correct,v
30,2F4K,31,2,67.6671316993421,58.73562868147124,2.0420439980531166,59.98163606084104,1,v,1.819729599999846,correct,v
31,2F4K,32,1,59.354932299548246,48.40319916300328,1.7179022746085448,51.12639655182971,2,c,1.4494026000002123,incorrect,n
32,2F4K,33,1,53.91633705235487,39.1311954344154,1.5342037700185025,42.8365497513534,2,n,1.1826246000000538,correct,n
33,2F4K,34,1,56.499549261262665,68.1796121149733,1.618869259607317,67.17154056292834,1,n,1.1763445000005959,incorrect,c
34,2F4K,35,1,49.49030354578113,72.7191139010214,1.39930369261057,70.18138635298098,1,n,2.068440699999883,incorrect,c
35,2F4K,36,2,40.2260815330471,61.1476523485324,1.1541113679225383,61.92064239981342,2,v,2.348141299999952,incorrect,b
36,2F4K,37,2,39.589303203342645,54.32051309592405,1.1389300127039392,56.28879302637193,2,b,3.2412059999996927,correct,b
37,2F4K,38,2,42.74654736135776,55.38045614130424,1.2162134259517017,57.19026396353192,2,b,0.8654798999996274,correct,b
38,2F4K,39,1,67.64966862493911,54.97124060442592,2.041302596205352,56.843247363075534,2,c,1.1391707999991922,incorrect,n
39,2F4K,40,2,42.70465281666952,56.18143827070197,1.215154355564193,57.865615754153566,2,b,1.3412766999999803,correct,b
40,2F4K,41,1,28.037501214127676,42.953925589692005,0.8957232978510562,46.25865490442676,1,c,2.9872146999996403,correct,c
41,2F4K,42,1,58.36906563404307,62.86194297629178,1.683042921281804,63.25928901746153,1,n,1.2430946999993466,incorrect,c
42,2F4K,43,1,29.230970752669165,41.36911446250123,0.918231049893534,44.83797378502148,1,c,1.1704202000000805,correct,c
43,2F4K,44,1,24.24212702674164,43.44229615224898,0.827748164032419,46.69653582747304,1,c,0.9517620999995415,correct,c
44,2F4K,45,2,33.829898245689606,44.535900672213415,1.0103792718715714,47.676638109787454,2,b,1.819112000000132,correct,b
45,2F4K,46,1,48.88357797288492,58.73784066284119,1.3817602735379717,59.98344192773903,1,c,1.7228500999999596,correct,c
46,2F4K,47,1,53.84524644228976,61.84612831767153,1.5319374510382875,62.47022659889665,1,c,0.9827687000006335,correct,c
47,2F4K,48,2,30.672209114570144,43.63696081704839,0.9461666880110524,46.87105430889882,2,b,1.067098900000019,correct,b
48,2F4K,49,1,40.9171274437316,51.71895935523929,1.170815559252702,54.04297926140208,1,c,0.7515772000006109,correct,c
49,2F4K,50,1,48.822573735538725,38.30198873222826,1.3800085563646292,42.09765022020552,2,c,1.8016880000004676,incorrect,n
50,2F4K,51,1,19.873830773950605,36.10909512963524,0.755872560693642,40.15430006860232,1,c,1.8378585999998904,correct,c
51,2F4K,52,1,73.93182193633967,57.13799641310192,2.326166973736075,58.66504007151613,2,n,0.7889126000000033,correct,n
52,2F4K,53,1,47.74569014504569,58.40424691338067,1.3494492343869056,59.71055026744549,1,c,1.7897065999995903,correct,c
53,2F4K,54,2,46.54380359577218,59.705263339058135,1.3161410479964153,60.76850684824978,2,b,0.8790031999997154,correct,b
54,2F4K,55,1,25.008941542035096,39.83312688898117,0.8410527811415587,43.463345253746,1,c,1.3705595999999787,correct,c
55,2F4K,56,2,36.12080739886001,55.93896677118659,1.0596767339945323,57.66173066224884,2,b,0.9459247000004325,correct,b
56,2F4K,57,2,32.59235982844138,49.91293982843974,0.9847099867350796,52.46065791935965,2,b,1.1156191000000035,correct,b
57,2F4K,58,1,57.71734054212786,43.06498503774903,1.660387776560645,46.35823662480957,2,c,1.7104460000000472,incorrect,n
58,2F4K,59,1,61.90614283367492,53.9361728291952,1.8114993460887443,55.95985361732054,2,n,1.3159581999998409,correct,n
59,2F4K,60,1,47.74556531689774,30.356882571299693,1.349445731587798,35.17299776337824,2,c,1.655407500000365,incorrect,n
60,2F4K,61,2,54.37591369886035,36.76894817069486,1.5489358667290376,40.73717281368776,1,b,2.100334499999917,incorrect,v
61,2F4K,62,2,52.3406753224992,41.5353624999182,1.4847502336670586,44.98693533316403,1,v,2.1063654999998107,correct,v
62,2F4K,63,2,35.979697978197336,51.61322037592785,1.0565718948365714,53.95081197211648,2,b,1.7168354999994335,correct,b
63,2F4K,64,1,39.989160189795314,55.57941494713239,1.1484394589333573,57.358504338139,1,c,1.3462343000001056,correct,c
64,2F4K,65,2,31.4055256335446,45.27220662497992,0.9607052448727078,48.33584405927624,2,b,0.8898718999998891,correct,b
65,2F4K,66,2,78.11393363996831,61.85562131398042,2.5375179174062525,62.47765719985662,1,v,1.6133668000002217,correct,v
66,2F4K,67,1,39.27487197666749,51.29616155785705,1.1315075094204137,53.67407462110892,1,c,1.7105725000001257,correct,c
67,2F4K,68,2,63.22186228510554,52.86382051571413,1.8617454975707253,55.036675248755614,1,v,2.3793926999996984,correct,v
68,2F4K,69,1,52.88981929355499,37.39626456142072,1.5018019590482976,41.29289236312718,2,n,4.066581199999746,correct,n
69,2F4K,70,2,62.54235064172038,43.942389727024775,1.8356239295671688,47.1448334234232,1,v,1.170274000000063,correct,v
70,2F4K,71,2,43.26380990393523,53.15044732328568,1.2293658349632508,55.28418122048601,2,v,0.9447931000004246,incorrect,b
71,2F4K,72,2,52.45543296552733,40.88328396595869,1.4882975508559415,44.40282365970361,1,b,1.0187575999998444,incorrect,v
72,2F4K,73,1,45.72705189872541,65.42023282838613,1.293976625820761,65.18938625870202,1,c,1.0428076999996847,correct,c
73,2F4K,74,1,58.64892884552616,45.84289262382168,1.692866099920612,48.84620242491256,2,c,5.0,correct,n
74,2F4K,75,1,56.2947317166061,38.812253412649824,1.611989058503212,42.55212684556938,2,c,1.145869599999969,incorrect,n
75,2F4K,76,2,45.18911622843692,31.033670985224667,1.2795827837618414,35.74773659091352,1,b,0.8122217000000092,incorrect,v
76,2F4K,77,2,53.94876029005163,37.95394758988565,1.5352385131570725,41.78809549907851,1,b,0.9760165999996389,incorrect,v
77,2F4K,78,2,63.43297420950189,45.03703486083131,1.8699364311953304,48.12537740756471,1,v,1.1460001999994347,correct,v
78,2F4K,79,2,31.657104566636647,41.41736772121159,0.9657442829000245,44.881207051347545,2,b,0.8304217000004428,correct,b
79,2F4K,80,2,47.07700245315343,34.22947416806957,1.3308150379471388,38.50494734675252,1,b,0.9214387000001807,incorrect,v
80,2F4K,81,2,55.65971270232842,68.01540284472799,1.5908429092279226,67.05665885187682,2,b,1.3514062000003833,correct,b
81,2F4K,82,2,35.7898559765283,26.0392181469387,1.0524091371231348,31.59959945588801,1,v,0.8731035000000702,correct,v
82,2F4K,83,2,29.03580583458543,41.90067555921664,0.9145121072161873,45.31434209443851,2,b,1.6920092999998815,correct,b
83,2F4K,84,1,43.31426798665883,57.13013638267464,1.230656419510007,58.65850400702572,1,c,1.4242865000005622,correct,c
84,2F4K,85,1,43.32059812722356,31.663620183594087,1.230818423411956,36.28579429351699,2,n,2.6153313000004346,correct,n
85,2F4K,86,1,51.448555951750784,45.633368854080224,1.4574603933438812,48.658894343798806,2,n,1.9774678000003405,correct,n
86,2F4K,87,1,74.38892897112893,62.464744235722776,2.348383245795723,62.95222445029293,2,n,1.2794637999995757,correct,n
87,2F4K,88,2,45.91689237444512,56.57965828210648,1.2990948518108862,58.199385995907285,2,b,1.8682200000002922,correct,b
88,2F4K,89,2,49.139081321899766,37.77952747491384,1.389121162024903,41.63310540362534,1,v,2.524447400000099,correct,v
89,2F4K,90,2,35.23894465738674,41.78808762769527,1.040421660212112,45.21342643500866,2,b,0.962822700000288,correct,b
90,2F4K,91,2,54.0663981764105,65.46016511859219,1.5389986277568355,65.21883216132454,2,b,1.1884880999996312,correct,b
91,2F4K,92,1,35.95681028348654,50.147467375332205,1.0560691536362372,52.6670524233585,1,c,1.2481857000002492,correct,c
92,2F4K,93,2,23.424928157359403,42.03409535780621,0.8138009359253806,45.433940028838336,2,b,0.8971872000001895,correct,b
93,2F4K,94,2,49.561810616077295,66.34308535373701,1.4013859317595765,65.86430496393662,2,b,1.3211894000005486,correct,b
94,2F4K,95,2,45.739172633800464,59.053852492267175,1.2943028054522645,60.240932739099065,2,b,0.7090188000001945,correct,b
95,2F4K,96,2,50.13935965075754,37.12252482107159,1.4183177592578222,41.05021520090662,1,v,0.8304109000000608,correct,v
96,2F4K,97,1,56.47958915469265,62.75508771184632,1.6181974731846642,63.176870070979255,1,n,2.300475600000027,incorrect,c
97,2F4K,98,2,50.21820272766321,61.33386892945871,1.4206449923397475,62.06771003900504,2,b,1.7045499999994718,correct,b
98,2F4K,99,2,52.76397857726108,40.274350474529854,1.497877204870817,43.85784735126568,1,b,0.8248643999995693,incorrect,v
99,2F4K,100,1,23.194096175501556,33.78153403022408,0.8099040383802611,38.11461117694076,1,c,1.2794875999998112,correct,c
100,2F4K,101,1,49.56830471454833,43.13273262463932,1.40157518906953,46.41898190170314,2,n,2.9508624000000054,correct,n
101,2F4K,102,1,52.45604380379139,70.68147740728949,1.48831645536813,68.87099209805258,1,n,1.2686893999998574,incorrect,c
102,2F4K,103,2,39.881016186793154,59.9476525334113,1.145859759932322,60.96368991940136,2,b,1.1329939999995986,correct,b
103,2F4K,104,2,42.25875921332871,28.075367587793743,1.2039394001522503,33.2633203193414,1,b,3.1986951999997473,incorrect,v
104,2F4K,105,1,35.49757657518337,46.44563063109715,1.0460322250276786,49.384538583463566,1,c,1.206694399999833,correct,c
105,2F4K,106,2,36.968997345475984,51.30644270322354,1.0785327016266737,53.68305692491416,2,b,3.7084795999999187,correct,b
106,2F4K,107,1,43.465213049843086,31.9098937631528,1.2345252901952328,36.49692096977189,2,c,1.819641899999624,incorrect,n
107,2F4K,108,1,36.72366451068692,48.68196662742628,1.0730445210389938,51.373441906229694,1,c,1.4676581000003353,correct,c
108,2F4K,109,2,50.59126466268586,61.407041763456405,1.4317086530963783,62.12539158504446,2,b,1.4737226999995983,correct,b
109,2F4K,110,2,46.99921394405071,35.98057844963595,1.328664096141777,40.04099094893848,1,b,1.4918901999999434,incorrect,v
110,2F4K,111,2,31.477544235732893,42.29684086420616,0.9621450602326892,45.66949225145618,2,b,0.9578315999997358,correct,b
111,2F4K,112,2,57.42229226303904,53.53121608743963,1.6502318924931731,55.61214253982631,1,b,4.095465299999887,incorrect,v
112,2F4K,113,1,49.45471467310429,72.11450040166072,1.398268521275411,69.79970460300525,1,c,0.8789806000004319,correct,c
113,2F4K,114,1,34.676068005762914,49.35836381211077,1.028314837776838,51.97162792290379,1,c,2.1828744999993432,correct,c
114,2F4K,115,2,50.68487443397935,64.13090686793383,1.4344982747697763,64.2272072453842,2,v,2.7798531999997067,incorrect,b
115,2F4K,116,2,40.25611909134869,52.52804240619644,1.1548324666040777,54.74605942722939,2,b,0.7825432000008732,correct,b
116,2F4K,117,1,36.75665749562011,52.01367663899114,1.073780957110399,54.299531812677245,1,c,0.7151172000003498,correct,c
117,2F4K,118,2,46.16584888720139,63.22436363408919,1.305837580810913,63.53778566705646,2,b,0.8414843999998993,correct,b
118,2F4K,119,1,57.085371908998056,40.8954116607903,1.6387106721801796,44.41368286541361,2,c,1.0307652999999846,incorrect,n
119,2F4K,120,1,52.97897027811027,28.862563309487665,1.5045886457494264,33.91711666616542,2,n,4.398899100000563,correct,n
120,2F4K,121,2,69.5674688926658,55.719399875288175,2.124353810784502,57.47668531660113,1,v,2.037950999999339,correct,v
121,2F4K,122,1,40.25602359060118,61.88230263025181,1.154830173245096,62.4985362445771,1,c,1.5088779999996405,correct,c
122,2F4K,123,1,41.71266411749606,57.511633605122505,1.190345123996263,58.975095043982925,1,n,1.1278092000002289,incorrect,c
123,2F4K,124,2,58.93855658871984,43.27186102892028,1.703092386052527,46.543727366850085,1,v,2.214408299999377,correct,v
124,2F4K,125,1,53.996807103693136,74.98957952838316,1.5367731447511102,71.55904585266073,1,c,1.928876300000411,correct,c
125,2F4K,126,1,45.81380485533171,58.76179179927453,1.2963130366981104,60.00299258246363,1,c,0.7869735000003857,correct,c
126,2F4K,127,2,48.9903777216279,35.51041762626436,1.3848323497622603,39.62709819951437,1,v,1.18234719999964,correct,v
127,2F4K,128,1,44.45422815881165,56.09893575230213,1.2601774026512054,57.796297637551405,1,c,2.7983572000002823,correct,c
128,2F4K,129,2,62.36536148380726,55.40896089117968,1.828880541567222,57.21438708739223,1,v,1.8501132999999754,correct,v
129,2F4K,130,1,36.38076724840336,52.34792500384126,1.0654205531326948,54.58987901318904,1,c,1.2850697000003493,correct,c
130,2F4K,131,1,39.58649155674208,23.28616512863492,1.1388634253449317,29.419933693710377,2,c,3.059474599999703,incorrect,n
131,2F4K,132,1,53.87737015190144,42.52490335726469,1.5329611175633209,45.87397178232203,2,c,1.2581215000000157,incorrect,n
132,2F4K,133,2,68.69185390768511,57.47047775526365,2.086023798825601,58.9410051689425,1,v,1.1875210999996852,correct,v
133,2F4K,134,1,33.67417434264957,51.55460157997549,1.007112765946405,53.899689859222136,1,c,0.9821772000004785,correct,c
134,2F4K,135,2,37.79306032676358,54.36923704729909,1.097173596929969,56.33041744225742,2,b,1.7700710999997682,correct,b
135,2F4K,136,2,21.849551949111586,33.57799800344744,0.787573546187326,37.9376314434761,2,v,1.6375899999993635,incorrect,b
136,2F4K,137,1,52.30369032531271,68.27654550164831,1.4836087788771908,67.2391672832255,1,c,3.113721199999418,correct,c
137,2F4K,138,2,52.96210810171212,38.59024563991811,1.5040611706216311,42.35430281313368,1,v,5.0,correct,v
138,2F4K,139,2,46.41745818959634,60.5005670780842,1.3126877168599325,61.406575457780505,2,b,1.3674379999993107,correct,b
139,2F4K,140,1,37.31949569381049,51.93583099226826,1.0864222043094118,54.23181571996805,1,c,0.8029402000001937,correct,c
140,2F4K,141,2,70.74782843982328,55.50295619175481,2.1771410123436725,57.29388797355874,1,v,0.7360065000002578,correct,v
141,2F4K,142,2,37.93369429861998,52.40701640057949,1.1003868689073346,54.64113925872984,2,b,1.364460699999654,correct,b
142,2F4K,143,1,45.44121166426823,64.59217473499615,1.286308195978524,64.57395569620843,1,c,0.9704498999999487,correct,c
143,2F4K,144,1,45.9353842057599,38.29890051591873,1.299594484680923,42.09490189100237,2,c,1.6863696999998865,incorrect,n
144,2F4K,145,1,77.53015090241107,64.02741904088111,2.5069001367864514,64.14903378811958,2,n,1.4008942999998908,correct,n
145,2F4K,146,2,63.59798763384409,48.79367748684382,1.8763638730774732,51.47235954655718,1,v,0.9882264999996551,correct,v
146,2F4K,147,1,42.36365301083627,58.18866723111506,1.2065683050806335,59.53362101897852,1,c,1.6863241000000926,correct,c
147,2F4K,148,1,58.247406966521865,43.86383728646035,1.6787905053651542,47.07442643715481,2,n,1.2256138000002466,correct,n
148,2F4K,149,2,41.326670660975466,25.244587470051357,1.180829050509379,30.9618113450454,1,v,0.5452085999995688,correct,v
149,2F4K,150,2,61.247710788139045,46.76988954328457,1.7868658455092048,49.67381085550971,1,v,1.2916405999994822,correct,v
150,2F4K,151,1,49.443444345737646,33.769750240272714,1.3979408616443687,38.104358253792434,2,c,0.7080312000007325,incorrect,n
151,2F4K,152,2,71.07139748754331,55.82781853990216,2.1918391437085267,57.568107232225294,1,v,0.8909427999997206,correct,v
152,2F4K,153,1,41.49836932221577,58.35526653849785,1.1850525863224883,59.67039088160113,1,c,0.9700843000000532,correct,c
153,2F4K,154,1,65.79410062016618,45.22344317334471,1.9640382390165312,48.2922101052051,2,n,1.2612625000001572,correct,n
154,2F4K,155,1,51.88616566368093,37.084359077094746,1.4707835744774698,41.01640203208401,2,n,1.018532199999754,correct,n
155,2F4K,156,1,46.87856865734715,37.12536442617156,1.325334990159568,41.05273118184539,2,n,3.9391639000004943,correct,n
156,2F4K,157,2,37.93256603660216,52.91492346529931,1.100361052429632,55.08084220817397,2,b,3.3010139000007257,correct,b
157,2F4K,158,1,44.67004594345839,28.05116766210604,1.2658455419194068,33.24331101620141,2,n,2.6413406000001487,correct,n
158,2F4K,159,2,42.14853648849453,26.62093097873736,1.2011831103636847,32.0706988101166,1,v,3.7094451000002664,correct,v
159,2F4K,160,2,56.61475343355269,38.53960731782826,1.6227520773250166,42.30919941230636,1,b,5.0,correct,v
160,2F4K,161,2,59.7345515060885,37.57910494615889,1.7315169918702549,41.455132896115686,1,v,2.5421940000005634,correct,v
161,2F4K,162,1,57.34485329754256,41.19305110395746,1.6475766657744069,44.68024663467821,2,c,0.9396562000001722,incorrect,n
162,2F4K,163,2,53.72577550396334,36.78067810226116,1.528136339001602,40.74755030337273,1,b,1.3826653000005535,incorrect,v
163,2F4K,164,2,39.029048958718505,48.86819974668185,1.125738288445376,51.53832094197834,2,b,0.7211589000007734,correct,b
164,2F4K,165,1,42.81362590415294,57.84650266305656,1.217911055999604,59.25188765737663,1,c,3.6295876000003773,correct,c
165,2F4K,166,1,48.01296685788998,36.23031213598688,1.3569701691570517,40.261239096584696,2,c,1.3401374999994005,incorrect,n
166,2F4K,167,2,60.651767972937385,44.49323468561944,1.7648591375248506,47.63841919726706,1,v,0.9882312999998248,correct,v
167,2F4K,168,2,55.86789753081439,43.00937400849098,1.5977447268116631,46.3083730142813,1,v,2.08677169999919,correct,v
168,2F4K,169,2,61.600782460190224,50.241488824207565,1.8000331473321265,52.74972343414013,1,v,0.5876070000003892,correct,v
169,2F4K,170,1,43.1487910383136,30.59520264049906,1.2264290126108788,35.37497846202527,2,n,1.522635000000264,correct,n
170,2F4K,171,1,51.47225853381927,68.9568291780549,1.4581789254335922,67.70980117582845,1,c,1.5101110000005065,correct,c
171,2F4K,172,1,46.98253837269206,27.439719057562627,1.3282034501009483,32.73957409483328,2,n,2.973021400000107,correct,n
172,2F4K,173,2,48.54186734339631,59.761178970721886,1.371976737638199,60.813587642777,2,b,2.0699393999993845,correct,b
173,2F4K,174,2,61.538132511415,46.82214811393504,1.797689646691111,49.72040654758147,1,v,1.0913413000007495,correct,v
174,2F4K,175,1,44.95818414657808,59.82432203947448,1.2734528323839334,60.864455893704026,1,c,1.6437590999994427,correct,c
175,2F4K,176,1,61.84578137525349,50.10525376307051,1.8092270124839929,52.629921396929696,2,c,2.877136199999768,incorrect,n
176,2F4K,177,1,43.53541670942061,38.82294265094431,1.236328820724689,42.56165499388881,2,c,1.0428365999996458,incorrect,n
177,2F4K,178,1,22.396021610316065,41.26179689245422,0.796574194340457,44.74182907541833,1,c,4.309333300000617,correct,c
178,2F4K,179,2,59.29675663491841,74.23915657660827,1.7158253350354622,71.11358044286736,2,v,3.9512997000001633,incorrect,b
179,2F4K,180,1,54.43323188205931,64.56783108007085,1.5507831411275268,64.55572526905557,1,c,2.0455112999998164,correct,c
180,2F4K,181,2,51.94847288116152,38.88334803697752,1.4726904187174714,42.61550458527468,1,b,3.2703208000002633,incorrect,v
181,2F4K,182,1,48.35515066861287,29.89594911389953,1.3666601407708954,34.78363201887424,2,c,1.3380036999997174,incorrect,n
182,2F4K,183,2,20.957545618665065,33.62831613244809,0.7730996921568879,37.98136163385306,2,b,0.727743599999485,correct,b
183,2F4K,184,1,57.981537543983485,49.75544610142535,1.6695347547318498,52.321915855617725,2,n,2.165812100000039,correct,n
184,2F4K,185,2,53.73957867153253,37.127329900582026,1.5285750210961742,41.05447267249899,1,v,2.2467025999994803,correct,v
185,2F4K,186,2,55.2307499707619,43.25116629215822,1.5767156454385334,46.525172315987405,1,b,3.9208957000000737,incorrect,v
186,2F4K,187,2,68.06266729508256,51.02409968091781,2.0589089314221054,53.4361771083058,1,v,2.846673699999883,correct,v
187,2F4K,188,2,41.233859877918015,25.447135952157385,1.1785523119304888,31.123738232401497,1,v,1.2916463000001386,correct,v
188,2F4K,189,2,34.47907757077748,46.89582812014956,1.024111166371645,49.78609047204425,2,v,0.6172315000003437,incorrect,b
189,2F4K,190,2,38.8376490974689,45.19824632932684,1.121266700239164,48.2696623206061,2,b,0.6483204000005571,correct,b
190,2F4K,191,2,63.018890794781775,45.60734693850086,1.8539042370491456,48.63562588726925,1,v,0.7757775999998557,correct,v
191,2F4K,192,2,57.37741308983153,47.672339381969785,1.648692554794697,50.47741938998712,1,v,1.3280088000001342,correct,v
192,2F4K,193,2,50.22423227895687,63.29730817072024,1.42082312538856,63.59364242394109,2,b,0.5572743000002447,correct,b
193,2F4K,194,1,54.1968249039526,50.354925874028766,1.543178284481501,52.8494102259712,2,n,1.1146526000002268,correct,n
194,2F4K,195,2,51.94044053810225,39.86786922728623,1.4724444589030192,43.49439560095754,1,b,1.400860300000204,incorrect,v
195,2F4K,196,1,67.87358338700494,51.06940842358609,2.050829423630803,53.47582345161283,2,n,1.1338581999998496,correct,n
196,2F4K,197,1,67.13918970186864,51.18957490280368,2.019748544710583,53.5809197128025,2,n,1.9048921000003247,correct,n
197,2F4K,198,1,45.453911637485376,31.05799766770894,1.2866479400640785,35.768460358339055,2,n,1.2977113999995709,correct,n
198,2F4K,199,2,46.406647834704685,66.09532021332691,1.3123926643753483,65.6842605082328,2,b,0.8912830999997823,correct,b
199,2F4K,200,1,56.722772546841504,69.26745989366738,1.6264011905897104,67.92236279366928,1,c,1.4979985999998462,correct,c
200,2F4K,201,1,28.412816714735023,37.8210565118685,0.9027412904835016,41.66999927510787,1,n,1.6616598000000522,incorrect,c
201,2F4K,202,1,49.09059637732612,34.901055426491325,1.3877213335171568,39.0922274055288,2,n,2.458338399999775,correct,n
202,2F4K,203,2,45.26519026363708,25.62243231353787,1.281608576970839,31.264236207926217,1,v,2.0628348000000187,correct,v
203,2F4K,204,2,43.793185656846845,63.19354353061824,1.2429735267248838,63.51416552469911,2,b,0.8728555000006963,correct,b
204,2F4K,205,2,55.52386048839658,34.55663045439701,1.586355171756185,38.79073691424256,1,v,0.8788413000002038,correct,v
205,2F4K,206,2,28.05491675611327,42.30302679684482,0.8960477392177262,45.67503830888566,2,v,0.8354925999992702,incorrect,b
206,2F4K,207,2,57.65047909213554,39.84322495134989,1.658080869175048,43.4723699750765,1,v,1.5040789000004224,correct,v
207,2F4K,208,1,49.26605823953689,31.027039478361644,1.3927938590877569,35.74208801725325,2,n,0.9700298999996448,correct,n
208,2F4K,209,1,24.397808097445925,36.31324135627433,0.8304321726843594,40.33443640502446,1,c,3.3928991000002497,correct,c
209,2F4K,210,1,55.70628883428193,45.34749393162174,1.5923844242452705,48.40320445499589,2,n,2.093854900000224,correct,n
210,2F4K,211,2,29.856890826329227,50.39148508607022,0.9302605324358432,52.88152474290046,2,b,2.1595219000000725,correct,b
211,2F4K,212,1,37.61795894014516,60.474461484906975,1.0931859084167437,61.3857392277627,1,c,1.4983589000003121,correct,c
212,2F4K,213,1,30.604404683614312,44.58441137390391,0.944833577006664,47.72009013460944,1,c,3.022758099999919,correct,c
213,2F4K,214,2,26.789228517682268,38.60385875684156,0.8727720799198208,42.366429185265766,2,b,1.0853237000001172,correct,b
214,2F4K,215,1,57.21250441923704,69.95397778369762,1.643048574885859,68.38685208873632,1,c,1.5893409000000247,correct,c
215,2F4K,216,1,58.47083127826822,50.553492157624426,1.686608275571954,53.023757420308506,2,c,0.7272412999991502,incorrect,n
216,2F4K,217,1,53.87155422022684,62.15445203231473,1.5327757341433872,62.711025143009536,1,c,0.9275367999998707,correct,c
217,2F4K,218,1,36.53909030935744,46.347313661982696,1.0689339487891882,49.296780503356125,1,c,1.0235537999997177,correct,c
218,2F4K,219,2,38.47820489141814,45.421332199227216,1.1129171114672305,48.46925950133712,2,v,1.769941700000345,incorrect,b
219,2F4K,220,2,45.14435949872144,63.64542266398164,1.2783924428270628,63.859292097279706,2,b,0.8243096999995032,correct,b
220,2F4K,221,2,65.84295675989341,48.70495522725052,1.9660345878485188,51.393801693899,1,v,1.558657999999923,correct,v
221,2F4K,222,1,57.6652812030487,42.11090873883821,1.658591307080875,45.50280019543981,2,n,1.7650518999998894,correct,n
222,2F4K,223,2,40.36447462556099,54.46492376531215,1.1574374572265496,56.41211106045633,2,b,0.786767300000065,correct,b
223,2F4K,224,1,50.65689109181957,32.67680225727084,1.4336637869971922,37.15704845224495,2,c,1.86111770000025,incorrect,n
224,2F4K,225,1,38.3271978628458,49.16622283038515,1.1094279183167444,51.80189031430912,1,c,1.200391899999886,correct,c
225,2F4K,226,2,60.99457057229338,45.694212557677226,1.7774846698294566,48.713295217498434,1,v,1.8317864000000554,correct,v
226,2F4K,227,2,58.99210366976298,37.00114519193771,1.704989801955705,40.94269705019296,1,v,1.3086197000002358,correct,v
227,2F4K,228,1,50.44963121440912,40.37015234480599,1.4274982099000306,43.943549631475264,2,c,0.9821420999996917,incorrect,n
228,2F4K,229,2,37.288508186958325,43.65065924140593,1.085722375092549,46.88333439405213,2,b,0.8293837999999596,correct,b
229,2F4K,230,1,40.38745130062906,53.93482871938561,1.1579905973795372,55.95870140545522,1,n,2.068436699999438,incorrect,c
230,2F4K,231,2,45.31477595842404,29.28026214410472,1.2829307321933503,34.26626896940758,1,b,2.1111606999993455,incorrect,v
231,2F4K,232,1,46.72430318696367,34.94847243877646,1.3210903124991085,39.13378168316849,2,c,1.6800616999998965,incorrect,n
232,2F4K,233,1,41.82972026988486,36.278950410451806,1.193246089244852,40.304166034562805,2,n,2.2641333000001396,correct,n
233,2F4K,234,2,52.40754983873095,61.44713691914938,1.4868163880790086,62.15697232108241,2,v,2.440085899999758,incorrect,b
234,2F4K,235,1,51.57547384965173,35.73177965285354,1.4613119790404523,39.82184187523446,2,n,2.445273100000122,correct,n
235,2F4K,236,1,52.00915736587644,72.48539309170647,1.4745499774180422,70.03456769812232,1,c,1.3513051999998424,correct,c
236,2F4K,237,2,48.4846415673867,40.30098431982983,1.370345088485727,43.88167189663148,1,v,1.5404899999994086,correct,v
237,2F4K,238,1,59.9905412948779,78.23408571125657,1.7407587061458467,73.36880876995086,1,c,1.0369148000008863,correct,c
238,2F4K,239,2,53.651975849317694,45.95002086994846,1.5257930278862686,48.94193951176794,1,v,1.644046100000196,correct,v
239,2F4K,240,1,42.88437448248097,56.26494312944169,1.2197041353404068,57.93571768040128,1,n,1.7346992000002501,incorrect,c
240,2F4K,241,2,30.59395161775989,38.19750390804056,0.9446282252031606,42.00468064561813,2,v,1.2792432000005647,incorrect,b
241,2F4K,242,2,32.71061229771398,43.67393370447965,0.9871343592340782,46.90419878965268,2,v,1.783250800001042,incorrect,b
242,2F4K,243,2,49.78146675464288,57.6236346156071,1.4078015725159296,59.06778770307076,2,b,3.3989396000015404,correct,b
243,2F4K,244,2,57.84752483772058,42.59761171173906,1.6648887123167924,45.93916440014966,1,v,1.419159999999465,correct,v
244,2F4K,245,1,52.29035709980003,40.13428342731009,1.4831974955248417,43.73257418833505,2,c,5.0,correct,n
245,2F4K,246,1,35.66686715613901,49.78054163931997,1.04972105996547,52.34403088791432,1,c,3.7074071999995795,correct,c
246,2F4K,247,2,70.45768200785402,47.06518361613697,2.164044941189104,49.93701258363812,1,b,2.506867300000522,incorrect,v
247,2F4K,248,1,52.403675492253406,41.71888412932829,1.4866966078835857,45.15140173553307,2,n,2.039564299999256,correct,n
248,2F4K,249,2,67.07337038758634,42.52727930191369,2.016986057963757,45.87610211305029,1,v,0.8840200000013283,correct,v
249,2F4K,250,1,42.4914401308889,54.53134552673088,1.209778732494648,56.46877969170034,1,c,2.183993599999667,correct,c
250,2F4K,251,1,74.36810733002486,59.73272105641065,2.3473666773389588,60.79064815174432,2,n,0.8110887000002549,correct,n
251,2F4K,252,2,46.47085388988086,61.69931190731026,1.3141460459930472,62.35517303756245,2,b,1.0002996000002895,correct,b
252,2F4K,253,1,27.260753399001477,37.77271044243017,0.8813717751752776,41.6270497773024,1,n,2.2072798000008333,incorrect,c
253,2F4K,254,2,60.07771661784257,79.8141053467766,1.7439171455700204,74.17971724956426,2,b,3.1077311000008194,correct,b
254,2F4K,255,2,59.938526686343685,45.01766977147967,1.7388768961210082,48.108043052268506,1,v,1.7711091000001034,correct,v
255,2F4K,256,2,56.82097347430686,46.81561508288432,1.6297257453106604,49.71458183440291,1,v,1.3341620999999577,correct,v
256,2F4K,257,1,46.13041604800999,63.311398636893095,1.304875787291076,63.6044244657072,1,c,0.981321499999467,correct,c
257,2F4K,258,2,66.06721169103211,49.207241162742456,1.975224108893377,51.83813872271923,1,v,1.285577499998908,correct,v
258,2F4K,259,2,41.30174533483126,52.8729398775644,1.18021717643763,55.04455810404813,2,b,0.8716731999993499,correct,b
259,2F4K,260,1,52.87841760296826,34.18003336423954,1.5014459367899613,38.461808972355456,2,n,2.3855019999991782,correct,n
260,2F4K,261,2,71.52040840638455,60.44663174867317,2.212400007706025,61.3635186793553,1,v,2.6646256999993057,correct,v
261,2F4K,262,1,53.26829096540048,41.431415623423575,1.5136679182723998,44.89379390186751,2,n,1.297839599999861,correct,n
262,2F4K,263,1,68.3119906961566,56.05080012451313,2.069611134549803,57.755828039567376,2,n,0.8484778000001825,correct,n
263,2F4K,264,1,39.51069744276058,54.26383597175596,1.1370698829677857,56.24035251499958,1,c,0.8170702000006713,correct,c
264,2F4K,265,1,52.7451805861625,40.26048994664028,1.4972918092242702,43.845449280667935,2,n,5.0,correct,n
265,2F4K,266,2,56.79506434621984,43.60046644902294,1.6288479423243856,46.83833812090516,1,v,1.3644636999997601,correct,v
266,2F4K,267,1,50.73811340708335,37.5427087715244,1.4360872489349568,41.422828118034325,2,c,0.8668472999997903,incorrect,n
267,2F4K,268,2,53.780402785675655,43.00368533264086,1.5298732001456037,46.30327224592335,1,v,3.0166243000003305,correct,v
268,2F4K,269,1,67.3651993268,49.03137209657317,2.0292631743757585,51.682673066924536,2,n,3.070223900000201,correct,n
269,2F4K,270,1,25.48763305813645,41.44692773778633,0.8494665194114461,44.90769289094285,1,c,1.0625168999995367,correct,c
270,2F4K,271,2,41.99084910777434,58.03627957226078,1.1972508611231256,59.40828471373084,2,b,1.9957821000007243,correct,b
271,2F4K,272,1,58.14439936421403,53.06798884685449,1.6751984133277211,55.21303193065723,2,n,2.2944726000005176,correct,n
272,2F4K,273,2,26.879981211191254,38.38274158669206,0.8744206861538013,42.1695253769351,2,b,0.7635164999992412,correct,b
273,2F4K,274,1,47.44033876747556,37.036800629268605,1.340907912648938,40.97427493692962,2,c,1.2737833999999566,incorrect,n
274,2F4K,275,1,56.35371058088087,46.00607584472023,1.6139672646822787,48.9920249431116,2,n,1.4191033000006428,correct,n
275,2F4K,276,1,55.7342053609895,43.65110524959988,1.5933090842693352,46.88373422080288,2,c,0.8912045000015496,incorrect,n
276,2F4K,277,2,74.99842715163325,58.575646556368575,2.378336441762129,59.85089793410258,1,v,1.42514139999912,correct,v
277,2F4K,278,2,50.3207295157121,32.737249560603566,1.4236770165828525,37.2092455571485,1,b,2.4583809999985533,incorrect,v
278,2F4K,279,1,34.598145224416726,48.71680776951071,1.0266499481212452,51.40429808566632,1,c,1.5040413000006083,correct,c
279,2F4K,280,1,38.56054310713629,56.00597872690177,1.1148242526057586,57.71812747532187,1,c,3.1127982000016345,correct,c
280,2F4K,281,2,50.3005391801545,36.84505641157885,1.4230794166206584,40.80451547056739,1,b,2.3417814999993425,incorrect,v
281,2F4K,282,2,69.46115493279864,57.88373726029341,2.119662611379604,59.28259989774443,1,b,2.6270401000001584,incorrect,v
282,2F4K,283,1,63.57578585002091,77.32169398462585,1.8754978062570569,72.8792895467239,1,c,4.452352100001008,correct,c
283,2F4K,284,1,44.4932212047809,60.51148734929336,1.2611996162358186,61.41528928481006,1,c,3.369800899999973,correct,c
284,2F4K,285,2,42.89430993325468,38.75525150615734,1.21995615455384,42.50132168480155,1,v,1.2977706999990914,correct,v
285,2F4K,286,2,51.423107880397,63.647623140639205,1.4566893417366993,63.8609664544606,2,b,2.6828312999987247,correct,b
286,2F4K,287,2,24.74205893952642,41.599272214639775,0.8363981454716862,45.04420617103163,2,b,0.7393963000013173,correct,b
287,2F4K,288,2,48.021984244586,60.90430842275462,1.3572246402344368,61.72786801532076,2,b,0.7263715999997657,correct,b
288,2F4K,289,2,23.89331492888432,43.43404832743074,0.8217659439071597,46.68914123325133,2,b,0.5390888999991148,correct,b
289,2F4K,290,2,63.44724243364834,42.08526441271621,1.8704913224892885,45.47981073661381,1,v,0.8121499999997468,correct,v
290,2F4K,291,1,46.258727988081006,57.57973811888632,1.3083620689802995,59.03147253524948,1,c,0.745436699999118,correct,c
291,2F4K,292,1,45.42250874158992,66.21784339172967,1.2858080269663532,65.77340197595184,1,c,2.5190543000007892,correct,c
292,2F4K,293,1,49.984485408853466,31.549394887273703,1.4137573868325912,36.18801681136591,2,n,1.1580571000013151,correct,n
293,2F4K,294,1,60.63564583550587,74.95147198292166,1.7642675669198702,71.53666301350455,1,c,2.1114072000000306,correct,c
294,2F4K,295,2,43.92195665728569,54.754718024715615,1.2463063190562205,56.65911178078836,2,b,2.4158124000005046,correct,b
295,2F4K,296,1,64.74345321167223,48.177309507674686,1.9215940597633216,50.92600716605834,2,n,0.757585299999846,correct,n
296,2F4K,297,1,41.05752627236773,55.41438537489823,1.1742387634310127,57.21897701160877,1,c,2.11845379999977,correct,c
297,2F4K,298,2,49.81680123536615,34.94318268943116,1.4088363487267817,39.12914540171014,1,v,1.2187873000002583,correct,v
298,2F4K,299,1,48.62464190647579,56.4149074455846,1.374340284288741,58.06146352161937,1,c,0.6791961999988416,correct,c
299,2F4K,300,2,54.52391369864277,74.17380723577811,1.5537101735420136,71.07432174911749,2,b,1.0367688000005728,correct,b
300,2F4K,301,1,39.93455989833964,34.06076286036381,1.147136282369528,38.35779851658384,2,n,1.0549456000007922,correct,n
301,2F4K,302,1,51.74491925728428,34.3053768587108,1.4664700202793564,38.57120069387844,2,c,1.054900400000406,incorrect,n
302,2F4K,303,1,43.191808434094,60.84494721708651,1.2275265706725906,61.68074220107142,1,c,0.8424821999997221,correct,c
303,2F4K,304,1,53.37702308199536,34.86981400807744,1.517094224938015,39.06485501422403,2,n,0.9214472000003298,correct,n
304,2F4K,305,1,54.06386843147583,63.29652017030078,1.5389176715296535,63.59303937202935,1,c,0.8052301999996416,correct,c
305,2F4K,306,1,63.31955805492967,43.65190082655978,1.8655315271478785,46.88444742034002,2,c,0.4777152999995451,incorrect,n
306,2F4K,307,2,43.006347889392416,49.833834023676886,1.222801677654489,52.39098460758005,2,b,1.0125069999994594,correct,b
307,2F4K,308,1,27.17027202388178,34.94809810412548,0.8797150268255625,39.13345358718127,1,c,2.924622000000454,correct,c
308,2F4K,309,1,56.67717088019549,46.18240913873333,1.6248596703933085,49.14953742836713,2,n,3.4887856999994256,correct,n
309,2F4K,310,1,56.46591405536557,46.512335263382816,1.6177373787541318,49.4440666364461,2,n,1.7771407000000181,correct,n
310,2F4K,311,2,42.00260115967319,62.91538363620303,1.197543477508609,63.30045622081104,2,v,1.825697800000853,incorrect,b
311,2F4K,312,2,76.1666510133544,59.964764260158645,2.4368197341618285,60.97744560314638,1,v,1.868153400000665,correct,v
312,2F4K,313,1,44.57202498250954,55.68690101481156,1.2632680111734715,57.449262612909216,1,c,0.8486178999992262,correct,c
313,2F4K,314,2,64.57053893162049,47.47131816777026,1.9146970844381728,50.29861779936738,1,v,1.3462911999995413,correct,v
314,2F4K,315,2,37.32346780614187,58.966720923321695,1.0865119440493756,60.17003672652881,2,b,0.8000836000010167,correct,b
315,2F4K,316,2,49.892688293091,70.53361103169811,1.4110612855715106,68.77327007375068,2,v,0.9092909000009968,incorrect,b
316,2F4K,317,1,65.50629959260826,41.80759396933737,1.9523192514897325,45.23090990238183,2,n,1.6073538000000553,correct,n
317,2F4K,318,1,50.91315080461179,35.47191147099255,1.4413238441165357,39.59324578444147,2,c,1.1763551000003645,incorrect,n
318,2F4K,319,1,34.44675232071438,18.983143927433687,1.023423005848162,26.199225842854027,2,c,2.4400077999998757,incorrect,n
319,2F4K,320,2,62.07839558712077,73.91572564587695,1.8179995817358767,70.91855447618465,2,v,1.7893198000001576,incorrect,b
320,2F4K,321,1,43.10816898948674,55.41448493034528,1.2253934710317484,57.21906124821346,1,n,2.926649200000611,incorrect,c
321,2F4K,322,1,45.55254314090424,55.02879736376151,1.2892895430058466,56.89213451455758,1,c,2.6600264999997307,correct,c
322,2F4K,323,1,60.54660464775664,80.0750543301871,1.7610039429681033,74.30910528502234,1,c,2.0441100999996706,correct,c
323,2F4K,324,1,62.85186149080823,74.54562461874556,1.847476284088052,71.29669816348229,1,c,3.3260740999994596,correct,c
324,2F4K,325,2,42.64485224266826,49.256920618532085,1.2136442284068023,51.88203184886879,2,b,2.494756599999164,correct,b
325,2F4K,326,1,57.58058763742675,51.63033853364624,1.655672844399288,53.96573727701342,2,c,2.361190899999201,incorrect,n
326,2F4K,327,2,22.971657838141063,34.15085566331017,0.8061664979570589,38.43635705410806,2,b,0.8728783000005933,correct,b
327,2F4K,328,1,36.268613902713454,59.17308996932129,1.06293871361389,60.33782783306379,1,n,2.3490498999999545,incorrect,c
328,2F4K,329,2,41.25527346289829,50.9926039531443,1.1790772180751807,53.40861117117135,2,b,4.024079700000584,correct,b
329,2F4K,330,2,52.36924897005871,70.26542631210005,1.4856326932649129,68.59514318553157,2,v,0.6665885000002163,incorrect,b
330,2F4K,331,2,30.636667424646497,49.68898518961712,0.9454676642052972,52.26333477844888,2,b,0.6786799000001338,correct,b
331,2F4K,332,1,56.927305934205656,49.92361780686021,1.633333253539491,52.470060496944775,2,n,2.5615632999997615,correct,n
332,2F4K,333,1,48.49810962942709,54.44153941053864,1.3707289217305143,56.392152621166375,1,c,1.5030060000008234,correct,c
333,2F4K,334,2,59.60357882239005,44.93190263570881,1.7268076205605425,48.031263703813714,1,v,3.1308546000000206,correct,v
334,2F4K,335,1,56.896760145847615,74.63274780667754,1.6322961193825822,71.34845533379652,1,n,1.4069659000015236,incorrect,c
335,2F4K,336,1,74.23001959038353,60.73537703577891,2.3406359903746026,61.59365353153359,2,n,3.635700299999371,correct,n
336,2F4K,337,2,28.883476170540455,48.60966358154471,0.9116198760339256,51.30939401241191,2,b,0.874289299999873,correct,b
337,2F4K,338,1,50.55194684299272,33.37591403954848,1.4305385792643406,37.7621577958859,2,n,3.7980477000000974,correct,n
338,2F4K,339,1,55.28034265559111,69.31231222567699,1.5783424735409155,67.95293241197045,1,c,2.4996016999994026,correct,c
339,2F4K,340,1,49.82860423244396,60.7805351169153,1.409182170919722,61.62956224450965,1,c,2.7863655000001017,correct,c
340,2F4K,341,1,58.72981595026003,43.47127719364152,1.6957158968057475,46.722518597284726,2,n,1.437264000000141,correct,n
341,2F4K,342,1,65.58702875870428,54.83784609414805,1.9555993931377131,56.72984796019511,2,n,0.951775199999247,correct,n
342,2F4K,343,2,41.768219555739805,25.52929353022704,1.191721056318456,31.18954544344157,1,b,4.547010300000693,incorrect,v
343,2F4K,344,1,50.94448430299503,63.86970838753389,1.4422632616596704,64.0296367629987,1,c,0.9813169999997626,correct,c
344,2F4K,345,1,56.71886129327719,36.32831403341791,1.6262689171308216,40.347743397435885,2,n,3.4718318000013824,correct,n
345,2F4K,346,2,52.12068908409255,63.19859631429673,1.4779737768744652,63.5180387227433,2,b,3.1527452999998786,correct,b
346,2F4K,347,2,60.15871178328933,36.12314616006976,1.7468568078587834,40.16669279784696,1,v,3.8648560999990877,correct,v
347,2F4K,348,1,37.45650929414575,57.056883297383685,1.0895219627580206,58.59756323087635,1,c,1.0184773999990284,correct,c
348,2F4K,349,2,55.57596446175846,38.24763051145443,1.5880748740946549,42.04927874984228,1,v,3.096421799999007,correct,v
349,2F4K,350,2,51.2129686687869,69.43714698695359,1.4503379013043818,68.03785157890886,2,b,1.717669699999533,correct,b
350,2F4K,351,2,47.94647302745449,60.71567739345026,1.3550951826236315,61.57798174091342,2,b,1.0731801999991148,correct,b
351,2F4K,352,1,70.72274008257091,53.10325940835513,2.1760054990583537,55.24347057822418,2,n,1.9106436999991274,correct,n
352,2F4K,353,2,49.02510989119487,67.11811941743454,1.3858328856467588,66.4219121193409,2,b,0.6482914999996865,correct,b
353,2F4K,354,1,65.8419619374496,51.22141492544818,1.965993917400894,53.60875374466818,2,n,0.6423040000008768,correct,n
354,2F4K,355,1,44.30755080838748,54.48721043093471,1.256339629380283,56.431128871423226,1,c,1.9226777000003494,correct,c
355,2F4K,356,2,62.20666430862148,49.58386547457068,1.8228551557717216,52.170638821121166,1,v,2.2338198000015836,correct,v
356,2F4K,357,1,61.62289851682267,47.64611536463889,1.8008611558024707,50.454101029647525,2,n,5.0,correct,n
357,2F4K,358,1,55.40734860070549,65.21818232446417,1.5825164079993983,65.04006432642264,1,c,4.798886300000959,correct,c
358,2F4K,359,1,55.66472786770138,38.854519082051446,1.5910088228010788,42.58980325741994,2,c,1.4191138000005594,incorrect,n
359,2F4K,360,1,35.63477553263088,45.11422875651101,1.04902078691279,48.19447100062588,1,c,0.7818749999987631,correct,c
360,2F4K,361,2,65.67933642487351,51.69671946851978,1.9593567397277525,54.02359913265909,1,b,2.9549740000002203,incorrect,v
361,2F4K,362,1,39.79671106564785,61.38560100845897,1.1438527407614238,62.10849634415878,1,c,1.3462468999987323,correct,c
362,2F4K,363,1,39.015619422224816,51.80288869982515,1.125423959382333,54.11609102797466,1,c,1.0428431000000273,correct,c
363,2F4K,364,2,36.54968022475784,48.40250766461097,1.069169365829719,51.12578339035098,2,b,1.0124359000001277,correct,b
364,2F4K,365,2,37.69457831990845,22.93150996100845,1.0949290208054818,29.14550977899327,1,v,1.3280730999995285,correct,v
365,2F4K,366,1,36.42440825397897,23.730117111967356,1.066387849616383,29.76557614773515,2,n,1.7701153999987582,correct,n
366,2F4K,367,1,50.68189579426094,66.55118360447193,1.4344094260299414,66.01485998207993,1,c,1.5953178999989177,correct,c
367,2F4K,368,1,52.23548817705506,64.25652674356627,1.4815061809220265,64.32191336207417,1,c,0.7575842999995075,correct,c
368,2F4K,369,1,43.23985728105345,56.85939041256459,1.2287536639243002,58.43302641341739,1,c,1.1338133999997808,correct,c
369,2F4K,370,1,65.56551645826002,49.90594502244807,1.95472477932836,52.45449830738717,2,n,1.0179055999997217,correct,n
370,2F4K,371,1,57.55796285905322,34.97226241018793,1.6548940847907851,39.15463452242645,2,n,1.5768874999994296,correct,n
371,2F4K,372,2,48.77035735917499,56.13115384042711,1.378510943831888,57.82337387785487,2,b,1.108621299999868,correct,b
372,2F4K,373,1,57.0112584054269,43.55975679172416,1.636187123253988,46.80184228738548,2,n,2.221298200000092,correct,n
373,2F4K,374,2,36.15455949947573,46.92927531161846,1.0604207346819163,49.815903161861705,2,b,2.3057724999998754,correct,b
374,2F4K,375,1,44.47304527522334,60.06903855824847,1.2606705951307051,61.06120171822301,1,c,0.9507724000013695,correct,c
375,2F4K,376,1,71.0634776092677,59.20825245568476,2.1914782011106246,60.36637409698022,2,n,0.8668263999988994,correct,n
376,2F4K,377,1,66.40100987839419,51.125275563219546,1.98898210519564,53.52469376393903,2,n,1.1522001000012096,correct,n
377,2F4K,378,1,55.8449322815264,42.943800115677256,1.596981907677047,46.24957582200391,2,c,2.1109540999987075,incorrect,n
378,2F4K,379,1,40.26438514412659,56.966227883653794,1.1550309852024043,58.52207870011611,1,c,0.732900700000755,correct,c
379,2F4K,380,2,62.80139325752482,49.92482102078782,1.8455384534283796,52.47111996390484,1,v,1.6740040999993653,correct,v
380,2F4K,381,1,60.2179926824264,68.38278664297336,1.7490115063724954,67.31312638798185,1,c,0.829285499999969,correct,c
381,2F4K,382,2,48.84371820797665,41.29641568969424,1.3806154615233384,44.77284243828928,1,v,2.828507599999284,correct,v
382,2F4K,383,2,65.50639116625585,48.78502858071396,1.9523229691395532,51.46470281527223,1,v,2.8952657999998337,correct,v
383,2F4K,384,1,72.47680283801282,54.414640228708265,2.2568399119273472,56.36918931236725,2,c,0.872921200001656,incorrect,n
384,2F4K,385,1,61.88272045237805,43.93681753099802,1.810617261598897,47.1398391726711,2,c,1.7043109999995067,incorrect,n
385,2F4K,386,1,29.85152028508578,43.01978380466596,0.9301566492840592,46.31770698106366,1,c,1.2299676000002364,correct,c
386,2F4K,387,1,37.6563751546759,46.39657272400135,1.094059540926354,49.34075208635119,1,c,0.9336614999992889,correct,c
387,2F4K,388,1,43.2984515921225,58.1133622055903,1.2302517321770217,59.471711640573,1,c,1.255199500001254,correct,c
388,2F4K,389,1,49.06349327339695,35.410866670964666,1.3869394435616835,39.53959312616525,2,c,2.822469500000807,incorrect,n
389,2F4K,390,2,50.57350735009482,37.29510414545261,1.431180088067681,41.203179645051264,1,v,1.0175516999988758,correct,v
390,2F4K,391,1,70.05574457449721,58.77688881003984,2.1460331135650232,60.01531292905252,2,c,0.9640629000004992,incorrect,n
391,2F4K,392,2,64.8404053144699,51.42874194357544,1.9254720208973652,53.78986166953395,1,v,2.3005467999992106,correct,v
392,2F4K,393,1,75.48525555763456,63.78637032357261,2.4025353638263063,63.966416248487086,2,c,0.769632499999716,incorrect,n
393,2F4K,394,1,59.40039831201442,35.401576213424,1.7195272146957568,39.531429245656525,2,n,3.0225697999994736,correct,n
394,2F4K,395,2,56.51999863337881,40.82787191859064,1.6195578022013837,44.35320981327263,1,v,1.079232799998863,correct,v
395,2F4K,396,2,39.90564591794958,53.8178172340379,1.146446774764044,55.85834690759649,2,b,2.3309014000005845,correct,b
396,2F4K,397,1,52.37922239691105,34.31371988605636,1.4859408329297794,38.57848502314707,2,n,3.1077899000010802,correct,n
397,2F4K,398,2,52.468828893751606,39.03508586522619,1.4887121895087765,42.750815361581765,1,v,0.9335962000004656,correct,v
398,2F4K,399,1,24.173564581987627,40.220371817205205,0.8265688711336937,43.80956593742294,1,c,1.3098190000000614,correct,c
399,2F4K,400,1,57.33618235097243,75.03158130166372,1.647279622512198,71.58368628411729,1,c,0.8971564000003127,correct,c
