,condition,trial,sub_task,x,y,xt,yt,cat,resp,rt,acc,correct_resp
0,2F4K,1,1,57.8577250104347,71.76941659026686,1.6652418837024616,69.88137509910388,1,c,5.0,NA,c
1,2F4K,2,1,44.48426114614398,55.08088598717986,1.2609646524454805,57.18862924804521,1,c,2.0875750000000153,correct,c
2,2F4K,3,1,52.44348966970417,32.3109023647898,1.4879279723171353,37.01446057519104,2,c,2.154192000000421,incorrect,n
3,2F4K,4,2,33.611788075078465,41.65210478528756,1.005807099785106,45.29701664047082,2,v,3.0652005000001736,incorrect,b
4,2F4K,5,1,42.811430666595136,56.37986300274424,1.2178554612343744,58.28870021214201,1,c,2.271022500000072,correct,c
5,2F4K,6,2,40.3192717934907,61.61895505327287,1.1563500159870674,62.56553495342616,2,b,2.8163635999999315,correct,b
6,2F4K,7,2,68.07309989285946,49.41604402578229,2.0593556391089383,52.25540754912372,1,b,3.0401497000002564,incorrect,v
7,2F4K,8,1,37.09534931572598,55.99652459626903,1.0813701809972556,57.965505441881255,1,c,3.33832510000002,correct,c
8,2F4K,9,2,64.9393497828006,81.13606301574042,1.9294377432264973,75.14464962489559,2,b,1.9667568000004394,correct,b
9,2F4K,10,2,55.24347844873351,37.0587566931012,1.5771330277541693,41.18299146805072,1,b,2.452260000000024,incorrect,v
10,2F4K,11,1,61.71415746137639,42.46056399163014,1.804281852184764,46.02461170870018,2,c,1.582285899999988,incorrect,n
11,2F4K,12,2,51.050272683610594,64.33233789191182,1.4454394554736347,64.66065647765328,2,v,3.5790525000002162,incorrect,b
12,2F4K,13,2,53.7099075303017,45.850057260730864,1.5276321903139891,49.07293315084375,1,b,2.258032700000058,incorrect,v
13,2F4K,14,1,57.14747825887639,75.33385341978249,1.6408283772276078,72.07095113232212,1,c,1.3401465000001735,correct,c
14,2F4K,15,1,48.49856326114192,63.16111182498591,1.3707418518860872,63.76746880995916,1,c,2.1358767000001535,correct,c
15,2F4K,16,1,56.11786744059023,38.62958968558984,1.6060713911453053,42.58413581561774,2,c,1.582937099999981,incorrect,n
16,2F4K,17,2,19.87154469089195,38.57952269708519,0.7558366290587187,42.53935956041311,2,v,2.276259199999913,incorrect,b
17,2F4K,18,2,62.92056661410921,46.88449696472435,1.8501176281896992,49.99996636319723,1,v,3.8041909000003216,correct,v
18,2F4K,19,1,40.7109012681471,65.17205839663029,1.1658054393706854,65.29006488818436,1,n,2.173012799999924,incorrect,c
19,2F4K,20,1,31.812135034307257,44.94858454090092,0.9688626420967767,48.26333855328048,1,n,3.375547600000118,incorrect,c
20,2F4K,21,1,30.197222553503565,44.01167759321609,0.9368673361843562,47.42075646185608,1,n,2.7025156999998217,incorrect,c
21,2F4K,22,1,51.84077202473509,67.59422541053766,1.46939590661862,67.05127735189114,1,n,2.3733649000000696,incorrect,c
22,2F4K,23,2,37.69651975929314,48.84428299793118,1.0949732251835511,51.74801149039796,2,b,2.037826500000392,correct,b
23,2F4K,24,2,56.37823216789781,36.99320574255288,1.614790455926198,41.124705752948536,1,v,1.7285977999999886,correct,v
24,2F4K,25,1,39.97729652196201,53.71013709262662,1.148156176116983,56.01355943816476,1,c,4.010884900000292,correct,c
25,2F4K,26,1,44.5550393613849,64.96355467171809,1.2628218960441968,65.134657467236,1,c,0.8065709000002244,correct,c
26,2F4K,27,2,40.5599013012732,52.19368252346381,1.1621506025572326,54.69844977638797,2,b,3.8663102999998955,correct,b
27,2F4K,28,1,67.92030848900143,49.6417176772327,2.0528230212920704,52.45530131923784,2,n,2.531124799999816,correct,n
28,2F4K,29,2,54.11664008884355,38.85726036766249,1.5406073386226002,42.78783338528575,1,b,3.719119299999875,incorrect,v
29,2F4K,30,1,56.52507188274905,38.95390065480768,1.619728666877129,42.8743388498041,2,c,3.4050759000001563,incorrect,n
30,2F4K,31,1,74.72004606316072,64.80251164819572,2.364608566471494,65.01422638229418,2,c,5.0,incorrect,n
31,2F4K,32,1,32.6145894153952,49.73414065642228,0.9851652753935296,52.53710227795688,1,n,1.261746099999982,incorrect,c
32,2F4K,33,2,50.309854994796886,36.14864037130394,1.423355117884758,40.37526980706868,1,v,1.2188086000001022,correct,v
33,2F4K,34,2,68.58529518518482,57.82745267195755,2.081406649631763,59.49753255529885,1,b,2.0745272999997724,incorrect,v
34,2F4K,35,2,29.317606550919887,44.12727687737403,0.9198867715515018,47.52476406171853,2,b,0.7696929999997337,correct,b
35,2F4K,36,1,38.566278545754976,52.54669836470416,1.1149572201532216,55.005906634753366,1,c,2.6525048000003153,correct,c
36,2F4K,37,1,63.2159516593514,41.650021614828674,1.8615166882030505,45.29514234831315,2,n,1.6087045999997827,correct,n
37,2F4K,38,2,42.48851915146159,54.51854019819767,1.2097052526938972,56.70824029410981,2,b,3.496089900000243,correct,b
38,2F4K,39,2,52.20091191915771,70.4072115171225,1.4804413710856907,68.98818069188337,2,b,4.138158400000066,correct,b
39,2F4K,40,2,64.25591026776637,49.58560390445851,1.9022110317768983,52.40561829787394,1,v,2.391558199999963,correct,v
40,2F4K,41,1,52.906212116857645,36.35994186564299,1.5023139793285984,40.56249573934545,2,c,5.0,correct,n
41,2F4K,42,1,58.99588194108797,53.436257087595365,1.7051237630555125,55.777162071774455,2,c,2.1858178000002226,incorrect,n
42,2F4K,43,1,62.95390038774807,53.04610484704415,1.851400493508616,55.439530768122985,2,c,1.6256885000002512,incorrect,n
43,2F4K,44,2,40.90443943168525,49.98348441948144,1.1705066922650431,52.75759854811251,2,v,4.320049700000254,incorrect,b
44,2F4K,45,1,47.82535998042311,25.89800103629391,1.3516867031535904,31.637458742061767,2,c,1.8924273000002358,incorrect,n
45,2F4K,46,1,44.19375739920484,58.716016467212185,1.2533703083333352,60.22986822844555,1,n,3.4961147999997593,incorrect,c
46,2F4K,47,1,50.33868222201568,29.818056493779263,1.424208597256196,34.88247184462622,2,n,5.0,incorrect,n
47,2F4K,48,2,37.49852733085471,46.865311454994114,1.0904743382377005,49.98279615010679,2,b,1.5283314999996946,correct,b
48,2F4K,49,1,42.93747403980098,57.092473475309696,1.2210516450492233,58.886133681059206,1,n,2.8102872999998,incorrect,c
49,2F4K,50,2,48.02311329994436,36.52654310069303,1.3572565055912431,40.710247133403854,1,v,3.6068632999999863,correct,v
50,2F4K,51,2,59.92642721497108,49.98403736833004,1.7384394472340068,52.758087209836845,1,b,1.018076899999869,incorrect,v
51,2F4K,52,1,47.61347939039619,66.43917881641933,1.345744362482293,66.22173478540252,1,c,1.9167284999998628,correct,c
52,2F4K,53,2,57.16694413650001,65.40679256108488,1.6414926887159105,65.46432136273637,2,b,3.2117198999999346,correct,b
53,2F4K,54,2,31.613724161996103,51.479767435476745,0.9648735066147132,54.074413531299534,2,b,2.3006234999998014,correct,b
54,2F4K,55,1,66.01272851888965,50.59135751306357,1.9729875543901751,53.29392523099315,2,c,2.2580487999998695,incorrect,n
55,2F4K,56,2,34.866630852373326,51.30626112423085,1.0323977666178368,53.92231476813086,2,b,0.8546234999998887,correct,b
56,2F4K,57,1,44.47423084430023,54.11045236830917,1.2607016750981623,56.35814780633429,1,c,1.5343874000000142,correct,c
57,2F4K,58,2,48.791771795351536,38.06986795285316,1.3791249323896215,42.08397172847823,1,b,2.6882614000001013,incorrect,v
58,2F4K,59,2,35.8395205866342,53.4183144566681,1.053496570436748,55.76165715621724,2,b,1.0488984000003256,correct,b
59,2F4K,60,1,52.88877920960266,33.47298047868795,1.501769478520225,38.02324280982475,2,c,1.6073688000001312,incorrect,n
60,2F4K,61,1,65.78725997253696,52.528041616447496,1.963758879811272,54.9896768238539,2,n,0.9822834000001421,correct,n
61,2F4K,62,2,42.041981267894194,52.514384193057424,1.1985245311222037,54.977794637051765,2,b,0.9275305999999546,correct,b
62,2F4K,63,1,51.24541342134575,63.7175206534536,1.4513167304432408,64.19397018947366,1,n,2.361200700000154,incorrect,c
63,2F4K,64,1,43.500004266217545,68.10916568514628,1.235418746725245,67.41483449754344,1,c,1.9606480000002193,correct,c
64,2F4K,65,1,48.99893748535141,41.69773867585462,1.3850788653265516,45.33807569048622,2,n,1.953134300000329,correct,n
65,2F4K,66,2,68.14212483119461,56.16426719641894,2.062313623053073,58.107082984673866,1,v,3.09554849999995,correct,v
66,2F4K,67,2,44.63247179432345,56.7421183737745,1.2648568819868553,58.592962872127856,2,v,2.1595228999999563,incorrect,b
67,2F4K,68,2,46.73865930297576,33.393708106115085,1.321484752552421,37.95415776844492,1,v,2.458925299999919,correct,v
68,2F4K,69,2,42.92633784605462,21.870212365089625,1.2207689180765169,28.47279223750808,1,v,1.2430696999999782,correct,v
69,2F4K,70,2,50.9405125792813,33.519328003431035,1.442144150527506,38.06365176650664,1,v,0.9517722000000504,correct,v
70,2F4K,71,1,42.11740618941781,57.831297866250765,1.2004057924682718,59.50071802196762,1,n,2.8701489999998557,incorrect,c
71,2F4K,72,1,51.67916855526462,63.43551183796826,1.4644663629994763,63.978290103611954,1,n,1.8257380000000012,incorrect,c
72,2F4K,73,2,48.73794320662168,34.802764556502424,1.3775820945503388,39.187540107142816,1,v,2.02739530000008,correct,v
73,2F4K,74,1,59.39258550580901,72.4291669987673,1.7192478782882188,70.30301214477977,1,n,4.187919999999849,incorrect,c
74,2F4K,75,1,38.87100207435719,59.893120002700726,1.1220446308397998,61.18784867075187,1,c,4.036249400000088,correct,c
75,2F4K,76,1,51.2554659289433,65.10869202844373,1.4516201396254471,65.24289681120067,1,c,1.310077299999648,correct,c
76,2F4K,77,2,53.27100094044683,42.16543612383616,1.5137532194154333,45.7589655981173,1,v,2.5432810000002064,correct,v
77,2F4K,78,1,36.42880104233045,28.597842336748897,1.066485263760352,33.857062855248614,2,n,2.03810169999997,correct,n
78,2F4K,79,1,64.15799548446847,43.56569166102325,1.8983419168987488,47.01940653716164,2,n,3.4232654000002185,correct,n
79,2F4K,80,2,45.797201887098055,35.20695293451065,1.295865563143736,39.5433167497628,1,v,5.0,correct,v
80,2F4K,81,2,44.31452979024147,39.53652385674124,1.2565219674519972,43.39634222436691,1,v,4.33736399999998,correct,v
81,2F4K,82,2,56.80734089017484,42.25408488838862,1.629263813497743,45.83875544902649,1,v,1.3705503999999564,correct,v
82,2F4K,83,1,66.34766295661728,48.53982689182688,1.986776914794876,51.47730432569348,2,n,3.246670399999857,correct,n
83,2F4K,84,1,51.0760350758606,33.08735905218522,1.4462140049120595,37.6875397061206,2,n,3.6119980000003125,correct,n
84,2F4K,85,1,40.68982595126744,51.81826414689315,1.1652946383631502,54.37066174835317,1,c,5.0,correct,c
85,2F4K,86,1,42.58431738899531,60.83156863550934,1.212117470090815,61.94109767944365,1,c,2.470473700000184,correct,c
86,2F4K,87,1,49.11279460415855,55.05420828731928,1.3883620523717823,57.16589435541876,1,c,0.7516828999996505,correct,c
87,2F4K,88,1,29.781573839735373,48.87263204208372,0.9288047241006008,51.773200036760336,1,c,1.1702546999999868,correct,c
88,2F4K,89,2,56.225657772097136,44.54598283898877,1.609675336374777,47.90138461988239,1,b,2.146598300000278,incorrect,v
89,2F4K,90,2,38.66697747062565,47.77358563442933,1.1172943591073972,50.79453141706325,2,v,2.0820988999998917,incorrect,b
90,2F4K,91,1,46.136763608471135,31.91446136817322,1.3050480341841708,36.67235384285658,2,c,2.01530989999992,incorrect,n
91,2F4K,92,1,40.1751520094516,55.10964855525763,1.1528897536477527,57.2131346699077,1,n,2.300552300000163,incorrect,c
92,2F4K,93,2,33.56910157430511,45.69445119264638,1.004914700460096,48.93328607636297,2,v,2.906701500000054,incorrect,b
93,2F4K,94,1,51.26487952361188,34.50391815219628,1.4519043223688577,38.92503128470303,2,c,1.9183434000001398,incorrect,n
94,2F4K,95,2,53.0612351218526,63.72765592247899,1.507164672026319,64.20170286018603,2,b,3.3982264000001123,correct,b
95,2F4K,96,2,54.33073602570192,75.19028954881126,1.5474814125974867,71.98703839838142,2,b,1.0177066000001105,correct,b
96,2F4K,97,2,47.03160403506572,58.61671010986262,1.329559296706735,60.14840442489602,2,b,0.5996608999998898,correct,b
97,2F4K,98,1,75.2608724266385,59.973662908480826,2.3913514474369046,61.25287052179136,2,c,2.1535273999998026,incorrect,n
98,2F4K,99,2,48.087932141605386,62.95465801290548,1.359087144263558,63.60823276598625,2,b,0.7272315000000162,correct,b
99,2F4K,100,2,24.66658702380584,41.890929002437886,0.8350865364180867,45.51191516926246,2,v,1.4979637000001276,incorrect,b
100,2F4K,101,2,48.01280612894945,29.698362558887062,1.3569656338115983,34.78132383183613,1,v,0.5573122999999214,correct,v
101,2F4K,102,2,48.28611571565789,63.12689605243169,1.3646996509549694,63.741114989324814,2,b,1.1818928000002416,correct,b
102,2F4K,103,1,47.12454879702525,61.88403814486783,1.3321314633471055,62.77415524826783,1,c,3.7971566000001076,correct,c
103,2F4K,104,1,53.60403373615253,65.35890542772056,1.524272679728199,65.42883267477602,1,c,1.109574000000066,correct,c
104,2F4K,105,2,48.04472627291688,36.06550577325401,1.3578666333074323,40.301660269129165,1,b,2.343924600000264,incorrect,v
105,2F4K,106,2,38.2376093194318,54.80371521066136,1.1073630430982768,56.95215455791213,2,v,0.8485579000002872,incorrect,b
106,2F4K,107,2,51.99344880462213,39.64915349394448,1.4740683938133083,43.497341603852696,1,b,1.2541816000002655,incorrect,v
107,2F4K,108,2,56.79583748854088,52.961724783393066,1.6288741295926497,55.3663776002539,1,v,0.7941971999998714,correct,v
108,2F4K,109,1,46.8726325257087,59.06934445537249,1.3251714030424775,60.51891356070391,1,n,1.886399900000015,incorrect,c
109,2F4K,110,2,65.7292849046837,45.02611260565672,1.96139288174134,48.33301516710932,1,b,1.6252835000000232,incorrect,v
110,2F4K,111,2,46.77335827039524,33.85829925219572,1.322438607011604,38.35957812060701,1,b,1.5834128999999848,incorrect,v
111,2F4K,112,1,40.791289216742186,51.55132503191748,1.1677558532443943,54.1370937193164,1,c,2.2519787999999608,correct,c
112,2F4K,113,1,45.66070818815804,52.11896486412634,1.2921927140644136,54.63327810119412,1,c,0.5444859999997789,correct,c
113,2F4K,114,2,48.15803866454823,66.60329495269498,1.3610698992429535,66.34076691452265,2,b,2.5799214999997275,correct,b
114,2F4K,115,2,67.35073632209759,79.3990380329904,2.028652965792744,74.29076758745829,2,v,0.9153197000000546,incorrect,b
115,2F4K,116,1,51.90111038713958,67.14365313183772,1.4712407161931411,66.72996990658766,1,n,3.307986300000266,incorrect,c
116,2F4K,117,1,62.96902917643154,48.69834471030399,1.8519830252074687,51.61829417781743,2,n,2.4401042000004054,correct,n
117,2F4K,118,1,37.256364799106606,45.540476614978765,1.0849969175194198,48.79505920073342,1,n,2.1022785000000113,incorrect,c
118,2F4K,119,1,49.92876183442233,62.10216671963744,1.4121201595353494,62.94520404610688,1,n,1.831619800000226,incorrect,c
119,2F4K,120,1,70.64852268907467,59.56339318513795,2.1726498439313517,60.920946410956944,2,c,1.3942016999999396,incorrect,n
120,2F4K,121,2,52.7566828478552,34.30745269846386,1.4976499785156634,38.75271543969041,1,v,2.7610875000000306,correct,v
121,2F4K,122,2,49.09692361355205,59.83443782161575,1.3879039296603997,61.14043143573146,2,b,0.9035726000001887,correct,b
122,2F4K,123,2,72.16324615343957,58.79572059006964,2.2421726700849285,60.29518081076418,1,b,1.2977326000000176,incorrect,v
123,2F4K,124,2,54.4768836072463,33.51321355954278,1.5521914448308314,38.05832003467191,1,v,1.6316461000001254,correct,v
124,2F4K,125,1,35.60583680726422,45.65174116907859,1.0483897139945877,48.894948488348064,1,c,2.6282709000001887,correct,c
125,2F4K,126,2,43.871395259524405,59.38844643569482,1.2449966477978065,60.778871047851545,2,b,2.1062346000003345,correct,b
126,2F4K,127,1,51.18214551637109,59.223927098616045,1.4494086058923357,60.64497510623541,1,n,1.3029388999998446,incorrect,c
127,2F4K,128,2,28.640559178625978,49.01636509505545,0.907026605998802,51.900860518608255,2,b,1.656115900000259,correct,b
128,2F4K,129,2,54.94166282638567,35.61195148742339,1.5672658117039866,39.900615472984455,1,v,2.045653499999844,correct,v
129,2F4K,130,1,53.37613065931974,46.88170263183308,1.5170660718629698,49.99746561419136,2,c,1.328160200000184,incorrect,n
130,2F4K,131,1,37.80786913578668,51.57175999715186,1.097511513171621,54.15498827974,1,c,3.532528799999909,correct,c
131,2F4K,132,2,47.83123188480112,65.65194224942695,1.3518517579869729,65.64550957674881,2,v,2.6525375000001077,incorrect,b
132,2F4K,133,2,49.25284664885368,38.41563253500405,1.3924112731402614,42.3928372871272,1,v,1.2916356999999152,correct,v
133,2F4K,134,2,62.24595971577151,52.95655407549238,1.8243452650476693,55.361893358809226,1,v,1.1339155000000574,correct,v
134,2F4K,135,1,41.869789180715806,49.81214880657856,1.194240727627839,52.60611555087665,1,c,4.21100159999969,correct,c
135,2F4K,136,2,44.81156473015845,59.246710694403085,1.2695761592759551,60.663534393810586,2,b,2.3733742999997958,correct,b
136,2F4K,137,1,58.06688643484088,43.13527348356343,1.6725004430552484,46.63197868757801,2,n,1.6977163999999902,correct,n
137,2F4K,138,1,50.14692549999544,59.068790404330194,1.4185409170742886,60.51846129654024,1,n,3.0844928999999865,incorrect,c
138,2F4K,139,2,50.52066969930125,41.08653563075656,1.429608473892053,44.78830131849345,1,v,1.1292198000001008,correct,v
139,2F4K,140,1,51.867919828151855,36.06564099614028,1.4702256481479172,40.30177997445348,2,n,2.264115800000127,correct,n
140,2F4K,141,1,62.04605155073909,51.754903817551295,1.8167772511702436,54.31525907166138,2,n,2.798123399999895,correct,n
141,2F4K,142,1,76.72307978667904,63.67810267294992,2.4651789780337032,64.1638839420907,2,n,1.869640299999901,correct,n
142,2F4K,143,2,30.645108004921667,41.32832726607391,0.9456336243535738,45.00574861707366,2,b,3.308639200000016,correct,b
143,2F4K,144,1,48.7952119750026,39.28364730549586,1.3792235937234143,43.16967908748303,2,n,2.871018599999843,correct,n
144,2F4K,145,2,47.89886660905113,36.15478092815204,1.3537543731196553,40.38070800946289,1,v,2.065244399999756,correct,v
145,2F4K,146,1,50.59125024045069,29.535735423460537,1.431708223724227,34.644086813865684,2,n,2.039559900000313,correct,n
146,2F4K,147,1,46.612123147347376,59.54005025736661,1.3180121725040497,60.90200787506547,1,n,2.3794055999997,incorrect,c
147,2F4K,148,1,36.901192430432346,53.77202114846905,1.0770130813639076,56.06690248148899,1,c,1.182403400000112,correct,c
148,2F4K,149,2,56.967390879626514,49.98437438701464,1.6346952746238614,52.75838504525172,1,v,0.4713138000001891,correct,v
149,2F4K,150,2,40.58669911814792,54.834032360069614,1.162798385565929,56.97804907300195,2,b,1.1217035999998188,correct,b
150,2F4K,151,1,45.03329353964439,58.86677300402435,1.275443336265967,60.353350325261296,1,n,1.7346996000001127,incorrect,c
151,2F4K,152,1,32.44011891406713,46.75513643092212,0.9815975596423062,49.88417579605834,1,n,1.8378360000001521,incorrect,c
152,2F4K,153,1,34.95149522427283,43.364115908269525,1.0342212526062504,46.83797171849804,1,n,2.1609761999998227,incorrect,c
153,2F4K,154,1,44.69539778365167,32.4836058042068,1.2665130421203663,37.163828354014775,2,n,2.3307620999999017,correct,n
154,2F4K,155,1,58.62387816209222,40.08197999293779,1.6919844913722384,43.88571188204632,2,n,2.1559038999998847,correct,n
155,2F4K,156,2,26.22601172758037,46.86056026278204,0.8626100034555972,49.978543887518,2,b,0.8728879000000234,correct,b
156,2F4K,157,2,49.90468172939032,60.988845542736485,1.4114132431994126,62.06638778224439,2,v,1.1450876000003518,incorrect,b
157,2F4K,158,2,31.76630418210585,44.47284709334668,0.9679397308709332,47.835612505368175,2,b,1.0298149999998714,correct,b
158,2F4K,159,1,48.809231290640206,44.216925474032784,1.3796257283888134,47.60541562066885,2,n,0.982093900000109,correct,n
159,2F4K,160,2,57.41476234144682,71.34759853169496,1.6499735188878977,69.60801938435222,2,v,1.3098019999997632,incorrect,b
160,2F4K,161,1,36.61655021243791,53.09612863019588,1.0706571038050063,55.48287687409612,1,n,2.967901200000142,incorrect,c
161,2F4K,162,1,35.63696365634647,49.17648287516198,1.049068519234978,52.04297648564712,1,c,2.6469912000002296,correct,c
162,2F4K,163,1,42.11610292805998,37.25720026766871,1.2003732612421931,41.35953848775026,2,c,0.9578598000002785,incorrect,n
163,2F4K,164,1,54.81113155641005,39.93082458761012,1.56301751671651,43.75004077067027,2,c,1.8074854000001324,incorrect,n
164,2F4K,165,2,56.33698978047446,41.83490634543128,1.6134061869917486,45.46150138068506,1,v,1.1474330999999438,correct,v
165,2F4K,166,2,39.352527267023575,52.80064121635598,1.133336139671219,55.226598648799175,2,b,0.9760369000000537,correct,b
166,2F4K,167,1,51.72496540460565,62.39326405155752,1.4658616659982189,63.17259233092316,1,n,2.2560481000000436,incorrect,c
167,2F4K,168,2,48.248742089851085,41.55607235407344,1.3636394693088216,45.21061695861764,1,b,4.204678999999942,incorrect,v
168,2F4K,169,1,59.064263716249926,79.22999370164565,1.7075501038739196,74.20459036890121,1,n,1.9409949999999299,incorrect,c
169,2F4K,170,1,52.30438093118734,64.2184190392334,1.4836300847581902,64.57455340136575,1,c,0.5694459000001189,correct,c
170,2F4K,171,1,69.89302482769166,55.30154186070371,2.138783934145967,57.376459956788224,2,c,1.4861842999998771,incorrect,n
171,2F4K,172,1,51.43159849779129,41.38228395953156,1.4569465537619322,45.05428104247839,2,c,2.367735999999695,incorrect,n
172,2F4K,173,1,62.90871025355094,46.16987198213268,1.8496615451534408,49.359797022822846,2,n,1.1841196999998829,correct,n
173,2F4K,174,1,33.53560978557452,54.28318218202613,1.0042150791387106,56.50647874071151,1,c,1.1338540000001558,correct,c
174,2F4K,175,2,54.450165592047256,44.85724913313503,1.5513293092769298,48.18124243250979,1,v,0.9401633000002221,correct,v
175,2F4K,176,1,53.39887636452025,71.34876204651374,1.5177837890209982,69.60877740753814,1,n,1.394808699999885,incorrect,c
176,2F4K,177,1,20.673504633829975,36.002234651626935,0.7685468637292454,40.24565868735655,1,c,1.771052200000213,correct,c
177,2F4K,178,1,50.15155863466611,65.9991420686732,1.4186775906094446,65.90070887719679,1,c,1.64351570000008,correct,c
178,2F4K,179,2,57.620534504380295,43.02011442673173,1.6570487364300044,46.52831392619255,1,v,2.057778000000326,correct,v
179,2F4K,180,1,47.28980502171514,55.513500459733415,1.3367170831962571,57.55652419013625,1,c,1.5699697999998534,correct,c
180,2F4K,181,2,56.26324088429945,40.40230682025674,1.6109338196891396,44.17335803451793,1,v,1.4615437000002203,correct,v
181,2F4K,182,1,68.44662343996403,46.22501190057867,2.075413355114942,49.4092341569545,2,n,1.7885086999999658,correct,n
182,2F4K,183,2,56.94808798354176,45.83032375581612,1.6340392519691072,49.05522607566474,1,v,2.3369173000000956,correct,v
183,2F4K,184,1,43.85185177151864,27.353447830456545,1.2444907896729824,32.82515705797989,2,c,2.065931499999806,incorrect,n
184,2F4K,185,1,40.40135894420232,60.29501791176086,1.1583255382167827,61.51160651652626,1,c,1.6864160000000084,correct,c
185,2F4K,186,2,60.10577717280054,68.70679839354956,1.74493502310963,67.83180879446387,2,v,1.7286002000000735,incorrect,b
186,2F4K,187,2,62.58256125435974,43.80687763516567,1.8371594397399489,47.23646874814915,1,v,2.341983099999652,correct,v
187,2F4K,188,2,54.108764086574205,75.9113143389228,1.5403550434461668,72.40474898871196,2,b,4.131934199999705,correct,b
188,2F4K,189,1,45.74119251561586,64.99096077503108,1.2943571702389536,65.15511779496714,1,c,1.8986562999998569,correct,c
189,2F4K,190,2,39.25243410556905,53.35912052277282,1.1309796910616492,55.71048998548133,2,b,1.0124611999999615,correct,b
190,2F4K,191,2,55.73813587466879,46.96377194391478,1.5934393150992838,50.07090383357743,1,b,2.0866298999999344,incorrect,v
191,2F4K,192,2,44.01285940663837,36.8351522213578,1.2486644019233375,40.98423729496935,1,v,1.1641900999998143,correct,v
192,2F4K,193,1,44.05058230874192,52.007361246538,1.2496442706340742,54.535871224662,1,c,1.9169128000003184,correct,c
193,2F4K,194,1,40.48777218289776,30.282408013692333,1.160408819359915,35.2759879647179,2,n,1.83182829999987,correct,n
194,2F4K,195,2,26.565952527482715,36.66618323681456,0.8687292843321326,40.83417560913609,2,b,2.262680299999829,correct,b
195,2F4K,196,1,36.338509365468845,51.568074500512765,1.064484749508941,54.151761124399705,1,c,2.4835706999997456,correct,c
196,2F4K,197,2,28.499794231588385,47.27789388446592,0.9043755078802904,50.35182108540686,2,b,2.367279199999757,correct,b
197,2F4K,198,1,59.62428024278218,41.31266685336063,1.7275511262509895,44.99166308376903,2,n,1.9713617999996131,correct,n
198,2F4K,199,2,48.170131714783565,57.57743066185933,1.3614122076842106,59.290109555000136,2,b,1.49794460000021,correct,b
199,2F4K,200,1,26.275206230836933,36.11505153934068,0.8634928799205362,40.34552575053895,1,n,0.8909380000000056,incorrect,c
200,2F4K,201,1,46.61873958338,50.5030971010552,1.318193523577926,53.21616408666807,1,c,1.7283643999999185,correct,c
201,2F4K,202,1,56.28672082046011,33.57583059673752,1.611720552664054,38.11293204130467,2,n,1.6795118000000002,correct,n
202,2F4K,203,1,52.669757143900576,66.7656402115264,1.4949453177116625,66.45813834167933,1,n,1.6011335999996845,incorrect,c
203,2F4K,204,2,52.855842944465145,36.37952094682981,1.500741283192824,40.57985358357246,1,v,3.0591702000001533,correct,v
204,2F4K,205,2,55.47773156927554,32.64096981040746,1.5848342315282864,37.30010207664269,1,v,0.9229072000002816,correct,v
205,2F4K,206,1,67.90838633514755,49.3704568023195,2.0523141603536907,52.21500152590185,2,n,1.3087399999999434,correct,n
206,2F4K,207,2,64.90713898748926,46.222115495829726,1.928145829550787,49.40663747423058,1,v,4.103015300000152,correct,v
207,2F4K,208,2,46.32870562276866,58.63101285779799,1.3102673100659905,60.16014339899736,2,b,2.2990764999999556,correct,b
208,2F4K,209,2,64.01165414420694,45.39838891829193,1.892573886348657,48.66746673334934,1,v,2.251264099999844,correct,v
209,2F4K,210,2,52.82288812431974,34.86507699144668,1.4997132131751456,39.24233479282349,1,v,0.5632292000000234,correct,v
210,2F4K,211,2,60.37758337450599,45.40944595970976,1.7548254091299107,48.67739699968418,1,v,0.5633388999999625,correct,v
211,2F4K,212,1,56.40534447830572,43.197032665809495,1.615701106672332,46.687572615516736,2,n,2.421928100000059,correct,n
212,2F4K,213,2,39.62950871067834,48.62785684293872,1.1398826133210358,51.55561202788492,2,b,0.8061091999998098,correct,b
213,2F4K,214,2,59.225492908063245,45.33999909141315,1.7132845578879718,48.61502383104011,1,v,0.8178923999998915,correct,v
214,2F4K,215,1,57.777314352390206,48.64196599371536,1.66245977164876,51.56816024687143,2,n,1.9228127999999742,correct,n
215,2F4K,216,1,37.19004903038012,48.06654687123822,1.0835017404866083,51.0558165363878,1,c,0.8182544999999664,correct,c
216,2F4K,217,2,68.95489570544824,55.73074730548246,2.09746519521681,57.74070564682073,1,v,1.1581299000004037,correct,v
217,2F4K,218,2,34.2573187662927,51.25289012073238,1.019399508657701,53.875495679480856,2,b,0.8855238999999528,correct,b
218,2F4K,219,1,59.37439830839136,41.894336862104566,1.7185977951926468,45.51498190613931,2,n,2.421926500000154,correct,n
219,2F4K,220,2,57.720975345032265,43.53751724959864,1.6605132793916892,46.99404824548272,1,v,1.1124684000001253,correct,v
220,2F4K,221,1,48.01660804559658,58.88287235690338,1.357072917901994,60.36652358269252,1,n,1.139926600000308,incorrect,c
221,2F4K,222,2,49.862506573636566,68.30108930512068,1.4101759655348538,67.54932728389034,2,v,0.8668427000002339,incorrect,b
222,2F4K,223,2,57.78545406761948,41.32492275844224,1.662741184435568,45.00268646074315,1,v,3.162160599999879,correct,v
223,2F4K,224,2,72.00647509880115,59.49519407883248,2.2348751726530964,60.86559931305049,1,v,0.5753644999999779,correct,v
224,2F4K,225,1,51.09796806735033,65.98454727186689,1.4468737500370856,65.89001498317869,1,n,1.1338373999997202,incorrect,c
225,2F4K,226,1,59.16175548252177,43.25111988249646,1.711015304656502,46.73625976199519,2,n,1.6375255000002653,correct,n
226,2F4K,227,1,47.636291927994826,63.906111385258896,1.346382899229344,64.3376400886771,1,c,0.9760587000000669,correct,c
227,2F4K,228,2,50.79346686521481,58.575992502902224,1.4377411985283055,60.11497439166096,2,b,1.9228310000003148,correct,b
228,2F4K,229,2,37.97564442814254,56.44585371383254,1.1013471864414075,58.34421122632008,2,b,0.7517990000001191,correct,b
229,2F4K,230,1,38.06725956769779,49.65554878287051,1.1034473443938848,52.46754523498133,1,c,1.6680724000002556,correct,c
230,2F4K,231,1,64.44756685590946,73.97930553988192,1.9098072051346835,71.26472384059224,1,n,0.824615200000153,incorrect,c
231,2F4K,232,2,75.93750482873422,58.45776677810745,2.4252360032062925,60.01781594199879,1,v,2.7131835000000137,correct,v
232,2F4K,233,2,52.39531140836626,35.216155862008044,1.4864380548253242,39.55142694506006,1,v,2.403702600000088,correct,v
233,2F4K,234,1,48.43282708551466,33.79830401673916,1.36886940275333,38.30715234988039,2,n,1.2726960999998482,correct,n
234,2F4K,235,2,65.11783645763516,54.77688979465144,1.9366122075669263,56.92923656776119,1,v,1.8927322999998069,correct,v
235,2F4K,236,2,50.59085086231867,63.90134646535038,1.43169633367334,64.33401573868242,2,v,3.2660633999998936,incorrect,b
236,2F4K,237,2,46.52563119511834,58.77282386335115,1.3156437927210216,60.2764248523609,2,b,1.1459672000000865,correct,b
237,2F4K,238,1,45.56593963414662,52.291997336250816,1.2896487533197731,54.78415273366058,1,c,3.0827439999998205,correct,c
238,2F4K,239,2,42.52694208267525,56.77624703486525,1.2106721721161051,58.621568950148,2,b,2.155371400000149,correct,b
239,2F4K,240,2,35.002454460437185,45.108833996595614,1.035317764148696,48.40734980999453,2,b,1.8499628000004122,correct,b
240,2F4K,241,2,35.02664446786296,46.91107335006729,1.035838677653256,50.02374950376351,2,b,1.0972458000001097,correct,b
241,2F4K,242,1,52.896831672190686,43.69386378498815,1.5020209652457135,47.13476262302933,2,n,2.6646919999998318,correct,n
242,2F4K,243,2,54.65064786918944,41.92104253141198,1.5578101639388795,45.53901461888193,1,v,0.824447599999985,correct,v
243,2F4K,244,2,75.28848489609041,56.14576131821333,2.392724920227596,58.09147532063826,1,v,0.6908315000000584,correct,v
244,2F4K,245,2,66.31238160317889,53.17492749430079,1.9853198402997447,55.5511235293403,1,v,0.4471804999998312,correct,v
245,2F4K,246,1,38.0582285601466,29.79597951331112,1.1032401424828742,34.86380661921361,2,c,1.0731590999998843,incorrect,n
246,2F4K,247,2,49.54329659218045,66.8404522065506,1.4008465184071108,66.5120989306234,2,v,1.1338401000002705,incorrect,b
247,2F4K,248,2,51.44160277749111,61.13274220422595,1.457249678468914,62.18077528256313,2,v,2.1730806999999004,incorrect,b
248,2F4K,249,2,47.17532079075579,36.61764657098532,1.3335386357135768,40.79109111603065,1,v,0.8181159000000662,correct,v
249,2F4K,250,1,37.55109837551835,27.316495789774333,1.0916670793151504,32.7947399007503,2,c,1.7702171000000817,incorrect,n
250,2F4K,251,2,48.01341159550783,42.39136269600018,1.3569827185549632,45.9623206316667,1,b,4.878350199999659,incorrect,v
251,2F4K,252,2,54.77557446135752,33.51767043243092,1.561862265891698,38.06220635956356,1,v,0.6847108000001754,correct,v
252,2F4K,253,2,51.02110671607453,40.06706161944935,1.4445630777733112,43.87231987048618,1,v,0.5029484000001503,correct,v
253,2F4K,254,1,60.2074561369718,51.44281354476762,1.748628337649982,54.042032980309465,2,n,1.1095257000001766,correct,n
254,2F4K,255,2,45.94327797708052,54.15269118799616,1.2998078258942325,56.3944401384915,2,b,1.5034081999997397,correct,b
255,2F4K,256,1,58.94192536061161,52.544092541200826,1.703211694649757,55.00363991621983,2,n,1.3212178999997377,correct,n
256,2F4K,257,2,39.914657888281226,53.124711762311925,1.1466616374792975,55.507637073740746,2,v,1.9347686000000976,incorrect,b
257,2F4K,258,2,41.40944316437442,26.347238693810077,1.1828632504806598,32.00174374307267,1,b,2.3975084000003335,incorrect,v
258,2F4K,259,1,60.86338149072796,44.94387227624216,1.7726422991848856,48.25910324421554,2,n,1.752734799999871,correct,n
259,2F4K,260,2,59.74028944912314,48.88097155490795,1.7317236039053734,51.78060922250078,1,v,3.380778400000054,correct,v
260,2F4K,261,1,56.003538312521925,41.88581574905864,1.602257640377815,45.507313760305074,2,n,1.1277843000002576,correct,n
261,2F4K,262,2,42.71112856250878,61.21357009053668,1.2153179984765647,62.24492489008452,2,b,1.2855736999999863,correct,b
262,2F4K,263,1,34.77468513945256,54.28577073633643,1.030425751924284,56.50870000188852,1,c,0.9521533000001909,correct,c
263,2F4K,264,1,51.09002657001596,36.15411397214967,1.4466348347776945,40.38011733170996,2,c,2.270190300000195,incorrect,n
264,2F4K,265,2,41.96056630708769,58.061495814377096,1.196497173855331,59.691165144828,2,b,1.425119999999879,correct,b
265,2F4K,266,2,37.975266347037554,57.122068875266194,1.1013385277107843,58.91084835383123,2,b,0.6301060999999208,correct,b
266,2F4K,267,1,36.89686982221203,54.78203543795435,1.0769162771972494,56.93363311407731,1,c,1.7832363999996232,correct,c
267,2F4K,268,2,35.83349224388443,49.83908718343158,1.0533645167415833,52.62994140878519,2,b,2.251275000000078,correct,b
268,2F4K,269,2,29.870147595470968,41.48711822752824,0.9305170096965756,45.148584212768974,2,b,0.5283855000002404,correct,b
269,2F4K,270,1,40.10890534222095,46.473235416960456,1.1513026714125658,49.63170147810676,1,c,2.038084400000116,correct,c
270,2F4K,271,1,57.45805349672643,51.71858279999536,1.6514595173475264,54.2834893676576,2,n,0.5866962000000058,correct,n
271,2F4K,272,2,58.41111954133253,42.3691544095096,1.6845153631788905,45.94233029048328,1,v,1.2491675999999643,correct,v
272,2F4K,273,1,50.41790553513927,71.19990110400684,1.4265567757031823,69.51161579334774,1,c,2.1609244999999646,correct,c
273,2F4K,274,2,37.51802034471984,51.77646505517967,1.090916447058716,54.33411494344509,2,b,0.8601782999999159,correct,b
274,2F4K,275,2,44.37268509473387,54.71613745739624,1.258042405605746,56.87731329731153,2,b,1.5586202999998022,correct,b
275,2F4K,276,1,49.31448430115225,62.92856921007366,1.3941970972691893,63.5880732200683,1,n,1.9713549000002786,incorrect,c
276,2F4K,277,1,72.76186654768055,60.641913256024736,2.2702575857042637,61.78964734503258,2,n,0.8962535999999091,correct,n
277,2F4K,278,1,61.589542350537485,70.4280057862432,1.799612472031993,69.00204074518587,1,n,1.510518200000206,incorrect,c
278,2F4K,279,1,43.70730674164894,59.89700895793214,1.2407558031128905,61.19098978959099,1,n,1.4979648999997153,incorrect,c
279,2F4K,280,2,49.2782594160612,30.362451734430984,1.3931472784708552,35.34399722985433,1,v,1.7350765999999567,correct,v
280,2F4K,281,2,48.96592144734405,59.41274073785381,1.3841282668797763,60.79861959339907,2,v,2.6401725000000624,incorrect,b
281,2F4K,282,1,73.0649934480033,54.01281439664302,2.284613002394176,56.27420652597711,2,n,3.3314829000000827,correct,n
282,2F4K,283,2,58.7857440196366,69.86802105072613,1.6976891472081626,68.62639514842232,2,v,0.6969023000001471,incorrect,b
283,2F4K,284,2,55.54869100063053,68.66102711649975,1.5871744755183874,67.80006443712522,2,b,0.9760512999996536,correct,b
284,2F4K,285,2,51.8246819205778,58.28465685365363,1.4689043520409764,59.87530655316176,2,b,1.0368444000000636,correct,b
285,2F4K,286,2,48.40877505445674,61.37734423530291,1.3681849367427457,62.37467730932289,2,b,0.6240576999998666,correct,b
286,2F4K,287,2,43.11211042470408,57.70003968069574,1.225493908201951,59.39190140682413,2,b,0.7818548000000192,correct,b
287,2F4K,288,1,67.31784162669565,51.38837658306871,2.0272657889844448,53.994319284764565,2,n,1.0852992999998605,correct,n
288,2F4K,289,1,34.60856535072672,48.13993540944264,1.0268724271813467,51.12122525393615,1,n,1.5101408999998966,incorrect,c
289,2F4K,290,1,53.62436850310496,37.92300693083262,1.524917354098564,41.95289408424406,2,c,1.3462454000000434,incorrect,n
290,2F4K,291,1,70.26633490599009,57.73083543455443,2.155451420073905,59.41744644832484,2,n,1.9227940000000672,correct,n
291,2F4K,292,2,31.888783427818783,49.99234479723152,0.9704081033849729,52.76542862813643,2,b,1.067098100000294,correct,b
292,2F4K,293,1,55.24774402720707,43.66584760501366,1.5772729259905565,47.10954852072299,2,n,1.1884659000002102,correct,n
293,2F4K,294,1,49.046449230759,61.55239824911722,1.3864479703310346,62.51302639990692,1,c,0.6484725999998773,correct,c
294,2F4K,295,1,56.49077096740809,47.59405786101235,1.6185737790090684,50.634278627213526,2,n,1.0913536999996722,correct,n
295,2F4K,296,2,49.70309979570269,41.383435161416365,1.4055092942227905,45.05531654480076,1,b,1.2548831999997674,incorrect,v
296,2F4K,297,1,66.16769941390432,51.67017981290911,1.9793558197826329,54.241139974344456,2,n,0.9396973000002617,correct,n
297,2F4K,298,2,32.32054779379465,44.21266904784608,0.9791599358594948,47.601586521957486,2,b,0.9880580000003647,correct,b
298,2F4K,299,2,49.89162603829433,39.66944254297197,1.4110301170288462,43.51553842158548,1,b,0.8182400000000598,incorrect,v
299,2F4K,300,2,48.46096136756742,40.46910372204034,1.3696704748678294,44.23336146857887,1,v,0.8054618999999548,correct,v
300,2F4K,301,1,58.21163651770821,70.35641326084541,1.677542242359294,68.95429300109525,1,n,2.8399728999997933,incorrect,c
301,2F4K,302,2,49.33367603706953,33.60657784070287,1.3947536057808827,38.139757096675375,1,b,4.265445699999873,incorrect,v
302,2F4K,303,2,53.0288403362098,40.714326195148544,1.5061497416212792,44.45370192666469,1,v,0.4310605000000578,correct,v
303,2F4K,304,2,56.68721620572436,42.08919583236899,1.6251991173741367,45.69034701992725,1,v,0.39367089999996097,correct,v
304,2F4K,305,2,62.67698651431676,52.38108717880375,1.840770279332577,54.861763512996085,1,v,0.5572988000003534,correct,v
305,2F4K,306,2,44.22397067411584,59.74550399937231,1.2541580074420768,61.06850032819241,2,v,1.0427934999997888,incorrect,b
306,2F4K,307,2,48.42290024924759,65.09012387734317,1.368586866119086,65.22906498237505,2,b,0.9214554999998654,correct,b
307,2F4K,308,2,55.41558204462248,40.69767663711453,1.5827873732799438,44.43873899153623,1,v,2.894594699999743,correct,v
308,2F4K,309,1,64.4553116180667,48.88535146651425,1.9101148001546404,51.78450041777394,2,n,1.986231399999724,correct,n
309,2F4K,310,2,54.63061867732229,65.28785348428526,1.5571614783676295,65.37611941020826,2,v,2.5554188000000977,incorrect,b
310,2F4K,311,2,58.46617225892229,45.69776385258725,1.686444882206143,48.936259463042354,1,b,0.9456645999998727,incorrect,v
311,2F4K,312,1,30.31762660150661,43.89406503272217,0.939215939628554,47.31492717020899,1,n,2.823111400000016,incorrect,c
312,2F4K,313,2,50.259575134017005,54.1825717653488,1.4218677204329908,56.42010627914462,2,b,1.928882700000031,correct,b
313,2F4K,314,1,51.34327587544108,37.774255722716376,1.4542731562718578,41.82019975726433,2,n,3.8041889000000992,correct,n
314,2F4K,315,1,56.92226373339568,72.70271687585712,1.6331620081490346,70.4756970213698,1,c,1.0721033999998326,correct,c
315,2F4K,316,1,66.34726585629427,50.20797711145416,1.9867605091136695,52.95587426497254,2,n,2.4461996,correct,n
316,2F4K,317,2,57.38506509157281,70.3467967539327,1.648954913817951,68.94787316549534,2,v,2.069914499999868,incorrect,b
317,2F4K,318,2,74.53908745258413,56.7913775176542,2.3557274334681573,58.63424778910213,1,v,0.9152130000002217,correct,v
318,2F4K,319,1,59.62393827736309,44.05432485753941,1.727538841728737,47.45912850619403,2,n,2.2510980000001837,correct,n
319,2F4K,320,2,44.0512642919811,52.40065169651804,1.2496619925184576,54.87880069125314,2,b,1.9531710000001112,correct,b
320,2F4K,321,1,48.96740209730527,38.0666829734133,1.3841708838076123,42.0811283257651,2,c,2.1183396000001267,incorrect,n
321,2F4K,322,2,68.82759313898353,50.57099646898632,2.0919201647528625,53.27598972637392,1,v,2.44159209999998,correct,v
322,2F4K,323,2,47.32530405067372,39.7152333907796,1.3377041873776292,43.556610387380246,1,b,0.8243105999999898,incorrect,v
323,2F4K,324,2,54.90944571694008,40.72408239449514,1.5662161956090557,44.462469989427774,1,v,0.551252399999612,correct,v
324,2F4K,325,1,26.65114814557052,39.80162531643019,0.8702696831927103,43.63411097818231,1,c,1.3340840999999273,correct,c
325,2F4K,326,1,70.51708197761451,60.08081154047579,2.166719594277064,61.33926366018508,2,n,3.9308264999999665,correct,n
326,2F4K,327,1,45.32288594739406,27.857059663147357,1.2831471070577545,33.24102011483983,2,c,0.7697032000000945,incorrect,n
327,2F4K,328,1,47.65251447042967,28.75616666866621,1.3468371623454147,33.98937657975729,2,n,1.7710547000001498,correct,n
328,2F4K,329,2,56.917898936733486,47.75810231957265,1.63301378354737,50.78071446303932,1,v,1.6253809999998339,correct,v
329,2F4K,330,2,33.79795475583526,48.5413634243891,1.009708354133747,51.47867140562429,2,b,3.7866033000000243,correct,b
330,2F4K,331,2,40.85689137431751,26.177335722752243,1.1693499443865063,31.86372226444685,1,b,0.7636302000000796,incorrect,v
331,2F4K,332,2,35.40461985039356,48.55410094602597,1.0440122178181988,51.490003866752566,2,b,0.8061166000002231,correct,b
332,2F4K,333,2,38.82533632643644,54.04961756680447,1.1209796513654342,56.30585494745554,2,b,0.6546133000001646,correct,b
333,2F4K,334,1,59.413604622374,46.66212698050456,1.7199994918118835,49.80089681358571,2,n,0.8728785000002972,correct,n
334,2F4K,335,2,62.95673213856218,52.574175580297926,1.8515095157011048,55.0298055702939,1,v,0.794440300000133,correct,v
335,2F4K,336,2,53.55418471102017,72.93857130472162,1.5226934657495867,70.6235708276861,2,v,0.569605700000011,incorrect,b
336,2F4K,337,1,52.50524358775806,37.91551261367749,1.4898399024497058,41.9462070262459,2,c,1.2552146000002722,incorrect,n
337,2F4K,338,2,26.965310537701765,46.28561942291929,0.8759736123426175,49.46356573482774,2,b,1.1520388999997522,correct,b
338,2F4K,339,1,58.06668096303327,40.73156745960952,1.6724932970345292,44.469197034662415,2,n,5.0,correct,n
339,2F4K,340,2,60.92239075391626,49.74158993164569,1.7748187782622782,52.54369377342382,1,v,0.7820765999999821,correct,v
340,2F4K,341,1,36.07930578424941,49.85269725945956,1.0587626255454792,52.64197770261497,1,c,1.6739819999997962,correct,c
341,2F4K,342,2,61.24896449472455,47.85508275163394,1.7869124298797583,50.86724491356076,1,v,0.7272138999996969,correct,v
342,2F4K,343,1,48.005450909483855,38.29922581682488,1.3567581051960755,42.28881336294193,2,n,1.4556797000000188,correct,n
343,2F4K,344,1,28.364023432537955,40.0321459403966,0.9018258086076356,43.84097814399136,1,c,0.8851840000002085,correct,c
344,2F4K,345,1,58.16163982503403,68.34944506457582,1.6757990885107867,67.58312608169605,1,c,1.9654433000000608,correct,c
345,2F4K,346,2,27.591091429349586,42.96810670664998,0.8874469238130771,46.48149669800575,2,b,1.9970886999999493,correct,b
346,2F4K,347,2,42.41488414194,32.15780664180683,1.2078543730599307,36.882219471183966,1,b,1.5586763999999675,incorrect,v
347,2F4K,348,2,42.60628575833826,29.617183671906115,1.212671315357985,34.712791203660245,1,v,0.7264430999998694,correct,v
348,2F4K,349,2,55.98472884795915,38.73339091568195,1.6016310689750022,42.67698987131858,1,v,1.0905837999998766,correct,v
349,2F4K,350,1,56.1357221887044,69.69344122243668,1.6066678025154275,68.50827278055947,1,n,1.5348532000002706,incorrect,c
350,2F4K,351,1,56.06018480758746,46.23628452507735,1.6041461009418447,49.419340107352,2,c,1.704736199999843,incorrect,n
351,2F4K,352,1,74.44611665889931,63.107194830366055,2.3511775679898195,63.72593403348998,2,c,1.40089560000024,incorrect,n
352,2F4K,353,1,31.095165387228853,51.55286081416239,0.95452504810048,54.13843865967237,1,c,1.4737286999998105,correct,c
353,2F4K,354,2,72.78619171952886,50.35729967350793,2.271406235426896,53.08762642107262,1,v,1.193713900000148,correct,v
354,2F4K,355,1,58.68815792913813,45.41608832897534,1.6942476118396357,48.68336237644811,2,n,1.9226991000000453,correct,n
355,2F4K,356,2,52.67530378548133,43.20322601084615,1.4951177534067082,46.69314765144316,1,v,1.2673392000001513,correct,v
356,2F4K,357,1,42.1499049213791,58.570064647939326,1.2012172914305594,60.11010612960733,1,c,1.6800766000001204,correct,c
357,2F4K,358,1,68.49477105939536,60.61084671856044,2.077492302835528,61.76480100256691,2,c,1.0610649000000194,incorrect,n
358,2F4K,359,2,58.45609947172419,67.22466987097535,1.6860916802955703,66.7879615293856,2,v,0.6847238000000289,incorrect,b
359,2F4K,360,1,57.65446405174015,47.93087323413148,1.6582182715823195,50.93484751650277,2,n,1.0612327999997433,correct,n
360,2F4K,361,1,38.72722671485632,57.49012468021752,1.1186950361361363,59.21754168382511,1,n,5.0,correct,c
361,2F4K,362,2,49.28817165101473,35.11749177928613,1.3934344623737434,39.46449984813181,1,v,0.8121611000001394,correct,v
362,2F4K,363,1,46.17740354198983,33.242479009277275,1.3061513750955276,37.82246942789192,2,c,2.1352373999998235,incorrect,n
363,2F4K,364,1,58.67427698658805,42.01555881813052,1.693758644470818,45.62407422476595,2,n,1.9895425000004252,correct,n
364,2F4K,365,2,51.49544289011227,61.436975493160816,1.4588820904687634,62.42184481480527,2,v,1.1277672000001076,incorrect,b
365,2F4K,366,1,58.47068789481256,37.80006563194845,1.6866032468301444,41.84321845838218,2,n,2.2520070999999007,correct,n
366,2F4K,367,1,40.747798340623,30.09562246050219,1.1667002503822728,35.117485213827216,2,c,1.2309996999997566,incorrect,n
367,2F4K,368,1,31.805447758087947,50.134800151513616,0.9687279233628476,52.891269076091525,1,n,0.5199443000001338,incorrect,c
368,2F4K,369,2,43.16527305556174,35.98096520520245,1.226849423466494,40.22683697128839,1,v,2.458311800000047,correct,v
369,2F4K,370,2,40.26426229123598,29.15670359404624,1.1550280345015975,34.32510308597218,1,v,1.4266057999998338,correct,v
370,2F4K,371,2,65.38642819991226,53.046149386118216,1.947458852265983,55.43956936895641,1,v,1.3528111999999055,correct,v
371,2F4K,372,1,28.983993053318024,40.85757707365863,0.9135273273889204,44.58245694263569,1,c,1.5040308999996341,correct,c
372,2F4K,373,2,70.05440884560815,54.81720920412381,2.1459735068178727,56.96368092711627,1,v,0.7332899999996698,correct,v
373,2F4K,374,1,44.658650032642335,32.41438722436462,1.2655456083904535,37.10393859050872,2,c,1.042217900000196,incorrect,n
374,2F4K,375,2,46.3689548348453,54.44153139011984,1.3113644089180758,56.642269185437925,2,v,0.9153794000003472,incorrect,b
375,2F4K,376,1,39.86618978638301,56.83341460231436,1.1455065385688747,58.66946286058202,1,c,0.9942515999991883,correct,c
376,2F4K,377,1,48.5956727440059,65.73182865829622,1.3735126354127396,65.70437513651791,1,c,0.9092866999999387,correct,c
377,2F4K,378,1,49.14607227700152,36.29774200161941,1.3893231171709028,40.50736313088198,2,n,0.8417018999998618,correct,n
378,2F4K,379,2,62.18487248550628,48.881107664888525,1.8220293193252144,51.78073014627621,1,v,0.9942901000003985,correct,v
379,2F4K,380,1,35.14724485095988,23.83435302667074,1.038439628861431,29.992287214829258,2,n,0.8243366999995487,correct,n
380,2F4K,381,1,37.535883881687525,58.569368730711865,1.0913217561288435,60.10953458353378,1,c,1.321820299999672,correct,c
381,2F4K,382,1,45.75923941038311,53.82410062527856,1.2948430007971656,56.111773422906,1,c,0.9882631000000401,correct,c
382,2F4K,383,2,45.76990159118478,56.07724348796437,1.295130117208741,58.03366299640237,2,v,3.556791000000885,incorrect,b
383,2F4K,384,1,65.18221779786958,50.58533241396363,1.9392066266927317,53.28861809600589,2,c,3.064792199999829,incorrect,n
384,2F4K,385,1,43.37075426021478,58.28595598947455,1.2321027966463662,59.87637712774424,1,c,2.2396841999998287,correct,c
385,2F4K,386,1,59.26395087832879,45.197686173025645,1.7146552384129186,48.487182494385394,2,n,1.117119200000161,correct,n
386,2F4K,387,1,39.2441284289898,52.8058045983608,1.1307843745160713,55.23108171344654,1,c,0.9273754000005283,correct,c
387,2F4K,388,1,45.49322249029346,53.87487201557548,1.287700135536162,56.15549902121803,1,c,1.5101291999999376,correct,c
388,2F4K,389,1,60.130586832267454,38.11966207532947,1.7458354714671014,42.12842970660521,2,n,0.5451788999998826,correct,n
389,2F4K,390,1,33.38313106478164,43.61916969638817,1.0010360510450222,47.0675382585027,1,c,1.1216859999994995,correct,c
390,2F4K,391,2,32.68256485770465,47.24196823019221,0.9865588006022202,50.31970696146865,2,b,1.43136720000075,correct,b
391,2F4K,392,1,48.19431840828043,58.35193949146824,1.3620970996564947,59.93073037628548,1,c,0.9032273000002533,correct,c
392,2F4K,393,2,66.03143224098017,50.19576910892902,1.9737550635386705,52.94509803801223,1,b,2.147734700000001,incorrect,v
393,2F4K,394,2,67.6664706790823,54.81533439672726,2.042015929269233,56.96207957743924,1,v,0.4480868000000555,correct,v
394,2F4K,395,2,53.12164540074196,35.51939450431923,1.5090591565870246,39.81889045509241,1,b,1.1643909000003987,incorrect,v
395,2F4K,396,2,40.7099115814252,59.45496736409307,1.1657814473919512,60.83293056475774,2,b,0.9457125999997515,correct,b
396,2F4K,397,2,54.24733496332397,71.75659957348515,1.5447999780475512,69.87311230149591,2,v,1.2552137000002404,incorrect,b
397,2F4K,398,2,30.93726296018585,49.83529869459328,0.951396015808532,52.62659084780539,2,v,1.2065615000001344,incorrect,b
398,2F4K,399,2,53.13098116410879,41.69432804866476,1.5093521413072923,45.33500692680493,1,v,1.0610545999998067,correct,v
399,2F4K,400,1,73.63190439509653,53.341430523814765,2.311704722244512,55.69519418955572,2,c,1.3402081999993243,incorrect,n
